time,seconds_elapsed,z,y,x
1766054134466112300,-1.8108876953125,0.010995574295520782,-0.0012217304902151227,-0.0012217304902151227
1766054134476122000,-1.8008779296875,0.010995574295520782,-0.0024434609804302454,-0.006108652334660292
1766054134506151400,-1.7708486328125,0.00366519158706069,0,0.010995574295520782
1766054134516161300,-1.760838623046875,0.004886921960860491,0,0.00366519158706069
1766054134526140400,-1.750859619140625,0.006108652334660292,-0.0012217304902151227,-0.00366519158706069
1766054134566148900,-1.71085107421875,0.0012217304902151227,0.025656340643763542,0.039095375686883926
1766054134576128300,-1.700871826171875,0.0024434609804302454,0.018325956538319588,0.01466076634824276
1766054134636064800,-1.640935302734375,0.009773843921720982,-0.051312681287527084,-0.03787364438176155
1766054134646105000,-1.63089501953125,0.006108652334660292,-0.06719517707824707,-0.025656340643763542
1766054134656114700,-1.62088525390625,0,-0.0806342139840126,-0.004886921960860491
1766054134666124500,-1.61087548828125,-0.0024434609804302454,-0.09162978827953339,0.012217304669320583
1766054134676073200,-1.6009267578125,0,-0.1014036312699318,0.009773843921720982
1766054134696092700,-1.5809072265625,0.01710422709584236,-0.10506882518529892,-0.03176499158143997
1766054134706102500,-1.5708974609375,0.021991148591041565,-0.09896016865968704,-0.042760565876960754
1766054134716112400,-1.5608876953125,0.025656340643763542,-0.08796459436416626,-0.03298672288656235
1766054134736131800,-1.5408681640625,0.028099801391363144,-0.06230825558304787,0.02321287989616394
1766054134756090400,-1.52090966796875,0.02932153269648552,-0.03420845419168472,0.06352998316287994
1766054134766100200,-1.510899658203125,0.030543262138962746,-0.021991148591041565,0.05619960278272629
1766054134776109800,-1.50089013671875,0.028099801391363144,-0.00733038317412138,0.04153883829712868
1766054134786089200,-1.490910888671875,0.021991148591041565,0.00733038317412138,0.02932153269648552
1766054134826097700,-1.45090234375,-0.006108652334660292,0.04398229718208313,-0.024434609338641167
1766054134836107500,-1.440892578125,-0.010995574295520782,0.05009094998240471,-0.02687807008624077
1766054134846086700,-1.430913330078125,-0.018325956538319588,0.05253441259264946,-0.019547687843441963
1766054134856096500,-1.420903564453125,-0.02321287989616394,0.05253441259264946,-0.004886921960860491
1766054134866106000,-1.410893798828125,-0.02687807008624077,0.051312681287527084,0.009773843921720982
1766054134876085500,-1.40091455078125,-0.02321287989616394,0.045204028487205505,0.01466076634824276
1766054134886095400,-1.390904541015625,-0.015882495790719986,0.0354301854968071,0.006108652334660292
1766054134916124400,-1.36087548828125,0.01710422709584236,0.010995574295520782,-0.019547687843441963
1766054134926103800,-1.350896240234375,0.02076941914856434,0.00855211354792118,0.0024434609804302454
1766054134936113700,-1.34088623046875,0.02076941914856434,0.006108652334660292,0.019547687843441963
1766054134946123300,-1.330876708984375,0.02076941914856434,0,0.02932153269648552
1766054134956102700,-1.3208974609375,0.018325956538319588,-0.006108652334660292,0.0403171069920063
1766054134966112300,-1.3108876953125,0.018325956538319588,-0.006108652334660292,0.0403171069920063
1766054134976091600,-1.300908447265625,0.01710422709584236,-0.012217304669320583,0.03420845419168472
1766054134986101200,-1.290898681640625,0.01710422709584236,-0.018325956538319588,0.015882495790719986
1766054134996111000,-1.280888916015625,0.01466076634824276,-0.019547687843441963,0.00855211354792118
1766054135026140400,-1.250859619140625,-0.0012217304902151227,-0.030543262138962746,0.0024434609804302454
1766054135036119600,-1.24088037109375,-0.006108652334660292,-0.03420845419168472,0.012217304669320583
1766054135046099000,-1.230901123046875,-0.00733038317412138,-0.0354301854968071,0.004886921960860491
1766054135056139300,-1.22086083984375,-0.00366519158706069,-0.03298672288656235,-0.00855211354792118
1766054135066118400,-1.210881591796875,0,-0.02687807008624077,-0.01710422709584236
1766054135076067000,-1.200932861328125,0.0024434609804302454,-0.019547687843441963,-0.02076941914856434
1766054135086107400,-1.190892578125,0.00366519158706069,-0.010995574295520782,-0.012217304669320583
1766054135096086800,-1.180913330078125,0.0012217304902151227,-0.0012217304902151227,0.0024434609804302454
1766054135106035500,-1.170964599609375,0,0.00366519158706069,0.010995574295520782
1766054135125963500,-1.151036376953125,-0.0024434609804302454,0.00855211354792118,0.019547687843441963
1766054135136003600,-1.140996337890625,-0.0024434609804302454,0.012217304669320583,0.010995574295520782
1766054135145983000,-1.13101708984375,0.00366519158706069,0.013439035043120384,-0.006108652334660292
1766054135155962000,-1.121037841796875,0.00733038317412138,0.015882495790719986,-0.01466076634824276
1766054135165972000,-1.111028076171875,0.006108652334660292,0.01710422709584236,-0.01466076634824276
1766054135176012300,-1.10098779296875,0.00733038317412138,0.01710422709584236,-0.0024434609804302454
1766054135185991400,-1.091008544921875,0.00733038317412138,0.01466076634824276,0.009773843921720982
1766054135195970800,-1.081029296875,0.00733038317412138,0.013439035043120384,0.019547687843441963
1766054135205980400,-1.07101953125,0.00733038317412138,0.012217304669320583,0.021991148591041565
1766054135215959800,-1.061040283203125,0.009773843921720982,0.012217304669320583,0.009773843921720982
1766054135245928000,-1.031072021484375,0.012217304669320583,0.01466076634824276,-0.0024434609804302454
1766054135255937800,-1.021062255859375,0.00855211354792118,0.01466076634824276,0.01466076634824276
1766054135265917000,-1.0110830078125,0.0012217304902151227,0.00855211354792118,0.03176499158143997
1766054135275835100,-1.001164794921875,0,0.00366519158706069,0.028099801391363144
1766054135285845000,-0.991155029296875,-0.0012217304902151227,-0.0024434609804302454,0.02076941914856434
1766054135295824100,-0.98117578125,-0.0024434609804302454,-0.00855211354792118,0.00733038317412138
1766054135305834000,-0.971166015625,-0.0012217304902151227,-0.010995574295520782,-0.009773843921720982
1766054135315843800,-0.96115625,0.004886921960860491,-0.013439035043120384,-0.030543262138962746
1766054135355852300,-0.921147705078125,0.0012217304902151227,-0.012217304669320583,-0.004886921960860491
1766054135365801000,-0.911198974609375,0.0012217304902151227,-0.009773843921720982,0.00855211354792118
1766054135385820700,-0.891179443359375,0.009773843921720982,-0.009773843921720982,-0.009773843921720982
1766054135395830300,-0.881169677734375,0.015882495790719986,-0.009773843921720982,-0.0354301854968071
1766054135405809700,-0.8711904296875,0.018325956538319588,-0.00855211354792118,-0.04886921867728233
1766054135415819300,-0.8611806640625,0.01710422709584236,-0.006108652334660292,-0.03787364438176155
1766054135425798700,-0.851201416015625,0.013439035043120384,-0.0024434609804302454,-0.00733038317412138
1766054135435808300,-0.841191650390625,0.010995574295520782,-0.0024434609804302454,0.019547687843441963
1766054135455766800,-0.821233154296875,0.01466076634824276,-0.00855211354792118,0.030543262138962746
1766054135465807000,-0.81119287109375,0.019547687843441963,-0.009773843921720982,0.013439035043120384
1766054135475786500,-0.801213623046875,0.025656340643763542,-0.009773843921720982,-0.01466076634824276
1766054135485796000,-0.791203857421875,0.025656340643763542,-0.006108652334660292,-0.02932153269648552
1766054135495745000,-0.7812548828125,0.02321287989616394,-0.00366519158706069,-0.02932153269648552
1766054135505724200,-0.77127587890625,0.018325956538319588,-0.0012217304902151227,-0.02076941914856434
1766054135515734000,-0.761265869140625,0.013439035043120384,-0.0012217304902151227,-0.004886921960860491
1766054135525713200,-0.751286865234375,0.00855211354792118,-0.00366519158706069,0.0024434609804302454
1766054135535753500,-0.74124658203125,0.006108652334660292,-0.00366519158706069,0.0024434609804302454
1766054135545732600,-0.731267333984375,0.004886921960860491,0,-0.0024434609804302454
1766054135565721600,-0.7112783203125,0.00366519158706069,0.004886921960860491,-0.03787364438176155
1766054135575762000,-0.701238037109375,0.006108652334660292,0.0012217304902151227,-0.05009094998240471
1766054135585741300,-0.6912587890625,0.006108652334660292,0.0012217304902151227,-0.05009094998240471
1766054135595751000,-0.6812490234375,0.00855211354792118,-0.0024434609804302454,-0.06475171446800232
1766054135605730300,-0.671269775390625,0.00855211354792118,-0.0012217304902151227,-0.05009094998240471
1766054135615740000,-0.661260009765625,0.004886921960860491,0,-0.02932153269648552
1766054135625749800,-0.651250244140625,0.00366519158706069,0,-0.012217304669320583
1766054135635759600,-0.641240478515625,0.0024434609804302454,-0.0024434609804302454,0.00366519158706069
1766054135645738800,-0.63126123046875,0.0012217304902151227,-0.006108652334660292,0.004886921960860491
1766054135665758200,-0.61124169921875,0.00366519158706069,-0.009773843921720982,-0.02321287989616394
1766054135675768000,-0.60123193359375,0.00366519158706069,-0.00733038317412138,-0.030543262138962746
1766054135685716700,-0.591283203125,0.0012217304902151227,-0.00366519158706069,-0.021991148591041565
1766054135695726600,-0.5812734375,-0.0024434609804302454,0.0012217304902151227,-0.006108652334660292
1766054135705705700,-0.571294189453125,-0.00366519158706069,0.00366519158706069,0.0024434609804302454
1766054135715685000,-0.56131494140625,-0.0024434609804302454,0.006108652334660292,0.00733038317412138
1766054135725664300,-0.551335693359375,0.0012217304902151227,0.006108652334660292,0
1766054135735674000,-0.541325927734375,0.004886921960860491,0.00855211354792118,-0.006108652334660292
1766054135755693600,-0.521306396484375,0.010995574295520782,0.013439035043120384,-0.03176499158143997
1766054135795641000,-0.48135888671875,-0.0024434609804302454,0.01710422709584236,0.018325956538319588
1766054135805651000,-0.47134912109375,-0.0024434609804302454,0.012217304669320583,0.009773843921720982
1766054135815630000,-0.461369873046875,-0.0024434609804302454,0.00855211354792118,0.010995574295520782
1766054135825609500,-0.451390625,0,0.006108652334660292,-0.0024434609804302454
1766054135835588600,-0.441411376953125,0.00733038317412138,0.004886921960860491,-0.02321287989616394
1766054135845568000,-0.431431884765625,0.010995574295520782,0.006108652334660292,-0.024434609338641167
1766054135865618000,-0.411382080078125,0.00366519158706069,0.00855211354792118,0.0024434609804302454
1766054135895586300,-0.38141357421875,0.00366519158706069,0.0024434609804302454,0.009773843921720982
1766054135905596000,-0.371404052734375,0.006108652334660292,-0.0012217304902151227,-0.0012217304902151227
1766054135925585000,-0.3514150390625,0.00855211354792118,-0.004886921960860491,-0.02321287989616394
1766054136005663200,-0.271336669921875,0.00366519158706069,0.00855211354792118,-0.019547687843441963
1766054136025621500,-0.25137841796875,0.00733038317412138,0.00855211354792118,-0.02932153269648552
1766054136035631400,-0.24136865234375,0.00733038317412138,0.00855211354792118,-0.0354301854968071
1766054136045580000,-0.231419921875,0.006108652334660292,0.00855211354792118,-0.02932153269648552
1766054136055559400,-0.221440673828125,0.00366519158706069,0.009773843921720982,-0.01710422709584236
1766054136065538600,-0.21146142578125,0.004886921960860491,0.009773843921720982,-0.018325956538319588
1766054136085527600,-0.191472412109375,0.00733038317412138,0.004886921960860491,-0.03176499158143997
1766054136115526400,-0.1614736328125,0,0.00855211354792118,-0.015882495790719986
1766054136125536300,-0.151463623046875,0.0012217304902151227,0.010995574295520782,-0.01466076634824276
1766054136135545900,-0.1414541015625,0.004886921960860491,0.00733038317412138,-0.02321287989616394
1766054136145525200,-0.131474853515625,0.009773843921720982,0,-0.0354301854968071
1766054136155534800,-0.121465087890625,0.012217304669320583,-0.0024434609804302454,-0.04642575979232788
1766054136165514200,-0.11148583984375,0.013439035043120384,0.0012217304902151227,-0.03787364438176155
1766054136175554600,-0.101445556640625,0.010995574295520782,0.00733038317412138,-0.021991148591041565
1766054136205553200,-0.07144677734375,0.00855211354792118,0.00733038317412138,-0.004886921960860491
1766054136225511700,-0.05148828125,0.00366519158706069,0.00366519158706069,-0.012217304669320583
1766054136235521500,-0.041478515625,0.004886921960860491,0.0024434609804302454,-0.012217304669320583
1766054136245500700,-0.031499267578125,0.00366519158706069,0,-0.013439035043120384
1766054136255480000,-0.02152001953125,0.0024434609804302454,-0.0012217304902151227,-0.01466076634824276
1766054136265489700,-0.01151025390625,0.00366519158706069,-0.006108652334660292,-0.015882495790719986
1766054136275469000,-0.001531005859375,0.00366519158706069,-0.009773843921720982,-0.021991148591041565
1766054136285448200,0.0084482421875,0.006108652334660292,-0.00855211354792118,-0.018325956538319588
1766054136295488500,0.018488525390625,0.006108652334660292,-0.006108652334660292,-0.00855211354792118
1766054136305468000,0.028468017578125,0.006108652334660292,-0.0024434609804302454,-0.00733038317412138
1766054136315416600,0.03841650390625,0.00733038317412138,0.00366519158706069,0.0024434609804302454
1766054136325426200,0.04842626953125,0.004886921960860491,0.009773843921720982,0.012217304669320583
1766054136335436000,0.05843603515625,0.004886921960860491,0.01466076634824276,0.009773843921720982
1766054136345446000,0.06844580078125,0.00366519158706069,0.015882495790719986,0.010995574295520782
1766054136355425000,0.078425048828125,0.0024434609804302454,0.018325956538319588,0.0024434609804302454
1766054136365404400,0.088404296875,0.00366519158706069,0.018325956538319588,-0.00855211354792118
1766054136375414000,0.0984140625,0.00366519158706069,0.018325956538319588,-0.015882495790719986
1766054136385393400,0.108393310546875,0.0024434609804302454,0.01710422709584236,-0.018325956538319588
1766054136445360400,0.1683603515625,0.00366519158706069,0.0012217304902151227,-0.012217304669320583
1766054136455339500,0.178339599609375,0.00366519158706069,0,-0.015882495790719986
1766054136465379800,0.1883798828125,0.00366519158706069,0,-0.018325956538319588
1766054136475359200,0.198359130859375,0.00366519158706069,0.0024434609804302454,-0.015882495790719986
1766054136485338400,0.20833837890625,0.00366519158706069,0.0012217304902151227,-0.01466076634824276
1766054136495348200,0.21834814453125,0.004886921960860491,-0.0012217304902151227,-0.01466076634824276
1766054136505327400,0.228327392578125,0.006108652334660292,-0.0012217304902151227,-0.006108652334660292
1766054136515306800,0.238306640625,0.006108652334660292,-0.0024434609804302454,-0.00366519158706069
1766054136525316400,0.24831640625,0.00733038317412138,-0.00366519158706069,-0.004886921960860491
1766054136535326200,0.258326171875,0.00733038317412138,-0.00366519158706069,-0.00366519158706069
1766054136545336000,0.268336181640625,0.00733038317412138,-0.004886921960860491,-0.0024434609804302454
1766054136555315200,0.278315185546875,0.00855211354792118,-0.00366519158706069,-0.00855211354792118
1766054136565294300,0.28829443359375,0.010995574295520782,-0.004886921960860491,-0.02321287989616394
1766054136575273700,0.298273681640625,0.01466076634824276,-0.00366519158706069,-0.03420845419168472
1766054136595293200,0.318293212890625,0.009773843921720982,0.006108652334660292,-0.015882495790719986
1766054136615313000,0.33831298828125,0.00733038317412138,0.00855211354792118,-0.0024434609804302454
1766054136625292000,0.3482919921875,0.006108652334660292,0.009773843921720982,0.0024434609804302454
1766054136635271200,0.358271240234375,0.006108652334660292,0.010995574295520782,0.004886921960860491
1766054136645250600,0.36825048828125,0.00366519158706069,0.013439035043120384,0.015882495790719986
1766054136655260200,0.37826025390625,0.0024434609804302454,0.013439035043120384,0.021991148591041565
1766054136665270000,0.38827001953125,0.00366519158706069,0.00855211354792118,0.013439035043120384
1766054136675249400,0.39824951171875,0.006108652334660292,0,-0.006108652334660292
1766054136685228500,0.408228515625,0.012217304669320583,-0.006108652334660292,-0.02687807008624077
1766054136695238400,0.41823828125,0.01710422709584236,-0.006108652334660292,-0.045204028487205505
1766054136705217500,0.428217529296875,0.02321287989616394,-0.00366519158706069,-0.05009094998240471
1766054136725206500,0.44820654296875,0.021991148591041565,-0.0024434609804302454,-0.015882495790719986
1766054136765123600,0.48812353515625,0.0354301854968071,0.00366519158706069,0.0024434609804302454
1766054136775164000,0.498163818359375,0.02932153269648552,-0.006108652334660292,-0.018325956538319588
1766054136785143000,0.50814306640625,0.02932153269648552,-0.009773843921720982,-0.018325956538319588
1766054136795122400,0.518122314453125,0.024434609338641167,-0.010995574295520782,0.00366519158706069
1766054136805101600,0.5281015625,0.018325956538319588,-0.019547687843441963,0.030543262138962746
1766054136815111400,0.538111328125,0.013439035043120384,-0.02932153269648552,0.05253441259264946
1766054136825090600,0.548090576171875,0.006108652334660292,-0.036651913076639175,0.07208210229873657
1766054136845079600,0.56807958984375,0.006108652334660292,-0.0403171069920063,0.05619960278272629
1766054136855059000,0.578058837890625,0.02076941914856434,-0.04764748737215996,-0.03298672288656235
1766054136865038000,0.5880380859375,0.02076941914856434,-0.04764748737215996,-0.03298672288656235
1766054136875017500,0.598017578125,0.02687807008624077,-0.04642575979232788,-0.06352998316287994
1766054136884996600,0.60799658203125,0.03298672288656235,-0.042760565876960754,-0.0659734457731247
1766054136895037000,0.618036865234375,0.042760565876960754,-0.04153883829712868,-0.051312681287527084
1766054136905046800,0.628046875,0.05619960278272629,-0.04764748737215996,-0.045204028487205505
1766054136915026000,0.63802587890625,0.07696902006864548,-0.05742133408784866,-0.04153883829712868
1766054136925035800,0.648035888671875,0.1014036312699318,-0.0708603709936142,-0.05497787147760391
1766054136945024800,0.668024658203125,0.21013765037059784,-0.1563815027475357,-0.24434609711170197
1766054136965013800,0.688013671875,0.43737950921058655,-0.32131510972976685,-0.7110471725463867
1766054136975054000,0.69805419921875,0.5803219676017761,-0.40194934606552124,-1.0018190145492554
1766054136985063700,0.708063720703125,0.7037167549133301,-0.4764748811721802,-1.3072515726089478
1766054136995043000,0.71804296875,0.8222246170043945,-0.5571091175079346,-1.540602207183838
1766054137005022200,0.728022216796875,0.9126327037811279,-0.6352998614311218,-1.6688838005065918
1766054137015032000,0.738031982421875,1.0054842233657837,-0.7244861721992493,-1.7812830209732056
1766054137025041700,0.748041748046875,1.1178834438323975,-0.836885392665863,-1.93766450881958
1766054137035021000,0.75802099609375,1.2302825450897217,-0.9651671051979065,-2.13314151763916
1766054137065020000,0.78802001953125,1.5173892974853516,-1.4159855842590332,-3.039665460586548
1766054137074999000,0.7979990234375,1.5821410417556763,-1.577254056930542,-3.36708927154541
1766054137084978200,0.807978271484375,1.6310101747512817,-1.7348573207855225,-3.712838888168335
1766054137094988000,0.817988037109375,1.6578882932662964,-1.871691107749939,-4.021936893463135
1766054137104967400,0.827967529296875,1.6615535020828247,-1.987755537033081,-4.2479567527771
1766054137114946600,0.837946533203125,1.6383405923843384,-2.105041742324829,-4.373795032501221
1766054137124956400,0.847956298828125,1.5943583250045776,-2.207667112350464,-4.373795032501221
1766054137134935600,0.857935546875,1.5149458646774292,-2.27852725982666,-4.219857215881348
1766054137154955000,0.877955078125,1.2522737979888916,-2.361604928970337,-3.871663808822632
1766054137164934400,0.887934326171875,1.1178834438323975,-2.400700330734253,-3.7568211555480957
1766054137174974700,0.897974609375,0.9651671051979065,-2.415361166000366,-3.7568211555480957
1766054137184953900,0.907953857421875,0.807563841342926,-2.3823745250701904,-3.8044686317443848
1766054137194933200,0.917933349609375,0.6670648455619812,-2.313957452774048,-3.899763822555542
1766054137204912400,0.927912353515625,0.5143485069274902,-2.246762275695801,-4.018271446228027
1766054137214922200,0.937922119140625,0.3579670190811157,-2.168571710586548,-4.136779308319092
1766054137224931800,0.947931884765625,0.20891591906547546,-2.085494041442871,-4.267504692077637
1766054137234911200,0.9579111328125,0.08674286305904388,-1.9938641786575317,-4.351803779602051
1766054137244920800,0.9679208984375,-0.02687807008624077,-1.8668042421340942,-4.3395867347717285
1766054137254869800,0.977869873046875,-0.12461651116609573,-1.7495180368423462,-4.328591346740723
1766054137284899000,1.007899169921875,-0.294437050819397,-1.4428637027740479,-4.140444755554199
1766054137294908700,1.01790869140625,-0.31154128909111023,-1.3182471990585327,-3.9877283573150635
1766054137304918500,1.02791845703125,-0.34208452701568604,-1.1826350688934326,-3.7397170066833496
1766054137314897700,1.037897705078125,-0.36651915311813354,-1.0348057746887207,-3.4293975830078125
1766054137324877000,1.047876953125,-0.3933972120285034,-0.9077457785606384,-3.1202995777130127
1766054137334917400,1.05791748046875,-0.4080579876899719,-0.7770205736160278,-2.783102035522461
1766054137344896500,1.067896484375,-0.4202753007411957,-0.6536257863044739,-2.431243658065796
1766054137354906400,1.07790625,-0.4178318381309509,-0.5290092825889587,-2.12703275680542
1766054137374925800,1.09792578125,-0.4043927788734436,-0.34086281061172485,-1.6297885179519653
1766054137384905000,1.107905029296875,-0.39217549562454224,-0.2480112910270691,-1.4501941204071045
1766054137394884400,1.11788427734375,-0.3591887652873993,-0.16249015927314758,-1.263269305229187
1766054137404863500,1.127863525390625,-0.31031954288482666,-0.08674286305904388,-1.0995573997497559
1766054137414903800,1.13790380859375,-0.24923302233219147,-0.021991148591041565,-0.9651671051979065
1766054137424913700,1.14791357421875,-0.18448130786418915,0.01710422709584236,-0.797789990901947
1766054137434862300,1.1578623046875,-0.14049901068210602,0.05497787147760391,-0.5717698931694031
1766054137444902700,1.167902587890625,-0.10384709388017654,0.10873401165008545,-0.3982841372489929
1766054137464922000,1.187922119140625,0.03176499158143997,0.19914206862449646,-0.17348572611808777
1766054137474870800,1.197870849609375,0.11362093687057495,0.2321287989616394,-0.10506882518529892
1766054137484880600,1.207880615234375,0.11362093687057495,0.2321287989616394,-0.10506882518529892
1766054137494921000,1.2179208984375,0.17592918872833252,0.25045475363731384,-0.051312681287527084
1766054137504900000,1.227900146484375,0.22357667982578278,0.2541199326515198,-0.019547687843441963
1766054137514910000,1.237909912109375,0.2541199326515198,0.2541199326515198,0.024434609338641167
1766054137524889000,1.24788916015625,0.2687807083129883,0.24190263450145721,0.05375614017248154
1766054137534868500,1.257868408203125,0.31154128909111023,0.22602014243602753,0.009773843921720982
1766054137544878000,1.267878173828125,0.3543018400669098,0.21013765037059784,-0.10873401165008545
1766054137554888000,1.277887939453125,0.3591887652873993,0.1661553531885147,-0.14294247329235077
1766054137594896400,1.317896484375,0.2687807083129883,0.05253441259264946,0.33108896017074585
1766054137614855000,1.33785498046875,0.1918116807937622,0.0024434609804302454,0.4092797040939331
1766054137624864800,1.34786474609375,0.1417207419872284,-0.025656340643763542,0.43127086758613586
1766054137634844000,1.357843994140625,0.10751228034496307,-0.04642575979232788,0.375071257352829
1766054137644853800,1.367853759765625,0.09040805697441101,-0.05497787147760391,0.33108896017074585
1766054137654863600,1.377863525390625,0.07941248267889023,-0.05253441259264946,0.3286454975605011
1766054137664842800,1.3878427734375,0.05864306539297104,-0.0403171069920063,0.46303585171699524
1766054137694811100,1.41781103515625,-0.09040805697441101,-0.013439035043120384,1.7104226350784302
1766054137704851500,1.4278515625,-0.15393804013729095,-0.019547687843441963,1.9523253440856934
1766054137714861000,1.437861083984375,-0.1771509200334549,0.00733038317412138,1.8643606901168823
1766054137724840400,1.44784033203125,-0.16982053220272064,0.042760565876960754,1.6603317260742188
1766054137734880800,1.457880859375,-0.13805554807186127,0.0757472887635231,1.4110987186431885
1766054137744890400,1.467890380859375,-0.11972958594560623,0.10018189996480942,1.2498302459716797
1766054137754869800,1.477869873046875,-0.1160643994808197,0.1111774742603302,1.3292428255081177
1766054137764879400,1.48787939453125,-0.1160643994808197,0.11362093687057495,1.500285029411316
1766054137774858800,1.497858642578125,-0.12461651116609573,0.12950342893600464,1.7092009782791138
1766054137794847700,1.51784765625,-0.14416420459747314,0.1869247704744339,1.4917329549789429
1766054137804796400,1.52779638671875,-0.1417207419872284,0.20036379992961884,1.1508700847625732
1766054137814806300,1.53780615234375,-0.1270599663257599,0.2125810980796814,0.8576548099517822
1766054137824785400,1.547785400390625,-0.12095131725072861,0.21991148591041565,0.685390830039978
1766054137834795300,1.557795166015625,-0.11239920556545258,0.19547687470912933,0.6377432942390442
1766054137844804900,1.567804931640625,-0.1160643994808197,0.18448130786418915,0.6792821288108826
1766054137854814700,1.577814697265625,-0.10506882518529892,0.17837265133857727,0.7281513810157776
1766054137864793900,1.5877939453125,-0.09285151958465576,0.18570303916931152,0.6401867866516113
1766054137874803700,1.5978037109375,-0.0659734457731247,0.18814650177955627,0.504574716091156
1766054137894823200,1.6178232421875,0.012217304669320583,0.15882496535778046,0.2822197377681732
1766054137904833000,1.6278330078125,0.03298672288656235,0.1368338167667389,0.294437050819397
1766054137914812200,1.637812255859375,0.0354301854968071,0.11728613078594208,0.35185837745666504
1766054137924822000,1.647822021484375,0.021991148591041565,0.10873401165008545,0.3237585723400116
1766054137934831900,1.657831787109375,0.00855211354792118,0.09285151958465576,0.19547687470912933
1766054137944811000,1.66781103515625,0.015882495790719986,0.06719517707824707,0.00855211354792118
1766054137954820900,1.67782080078125,0.030543262138962746,0.03420845419168472,-0.13805554807186127
1766054137964830700,1.687830810546875,0.045204028487205505,-0.004886921960860491,-0.2223549485206604
1766054137974840300,1.69784033203125,0.04764748737215996,-0.030543262138962746,-0.2883284091949463
1766054138004778000,1.727778076171875,0.006108652334660292,-0.04764748737215996,-0.3274237811565399
1766054138014818300,1.737818359375,-0.025656340643763542,-0.03298672288656235,-0.3628539443016052
1766054138024797700,1.747797607421875,-0.06352998316287994,-0.0024434609804302454,-0.40683624148368835
1766054138034776800,1.75777685546875,-0.09285151958465576,0.02321287989616394,-0.4593706727027893
1766054138044786700,1.76778662109375,-0.1160643994808197,0.03298672288656235,-0.3591887652873993
1766054138054827000,1.777826904296875,-0.13316862285137177,0.03298672288656235,-0.1514945775270462
1766054138064836600,1.787836669921875,-0.16249015927314758,0.02687807008624077,-0.03298672288656235
1766054138074846500,1.797846435546875,-0.18570303916931152,0.01466076634824276,0.05253441259264946
1766054138084825600,1.80782568359375,-0.17959438264369965,0.0024434609804302454,0.08185594528913498
1766054138094866000,1.817865966796875,-0.16982053220272064,-0.006108652334660292,0.0806342139840126
1766054138104875800,1.827875732421875,-0.15760323405265808,-0.0012217304902151227,0.04398229718208313
1766054138114824400,1.837824462890625,-0.1368338167667389,0.012217304669320583,-0.01466076634824276
1766054138124803800,1.847803955078125,-0.1368338167667389,0.012217304669320583,-0.01466076634824276
1766054138134813400,1.8578134765625,-0.11850785464048386,0.02321287989616394,-0.04886921867728233
1766054138144823300,1.8678232421875,-0.10262536257505417,0.036651913076639175,-0.051312681287527084
1766054138154772000,1.87777197265625,-0.08796459436416626,0.04153883829712868,-0.025656340643763542
1766054138164781800,1.88778173828125,-0.0757472887635231,0.042760565876960754,0.02932153269648552
1766054138174791400,1.89779150390625,-0.06108652427792549,0.04886921867728233,0.05619960278272629
1766054138184801300,1.90780126953125,-0.0403171069920063,0.05375614017248154,0.04886921867728233
1766054138194750000,1.91775,-0.02076941914856434,0.05497787147760391,0.03176499158143997
1766054138224779300,1.947779296875,-0.00366519158706069,0.0757472887635231,0.16004669666290283
1766054138234758700,1.957758544921875,0.0024434609804302454,0.08674286305904388,0.16859880089759827
1766054138244799000,1.967799072265625,0.009773843921720982,0.08674286305904388,0.10384709388017654
1766054138254778000,1.977778076171875,0.021991148591041565,0.08429940044879913,0.03176499158143997
1766054138264818400,1.987818359375,0.03176499158143997,0.08185594528913498,0.00733038317412138
1766054138274828000,1.997828125,0.03298672288656235,0.07941248267889023,0.025656340643763542
1766054138284807400,2.007807373046875,0.02932153269648552,0.07330382615327835,0.05009094998240471
1766054138294847700,2.01784765625,0.024434609338641167,0.06963863968849182,0.05864306539297104
1766054138314836700,2.037836669921875,0.02321287989616394,0.05375614017248154,0.0012217304902151227
1766054138324846300,2.047846435546875,0.021991148591041565,0.03787364438176155,-0.04642575979232788
1766054138334856200,2.057856201171875,0.02076941914856434,0.02321287989616394,-0.0659734457731247
1766054138344835600,2.067835693359375,0.019547687843441963,0.0012217304902151227,-0.05497787147760391
1766054138354845200,2.07784521484375,0.018325956538319588,-0.021991148591041565,-0.04642575979232788
1766054138364824600,2.087824462890625,0.012217304669320583,-0.03787364438176155,-0.06352998316287994
1766054138374865000,2.097864990234375,0.0012217304902151227,-0.039095375686883926,-0.08918632566928864
1766054138384844000,2.107843994140625,0.0012217304902151227,-0.042760565876960754,-0.1014036312699318
1766054138394854000,2.11785400390625,0.0024434609804302454,-0.051312681287527084,-0.12217304855585098
1766054138424852500,2.1478525390625,0.00855211354792118,-0.0757472887635231,-0.17470745742321014
1766054138434832000,2.157831787109375,0.00855211354792118,-0.08185594528913498,-0.1722639948129654
1766054138444811000,2.16781103515625,0.004886921960860491,-0.07941248267889023,-0.16249015927314758
1766054138454851300,2.177851318359375,0.0024434609804302454,-0.06963863968849182,-0.13561208546161652
1766054138464830700,2.187830810546875,0,-0.04642575979232788,-0.07941248267889023
1766054138484789000,2.2077890625,-0.00366519158706069,0.00855211354792118,-0.013439035043120384
1766054138494798800,2.217798828125,0,0.02932153269648552,-0.04764748737215996
1766054138504778000,2.227778076171875,0.00366519158706069,0.04153883829712868,-0.06841690838336945
1766054138554796300,2.27779638671875,-0.039095375686883926,0.012217304669320583,-0.05375614017248154
1766054138564775700,2.287775634765625,-0.03420845419168472,0.010995574295520782,-0.07330382615327835
1766054138574816000,2.29781591796875,-0.030543262138962746,0.00855211354792118,-0.08185594528913498
1766054138584825600,2.30782568359375,-0.02687807008624077,0.015882495790719986,-0.09529497474431992
1766054138594835500,2.31783544921875,-0.025656340643763542,0.03298672288656235,-0.05742133408784866
1766054138604814800,2.32781494140625,-0.02321287989616394,0.04886921867728233,-0.010995574295520782
1766054138634844000,2.357843994140625,-0.021991148591041565,0.05497787147760391,0.059864792972803116
1766054138644792800,2.367792724609375,-0.02321287989616394,0.05253441259264946,0.06108652427792549
1766054138654833200,2.377833251953125,-0.01710422709584236,0.059864792972803116,0.0659734457731247
1766054138664842800,2.3878427734375,-0.00733038317412138,0.06230825558304787,0.07330382615327835
1766054138674822100,2.397822265625,0.006108652334660292,0.059864792972803116,0.04764748737215996
1766054138684801300,2.40780126953125,0.018325956538319588,0.05742133408784866,0.0354301854968071
1766054138694811100,2.41781103515625,0.024434609338641167,0.05864306539297104,0.04764748737215996
1766054138704790300,2.427790283203125,0.0354301854968071,0.05253441259264946,0.04642575979232788
1766054138714769700,2.437769775390625,0.04398229718208313,0.04153883829712868,0.04153883829712868
1766054138734758700,2.457758544921875,0.03176499158143997,0.042760565876960754,0.059864792972803116
1766054138744768300,2.467768310546875,0.0354301854968071,0.036651913076639175,0.06475171446800232
1766054138754717200,2.47771728515625,0.0403171069920063,0.030543262138962746,0.05497787147760391
1766054138764696300,2.4876962890625,0.042760565876960754,0.03298672288656235,0.05742133408784866
1766054138774706200,2.4977060546875,0.042760565876960754,0.03298672288656235,0.05742133408784866
1766054138784685300,2.507685302734375,0.04886921867728233,0.02687807008624077,0.06352998316287994
1766054138794695200,2.517695068359375,0.05864306539297104,0.024434609338641167,0.06963863968849182
1766054138804704800,2.527704833984375,0.06475171446800232,0.02687807008624077,0.1014036312699318
1766054138814714600,2.537714599609375,0.05864306539297104,0.042760565876960754,0.1722639948129654
1766054138824724500,2.547724365234375,0.04886921867728233,0.06352998316287994,0.2382374405860901
1766054138844683000,2.56768310546875,0.030543262138962746,0.07330382615327835,0.19058994948863983
1766054138864702500,2.587702392578125,0.02687807008624077,0.06108652427792549,0.13072516024112701
1766054138874712000,2.597712158203125,0.028099801391363144,0.05253441259264946,0.13316862285137177
1766054138884691500,2.60769140625,0.03176499158143997,0.036651913076639175,0.1514945775270462
1766054138894731800,2.617731689453125,0.039095375686883926,0.02932153269648552,0.18448130786418915
1766054138904711000,2.6277109375,0.045204028487205505,0.04153883829712868,0.24556782841682434
1766054138914720800,2.637720703125,0.03420845419168472,0.059864792972803116,0.32986724376678467
1766054138924730400,2.64773046875,0.015882495790719986,0.06841690838336945,0.35674530267715454
1766054138944719600,2.6677197265625,0.019547687843441963,0.06841690838336945,0.22846360504627228
1766054138964708600,2.68770849609375,0.03420845419168472,0.06352998316287994,0.1514945775270462
1766054138984697600,2.707697509765625,0.04886921867728233,0.03298672288656235,0.11972958594560623
1766054138994707200,2.717707275390625,0.06475171446800232,-0.00733038317412138,0.15027284622192383
1766054139004717000,2.727717041015625,0.06963863968849182,-0.042760565876960754,0.17837265133857727
1766054139014727000,2.737726806640625,0.05742133408784866,-0.05497787147760391,0.21624629199504852
1766054139024706000,2.7477060546875,0.05009094998240471,-0.06230825558304787,0.2883284091949463
1766054139034716000,2.7577158203125,0.051312681287527084,-0.0659734457731247,0.3384193480014801
1766054139064714800,2.78771484375,0.019547687843441963,-0.013439035043120384,0.46303585171699524
1766054139074694000,2.79769384765625,0.013439035043120384,0.009773843921720982,0.5094616413116455
1766054139084703700,2.807703857421875,0.009773843921720982,0.03787364438176155,0.5387831330299377
1766054139094683000,2.817682861328125,0,0.0659734457731247,0.5326744914054871
1766054139104662000,2.827662109375,-0.004886921960860491,0.09162978827953339,0.4996877610683441
1766054139114671900,2.837671875,-0.00733038317412138,0.10995574295520782,0.4703662395477295
1766054139124651300,2.8476513671875,-0.0024434609804302454,0.1258382350206375,0.4288274049758911
1766054139134691300,2.85769140625,0,0.14294247329235077,0.42271876335144043
1766054139174669600,2.897669677734375,0.025656340643763542,0.17837265133857727,0.6328563690185547
1766054139184679200,2.90767919921875,0.024434609338641167,0.16249015927314758,0.6243042945861816
1766054139194719500,2.917719482421875,0.018325956538319588,0.15760323405265808,0.5021312236785889
1766054139204699000,2.927698974609375,0.01466076634824276,0.14416420459747314,0.33719760179519653
1766054139214739000,2.937739013671875,0.02687807008624077,0.13561208546161652,0.1966986060142517
1766054139224748800,2.947748779296875,0.025656340643763542,0.11484266817569733,0.08918632566928864
1766054139234728000,2.95772802734375,0.02076941914856434,0.09773843735456467,0.036651913076639175
1766054139274706200,2.9977060546875,0.004886921960860491,0.00733038317412138,0.05742133408784866
1766054139284715800,3.0077158203125,-0.0012217304902151227,-0.009773843921720982,0.0708603709936142
1766054139294695200,3.017695068359375,-0.01710422709584236,-0.009773843921720982,0.028099801391363144
1766054139304674300,3.02767431640625,-0.024434609338641167,-0.010995574295520782,0
1766054139314684200,3.03768408203125,-0.02687807008624077,-0.00733038317412138,0.009773843921720982
1766054139324663300,3.047663330078125,-0.03176499158143997,-0.010995574295520782,0.004886921960860491
1766054139334673200,3.057673095703125,-0.03176499158143997,-0.015882495790719986,0
1766054139344652300,3.06765234375,-0.03420845419168472,-0.010995574295520782,-0.012217304669320583
1766054139384661000,3.107660888671875,0.00366519158706069,0.006108652334660292,0
1766054139394609700,3.117609619140625,0.00855211354792118,0.010995574295520782,0.0012217304902151227
1766054139404619500,3.12761962890625,0.01466076634824276,0.013439035043120384,0.013439035043120384
1766054139414568200,3.137568115234375,0.01466076634824276,0.013439035043120384,0.013439035043120384
1766054139424577800,3.147577880859375,0.018325956538319588,0.02687807008624077,0.05009094998240471
1766054139434587600,3.157587646484375,0.021991148591041565,0.03420845419168472,0.0806342139840126
1766054139444628000,3.1676279296875,0.04398229718208313,0.030543262138962746,0.12339477986097336
1766054139454576600,3.17757666015625,0.051312681287527084,0.019547687843441963,0.12461651116609573
1766054139484606000,3.20760595703125,0.07941248267889023,0.012217304669320583,0.22479841113090515
1766054139494554600,3.2175546875,0.03176499158143997,0.02076941914856434,0.04764748737215996
1766054139504534000,3.227533935546875,0.05497787147760391,0.0024434609804302454,0.0354301854968071
1766054139514543600,3.237543701171875,0.04764748737215996,0.021991148591041565,0.0806342139840126
1766054139524523000,3.24752294921875,0.004886921960860491,0.03298672288656235,0.06719517707824707
1766054139534532900,3.257532958984375,-0.019547687843441963,0.024434609338641167,0.07941248267889023
1766054139544512000,3.267511962890625,-0.0354301854968071,0.025656340643763542,0.06108652427792549
1766054139554521900,3.27752197265625,-0.04153883829712868,0.059864792972803116,-0.01466076634824276
1766054139584551200,3.30755126953125,-0.030543262138962746,0.045204028487205505,-0.17959438264369965
1766054139594499800,3.317499755859375,-0.05619960278272629,0.04153883829712868,-0.2565633952617645
1766054139614488800,3.33748876953125,-0.08429940044879913,0.02687807008624077,-0.3897320330142975
1766054139624498700,3.347498779296875,-0.08674286305904388,0.021991148591041565,-0.3604104816913605
1766054139634477800,3.357477783203125,-0.08552113175392151,0.01710422709584236,-0.27977627515792847
1766054139644487700,3.36748779296875,-0.08674286305904388,0.02076941914856434,-0.15760323405265808
1766054139654497300,3.377497314453125,-0.08674286305904388,0.019547687843441963,-0.02076941914856434
1766054139664476700,3.3874765625,-0.07696902006864548,0.015882495790719986,0.06352998316287994
1766054139674455800,3.397455810546875,-0.04886921867728233,0.00733038317412138,0.08307767659425735
1766054139684496100,3.40749609375,-0.021991148591041565,-0.0024434609804302454,0.06963863968849182
1766054139714525400,3.437525390625,0.012217304669320583,-0.01710422709584236,0.10384709388017654
1766054139724596200,3.44759619140625,0.012217304669320583,-0.01710422709584236,0.10995574295520782
1766054139734545000,3.457544921875,0.01710422709584236,-0.019547687843441963,0.09896016865968704
1766054139744524300,3.467524169921875,0.01710422709584236,-0.024434609338641167,0.0659734457731247
1766054139754534000,3.477533935546875,0.01710422709584236,-0.024434609338641167,0.042760565876960754
1766054139764574200,3.48757421875,0.01710422709584236,-0.01466076634824276,0.039095375686883926
1766054139774553600,3.4975537109375,0.013439035043120384,-0.0024434609804302454,0.0659734457731247
1766054139784532700,3.50753271484375,0.004886921960860491,0.019547687843441963,0.09285151958465576
1766054139804583000,3.5275830078125,-0.0012217304902151227,0.01466076634824276,0.13072516024112701
1766054139834520600,3.5575205078125,-0.012217304669320583,-0.036651913076639175,-0.015882495790719986
1766054139844561000,3.567560791015625,-0.004886921960860491,-0.05253441259264946,-0.09896016865968704
1766054139854509600,3.577509521484375,-0.013439035043120384,-0.0708603709936142,-0.1771509200334549
1766054139864488700,3.58748876953125,-0.02076941914856434,-0.09651670604944229,-0.2076941877603531
1766054139874468000,3.597468017578125,-0.028099801391363144,-0.11972958594560623,-0.17959438264369965
1766054139884477700,3.607477783203125,-0.030543262138962746,-0.14416420459747314,-0.16493362188339233
1766054139924425200,3.64742529296875,-0.010995574295520782,-0.16249015927314758,-0.28955012559890747
1766054139934435000,3.65743505859375,-0.009773843921720982,-0.14782938361167908,-0.2528982162475586
1766054139944445000,3.66744482421875,-0.010995574295520782,-0.13805554807186127,-0.18448130786418915
1766054139954393600,3.6773935546875,-0.013439035043120384,-0.13439035415649414,-0.1319468915462494
1766054139964372700,3.687372802734375,-0.019547687843441963,-0.13072516024112701,-0.11239920556545258
1766054139974382600,3.697382568359375,-0.02076941914856434,-0.13439035415649414,-0.12217304855585098
1766054139984361700,3.70736181640625,-0.021991148591041565,-0.12339477986097336,-0.16982053220272064
1766054139994402000,3.717402099609375,-0.021991148591041565,-0.11362093687057495,-0.2431243658065796
1766054140014421800,3.737421875,-0.02076941914856434,-0.07696902006864548,-0.2321287989616394
1766054140034410800,3.75741064453125,-0.02076941914856434,-0.05009094998240471,-0.06108652427792549
1766054140044420400,3.76742041015625,-0.015882495790719986,-0.0403171069920063,-0.00366519158706069
1766054140054430200,3.77743017578125,-0.010995574295520782,-0.03176499158143997,0.004886921960860491
1766054140064409300,3.787409423828125,-0.010995574295520782,-0.03176499158143997,0.004886921960860491
1766054140074388700,3.797388671875,0,-0.018325956538319588,-0.01710422709584236
1766054140084398600,3.807398681640625,0.009773843921720982,-0.010995574295520782,-0.03420845419168472
1766054140094408200,3.817408203125,0.021991148591041565,-0.00855211354792118,-0.042760565876960754
1766054140114366700,3.83736669921875,0.036651913076639175,-0.009773843921720982,-0.05497787147760391
1766054140154344700,3.8773447265625,0.036651913076639175,-0.015882495790719986,-0.04886921867728233
1766054140164324000,3.887323974609375,0.03787364438176155,-0.01466076634824276,-0.07819075137376785
1766054140174333700,3.897333740234375,0.03298672288656235,-0.015882495790719986,-0.08429940044879913
1766054140184313000,3.90731298828125,0.02687807008624077,-0.021991148591041565,-0.08796459436416626
1766054140194322700,3.91732275390625,0.021991148591041565,-0.030543262138962746,-0.09651670604944229
1766054140204332500,3.92733251953125,0.01710422709584236,-0.03420845419168472,-0.10384709388017654
1766054140234270200,3.957270263671875,0.0024434609804302454,-0.030543262138962746,-0.04642575979232788
1766054140244249600,3.96724951171875,0,-0.03298672288656235,-0.00733038317412138
1766054140254228700,3.977228759765625,-0.0024434609804302454,-0.039095375686883926,-0.0012217304902151227
1766054140264238600,3.987238525390625,-0.009773843921720982,-0.028099801391363144,-0.0354301854968071
1766054140274217700,3.9972177734375,-0.006108652334660292,-0.02076941914856434,-0.06719517707824707
1766054140284197000,4.007197021484375,-0.0012217304902151227,-0.02932153269648552,-0.10384709388017654
1766054140294237400,4.017237548828125,0.006108652334660292,-0.04153883829712868,-0.1270599663257599
1766054140304216600,4.027216552734375,0.012217304669320583,-0.05253441259264946,-0.12828169763088226
1766054140334215400,4.05721533203125,0.00855211354792118,-0.05497787147760391,-0.15027284622192383
1766054140344194600,4.067194580078125,0.00855211354792118,-0.04153883829712868,-0.15271630883216858
1766054140354143200,4.077143310546875,0.00855211354792118,-0.03176499158143997,-0.15882496535778046
1766054140364122600,4.08712255859375,0.012217304669320583,-0.02321287989616394,-0.17348572611808777
1766054140374132200,4.09713232421875,0.021991148591041565,-0.010995574295520782,-0.19792033731937408
1766054140384111600,4.107111572265625,0.02932153269648552,-0.010995574295520782,-0.23945917189121246
1766054140394060300,4.117060302734375,0.0354301854968071,-0.01710422709584236,-0.2822197377681732
1766054140404070100,4.127070068359375,0.03787364438176155,-0.024434609338641167,-0.294437050819397
1766054140414079700,4.137079833984375,0.03787364438176155,-0.028099801391363144,-0.2675589919090271
1766054140434038300,4.157038330078125,0.024434609338641167,-0.02076941914856434,-0.15882496535778046
1766054140444017700,4.167017578125,0.015882495790719986,-0.01710422709584236,-0.10995574295520782
1766054140453996800,4.176996826171875,0.00733038317412138,-0.009773843921720982,-0.08674286305904388
1766054140464037000,4.187037109375,0.00733038317412138,-0.009773843921720982,-0.09040805697441101
1766054140473985800,4.19698583984375,0.012217304669320583,-0.01466076634824276,-0.13072516024112701
1766054140483995600,4.20699560546875,0.013439035043120384,-0.013439035043120384,-0.18570303916931152
1766054140493974800,4.216974853515625,0.013439035043120384,-0.013439035043120384,-0.23090706765651703
1766054140503984600,4.226984619140625,0.012217304669320583,-0.01710422709584236,-0.24556782841682434
1766054140553972500,4.276972412109375,-0.00366519158706069,-0.00733038317412138,-0.06475171446800232
1766054140563951600,4.28695166015625,0.0012217304902151227,-0.004886921960860491,-0.1014036312699318
1766054140573931000,4.296930908203125,0.0024434609804302454,0,-0.1466076523065567
1766054140583940600,4.306940673828125,0.006108652334660292,-0.0012217304902151227,-0.16004669666290283
1766054140593889500,4.3168896484375,0.009773843921720982,-0.00366519158706069,-0.15760323405265808
1766054140603868700,4.32686865234375,0.012217304669320583,-0.00733038317412138,-0.1563815027475357
1766054140613847800,4.336847900390625,0.013439035043120384,-0.013439035043120384,-0.16737708449363708
1766054140673753900,4.39675390625,0.0012217304902151227,-0.00366519158706069,-0.051312681287527084
1766054140683763700,4.406763671875,0.00366519158706069,-0.0012217304902151227,-0.05742133408784866
1766054140693742800,4.416742919921875,0.00733038317412138,-0.0024434609804302454,-0.10506882518529892
1766054140703752700,4.426752685546875,0.010995574295520782,-0.004886921960860491,-0.1563815027475357
1766054140713731800,4.43673193359375,0.015882495790719986,-0.00733038317412138,-0.1820378452539444
1766054140743669800,4.466669677734375,0.018325956538319588,-0.006108652334660292,-0.09896016865968704
1766054140753618400,4.476618408203125,0.015882495790719986,-0.00733038317412138,-0.04642575979232788
1766054140773638000,4.496637939453125,0.018325956538319588,-0.004886921960860491,0.06230825558304787
1766054140783647700,4.506647705078125,0.02076941914856434,-0.00733038317412138,0.04764748737215996
1766054140793657600,4.51665771484375,0.02932153269648552,-0.01710422709584236,0.03420845419168472
1766054140803636700,4.52663671875,0.04398229718208313,-0.02687807008624077,0.01466076634824276
1766054140813646600,4.536646484375,0.06108652427792549,-0.03420845419168472,-0.013439035043120384
1766054140823625700,4.546625732421875,0.07941248267889023,-0.042760565876960754,-0.04642575979232788
1766054140873613600,4.596613525390625,0.11484266817569733,-0.059864792972803116,-0.015882495790719986
1766054140883592700,4.6065927734375,0.12217304855585098,-0.05864306539297104,0.0403171069920063
1766054140893602600,4.6166025390625,0.13316862285137177,-0.05742133408784866,0.06719517707824707
1766054140903581700,4.626581787109375,0.14294247329235077,-0.06108652427792549,0.07696902006864548
1766054140913591600,4.636591552734375,0.15271630883216858,-0.045204028487205505,0.0806342139840126
1766054140923631900,4.6466318359375,0.15271630883216858,-0.030543262138962746,0.06352998316287994
1766054140933611000,4.656611083984375,0.14538592100143433,-0.025656340643763542,0.00366519158706069
1766054140943620900,4.666620849609375,0.1417207419872284,-0.02076941914856434,-0.036651913076639175
1766054140983598800,4.706598876953125,0.11850785464048386,-0.045204028487205505,0.09529497474431992
1766054140993578200,4.716578125,0.11850785464048386,-0.05253441259264946,0.06963863968849182
1766054141003587800,4.726587890625,0.08552113175392151,-0.039095375686883926,0.036651913076639175
1766054141013567200,4.736567138671875,0.07208210229873657,-0.01710422709584236,-0.009773843921720982
1766054141023546400,4.74654638671875,0.051312681287527084,0.02321287989616394,0.021991148591041565
1766054141033495000,4.7564951171875,0.024434609338641167,0.05009094998240471,0.05009094998240471
1766054141053484000,4.776484130859375,-0.012217304669320583,0.04642575979232788,0.09285151958465576
1766054141083483000,4.80648291015625,-0.042760565876960754,0.04764748737215996,-0.021991148591041565
1766054141093492700,4.81649267578125,-0.06719517707824707,0.0403171069920063,-0.10506882518529892
1766054141103502600,4.826502685546875,-0.09285151958465576,0.04153883829712868,-0.1368338167667389
1766054141113481700,4.836481689453125,-0.09896016865968704,0.04398229718208313,-0.09285151958465576
1766054141123491600,4.84649169921875,-0.09529497474431992,0.05253441259264946,-0.025656340643763542
1766054141133501200,4.856501220703125,-0.09162978827953339,0.059864792972803116,-0.0012217304902151227
1766054141143511000,4.866510986328125,-0.08429940044879913,0.06352998316287994,0.02076941914856434
1766054141173510000,4.896510009765625,-0.03298672288656235,0.05497787147760391,0.10995574295520782
1766054141193499000,4.916498779296875,-0.0024434609804302454,0.03176499158143997,0.08796459436416626
1766054141203508500,4.926508544921875,0.0024434609804302454,0.025656340643763542,0.05864306539297104
1766054141213518300,4.936518310546875,0.00733038317412138,0.02321287989616394,0.0403171069920063
1766054141223528200,4.946528076171875,0.00855211354792118,0.021991148591041565,0.02932153269648552
1766054141233507300,4.95650732421875,0.00366519158706069,0.015882495790719986,0.02687807008624077
1766054141243517200,4.96651708984375,-0.00366519158706069,0.01466076634824276,0.013439035043120384
1766054141253496300,4.976496337890625,-0.009773843921720982,0.01710422709584236,0.0012217304902151227
1766054141273485300,4.9964853515625,-0.00366519158706069,0.010995574295520782,-0.05619960278272629
1766054141283495200,5.0064951171875,-0.00366519158706069,0.012217304669320583,-0.07330382615327835
1766054141293474300,5.016474365234375,-0.00366519158706069,0.012217304669320583,-0.07330382615327835
1766054141303514600,5.0265146484375,-0.004886921960860491,0.01466076634824276,-0.05375614017248154
1766054141313494000,5.036493896484375,-0.004886921960860491,0.01710422709584236,-0.010995574295520782
1766054141323473200,5.04647314453125,-0.00733038317412138,0.015882495790719986,0.030543262138962746
1766054141333483000,5.05648291015625,-0.013439035043120384,0.010995574295520782,0.06719517707824707
1766054141343492600,5.06649267578125,-0.021991148591041565,0.0024434609804302454,0.09040805697441101
1766054141353441500,5.076441650390625,-0.030543262138962746,-0.004886921960860491,0.11239920556545258
1766054141363481600,5.086481689453125,-0.02932153269648552,-0.012217304669320583,0.1258382350206375
1766054141383501300,5.106501220703125,-0.02687807008624077,-0.00855211354792118,0.06719517707824707
1766054141393480400,5.11648046875,-0.025656340643763542,-0.0012217304902151227,0.0354301854968071
1766054141403490300,5.126490234375,-0.024434609338641167,0,0.02321287989616394
1766054141413469400,5.136469482421875,-0.025656340643763542,0.006108652334660292,0.039095375686883926
1766054141423448800,5.14644873046875,-0.02687807008624077,0.01466076634824276,0.0354301854968071
1766054141433428000,5.156427978515625,-0.02687807008624077,0.015882495790719986,0.0354301854968071
1766054141443437800,5.166437744140625,-0.02687807008624077,0.019547687843441963,0.0354301854968071
1766054141453417000,5.1764169921875,-0.02687807008624077,0.02076941914856434,0.03787364438176155
1766054141463426800,5.1864267578125,-0.025656340643763542,0.02076941914856434,0.051312681287527084
1766054141473406000,5.196406005859375,-0.024434609338641167,0.019547687843441963,0.059864792972803116
1766054141493395000,5.21639501953125,-0.01710422709584236,0.02932153269648552,0.07941248267889023
1766054141503404800,5.22640478515625,-0.018325956538319588,0.025656340643763542,0.1062905490398407
1766054141513384000,5.236384033203125,-0.02321287989616394,0.028099801391363144,0.13805554807186127
1766054141523363300,5.24636328125,-0.030543262138962746,0.03298672288656235,0.1771509200334549
1766054141533373200,5.256373291015625,-0.03298672288656235,0.03787364438176155,0.21013765037059784
1766054141543382800,5.2663828125,-0.03298672288656235,0.03787364438176155,0.2321287989616394
1766054141553362200,5.276362060546875,-0.036651913076639175,0.04153883829712868,0.23090706765651703
1766054141563402500,5.286402587890625,-0.039095375686883926,0.0403171069920063,0.1918116807937622
1766054141573381600,5.296381591796875,-0.03420845419168472,0.030543262138962746,0.14049901068210602
1766054141593340200,5.316340087890625,-0.025656340643763542,0.00855211354792118,0.06841690838336945
1766054141603380500,5.32638037109375,-0.02076941914856434,0.006108652334660292,0.05864306539297104
1766054141613390000,5.33639013671875,-0.01710422709584236,0.00733038317412138,0.0659734457731247
1766054141623400000,5.34639990234375,-0.01466076634824276,0.009773843921720982,0.06475171446800232
1766054141633409800,5.356409912109375,-0.00855211354792118,0.01466076634824276,0.06475171446800232
1766054141643419400,5.36641943359375,-0.00733038317412138,0.01710422709584236,0.0806342139840126
1766054141653429200,5.37642919921875,-0.013439035043120384,0.01710422709584236,0.09162978827953339
1766054141663439000,5.386439208984375,-0.019547687843441963,0.018325956538319588,0.12217304855585098
1766054141693437700,5.416437744140625,-0.02076941914856434,0.02932153269648552,0.1368338167667389
1766054141703417000,5.4264169921875,-0.01466076634824276,0.02932153269648552,0.11972958594560623
1766054141713396200,5.436396240234375,-0.00855211354792118,0.021991148591041565,0.10262536257505417
1766054141743395000,5.46639501953125,0.010995574295520782,-0.015882495790719986,0.03420845419168472
1766054141763323100,5.4863232421875,0.0012217304902151227,-0.018325956538319588,0.024434609338641167
1766054141773302300,5.49630224609375,-0.00366519158706069,-0.018325956538319588,-0.004886921960860491
1766054141783281400,5.506281494140625,-0.0024434609804302454,-0.019547687843441963,-0.019547687843441963
1766054141813249800,5.536249755859375,0.00855211354792118,-0.02932153269648552,-0.015882495790719986
1766054141823229000,5.54622900390625,0.00733038317412138,-0.028099801391363144,-0.012217304669320583
1766054141833208300,5.556208251953125,0.00366519158706069,-0.02932153269648552,-0.01466076634824276
1766054141843248600,5.56624853515625,0,-0.025656340643763542,-0.02076941914856434
1766054141853258200,5.57625830078125,-0.0024434609804302454,-0.021991148591041565,-0.02076941914856434
1766054141863268000,5.58626806640625,-0.00366519158706069,-0.02076941914856434,-0.01710422709584236
1766054141873247200,5.596247314453125,-0.00366519158706069,-0.00855211354792118,-0.004886921960860491
1766054141883257000,5.606257080078125,-0.006108652334660292,0,0.006108652334660292
1766054141903246000,5.62624609375,-0.0024434609804302454,0.006108652334660292,0.02076941914856434
1766054141913225500,5.6362255859375,-0.0012217304902151227,0.00733038317412138,0.02076941914856434
1766054141923265500,5.646265625,0.0012217304902151227,0.004886921960860491,0.013439035043120384
1766054141933275400,5.656275390625,0.0012217304902151227,0.004886921960860491,0.013439035043120384
1766054141943285200,5.66628515625,0.0012217304902151227,0.00366519158706069,0.0012217304902151227
1766054141953264400,5.676264404296875,0.0012217304902151227,-0.0012217304902151227,0.0012217304902151227
1766054141963274200,5.686274169921875,0.0012217304902151227,-0.004886921960860491,0
1766054141973253400,5.69625341796875,0.0012217304902151227,0,0.00733038317412138
1766054141983263200,5.70626318359375,-0.0024434609804302454,-0.0012217304902151227,0.00733038317412138
1766054142023241200,5.7462412109375,-0.004886921960860491,0.00733038317412138,0.0012217304902151227
1766054142033190000,5.75618994140625,-0.006108652334660292,0.010995574295520782,0.012217304669320583
1766054142043230200,5.766230224609375,-0.006108652334660292,0.012217304669320583,0.024434609338641167
1766054142053240000,5.776239990234375,-0.006108652334660292,0.01466076634824276,0.02076941914856434
1766054142063249700,5.786249755859375,-0.0024434609804302454,0.012217304669320583,0.012217304669320583
1766054142073198600,5.796198486328125,-0.00366519158706069,0.00855211354792118,0.015882495790719986
1766054142083239000,5.806239013671875,-0.004886921960860491,0.004886921960860491,0.006108652334660292
1766054142113237500,5.836237548828125,-0.006108652334660292,0.01466076634824276,0.021991148591041565
1766054142123217000,5.846216796875,0,0.018325956538319588,0.025656340643763542
1766054142133196000,5.856196044921875,0.0012217304902151227,0.018325956538319588,0.021991148591041565
1766054142143206000,5.866205810546875,0.0012217304902151227,0.012217304669320583,0.015882495790719986
1766054142153215500,5.876215576171875,0.004886921960860491,0.004886921960860491,0.006108652334660292
1766054142163195000,5.88619482421875,0.00855211354792118,0.0024434609804302454,0.006108652334660292
1766054142173235200,5.896235107421875,0.00855211354792118,-0.0024434609804302454,0.01466076634824276
1766054142183244800,5.906244873046875,0.0024434609804302454,-0.0012217304902151227,0.01710422709584236
1766054142193224200,5.91622412109375,-0.004886921960860491,0,0.010995574295520782
1766054142243150800,5.96615087890625,-0.013439035043120384,0.00733038317412138,0.012217304669320583
1766054142253099500,5.976099609375,-0.012217304669320583,0.0024434609804302454,0.010995574295520782
1766054142263079000,5.986078857421875,-0.00733038317412138,-0.0024434609804302454,0.01466076634824276
1766054142273027600,5.996027587890625,-0.00366519158706069,-0.006108652334660292,0.019547687843441963
1766054142283037400,6.006037353515625,-0.004886921960860491,-0.006108652334660292,0.013439035043120384
1766054142293047000,6.016047119140625,-0.004886921960860491,-0.00733038317412138,-0.0012217304902151227
1766054142303026400,6.0260263671875,-0.0012217304902151227,-0.009773843921720982,-0.004886921960860491
1766054142323015400,6.046015380859375,0.00366519158706069,-0.0012217304902151227,0.00733038317412138
1766054142332964000,6.055964111328125,-0.0024434609804302454,0.006108652334660292,-0.006108652334660292
1766054142342943500,6.065943603515625,-0.004886921960860491,0.012217304669320583,-0.0012217304902151227
1766054142352953000,6.075953125,-0.00366519158706069,0.01466076634824276,0.015882495790719986
1766054142362963000,6.085962890625,-0.0012217304902151227,0.010995574295520782,0.018325956538319588
1766054142382952000,6.105951904296875,0,0.0024434609804302454,0.012217304669320583
1766054142392961800,6.1159619140625,-0.0012217304902151227,-0.0012217304902151227,0.006108652334660292
1766054142402971400,6.125971435546875,0,-0.00366519158706069,0.004886921960860491
1766054142422899500,6.1458994140625,-0.00366519158706069,0.0012217304902151227,0.00733038317412138
1766054142432848100,6.15584814453125,-0.006108652334660292,0.0024434609804302454,0.0024434609804302454
1766054142442827500,6.16582763671875,-0.004886921960860491,0.00366519158706069,0.00366519158706069
1766054142452806700,6.175806640625,-0.009773843921720982,0.00366519158706069,0.00855211354792118
1766054142462785800,6.185785888671875,-0.01466076634824276,0.00733038317412138,0.01466076634824276
1766054142472765200,6.19576513671875,-0.015882495790719986,0.00733038317412138,0.013439035043120384
1766054142482775000,6.205775146484375,-0.012217304669320583,0.00855211354792118,0.019547687843441963
1766054142492723700,6.2157236328125,-0.01466076634824276,0.00855211354792118,0.024434609338641167
1766054142502764000,6.225763916015625,-0.018325956538319588,0.006108652334660292,0.009773843921720982
1766054142512743200,6.2357431640625,-0.018325956538319588,0.004886921960860491,-0.0024434609804302454
1766054142542772500,6.2657724609375,-0.01710422709584236,0.00855211354792118,0.010995574295520782
1766054142552721200,6.27572119140625,-0.00733038317412138,0.009773843921720982,0.015882495790719986
1766054142562731000,6.28573095703125,-0.00733038317412138,0.009773843921720982,0.015882495790719986
1766054142572679700,6.2956796875,-0.004886921960860491,0.013439035043120384,0.010995574295520782
1766054142582720000,6.305719970703125,-0.00366519158706069,0.015882495790719986,0.010995574295520782
1766054142592668700,6.315668701171875,-0.0024434609804302454,0.019547687843441963,0.01466076634824276
1766054142602678500,6.325678466796875,-0.00366519158706069,0.019547687843441963,0.00855211354792118
1766054142612688400,6.3356884765625,-0.0024434609804302454,0.01466076634824276,0.004886921960860491
1766054142622698000,6.345697998046875,-0.004886921960860491,0.01466076634824276,-0.0012217304902151227
1766054142642687000,6.36568701171875,-0.010995574295520782,0.00733038317412138,0.009773843921720982
1766054142652666400,6.375666259765625,-0.010995574295520782,0.004886921960860491,0.010995574295520782
1766054142662676000,6.385676025390625,-0.010995574295520782,0.004886921960860491,0.012217304669320583
1766054142672655400,6.3956552734375,-0.010995574295520782,0.0012217304902151227,0
1766054142682695700,6.40569580078125,-0.010995574295520782,-0.0024434609804302454,-0.00733038317412138
1766054142692644400,6.415644287109375,-0.010995574295520782,-0.0012217304902151227,-0.015882495790719986
1766054142702654000,6.425654052734375,-0.012217304669320583,-0.0012217304902151227,-0.01466076634824276
1766054142712633300,6.43563330078125,-0.00855211354792118,-0.0012217304902151227,-0.006108652334660292
1766054142722643200,6.445643310546875,-0.004886921960860491,-0.0012217304902151227,0.0024434609804302454
1766054142742632200,6.465632080078125,0,0.0024434609804302454,-0.00733038317412138
1766054142752611300,6.475611328125,-0.0012217304902151227,0.00366519158706069,-0.009773843921720982
1766054142762590700,6.4855908203125,-0.004886921960860491,0.00366519158706069,-0.006108652334660292
1766054142772600300,6.495600341796875,-0.00366519158706069,0.004886921960860491,0.00366519158706069
1766054142782579700,6.505579833984375,-0.00366519158706069,0.004886921960860491,0.00366519158706069
1766054142792589300,6.51558935546875,0,0.00366519158706069,0.0024434609804302454
1766054142802599200,6.52559912109375,0,0.00366519158706069,0.0012217304902151227
1766054142812609000,6.535609130859375,0.0012217304902151227,0.004886921960860491,0.004886921960860491
1766054142822588200,6.545588134765625,0.0012217304902151227,0.006108652334660292,0.009773843921720982
1766054142852556500,6.575556640625,-0.006108652334660292,0.0024434609804302454,0.006108652334660292
1766054142862566100,6.585566162109375,-0.009773843921720982,0.0024434609804302454,0.00366519158706069
1766054142872545500,6.595545654296875,-0.012217304669320583,0.0024434609804302454,-0.0024434609804302454
1766054142882555100,6.60555517578125,-0.010995574295520782,0.00366519158706069,0.0024434609804302454
1766054142892565000,6.61556494140625,-0.00855211354792118,0.0024434609804302454,0.00366519158706069
1766054142902574800,6.625574951171875,-0.00366519158706069,0.0012217304902151227,0.0012217304902151227
1766054142912554000,6.635553955078125,-0.0012217304902151227,0.0012217304902151227,0.00366519158706069
1766054142922563800,6.645563720703125,0.0012217304902151227,-0.0012217304902151227,-0.0012217304902151227
1766054142932573400,6.655573486328125,0.0024434609804302454,-0.0024434609804302454,-0.00366519158706069
1766054142962572300,6.685572265625,-0.004886921960860491,-0.0012217304902151227,-0.02321287989616394
1766054142972582100,6.69558203125,-0.00366519158706069,0.0012217304902151227,-0.015882495790719986
1766054142982561300,6.705561279296875,-0.004886921960860491,0.0024434609804302454,0.00366519158706069
1766054142992571100,6.715571044921875,-0.006108652334660292,0.004886921960860491,0.01466076634824276
1766054143002580700,6.725580810546875,-0.006108652334660292,0.006108652334660292,0.015882495790719986
1766054143012590600,6.735590576171875,-0.00855211354792118,0.0012217304902151227,0.00733038317412138
1766054143022600400,6.745600341796875,-0.00366519158706069,-0.0012217304902151227,0.00366519158706069
1766054143032579600,6.75557958984375,0.0012217304902151227,-0.00366519158706069,0
1766054143042559000,6.76555908203125,0.00733038317412138,-0.00366519158706069,0.0012217304902151227
1766054143062548000,6.7855478515625,0.004886921960860491,0.0024434609804302454,-0.00366519158706069
1766054143072527000,6.795527099609375,0.00366519158706069,0.006108652334660292,0.0024434609804302454
1766054143082537000,6.805536865234375,0.004886921960860491,0.00733038317412138,0.012217304669320583
1766054143092546600,6.815546630859375,0.0024434609804302454,0.006108652334660292,0.01466076634824276
1766054143102556400,6.825556396484375,-0.0012217304902151227,0.00366519158706069,0.004886921960860491
1766054143112535600,6.83553564453125,-0.0024434609804302454,0.0024434609804302454,0
1766054143122515000,6.845514892578125,-0.00366519158706069,0.00366519158706069,-0.0012217304902151227
1766054143132494000,6.855494140625,-0.00366519158706069,0.0012217304902151227,-0.00855211354792118
1766054143142473500,6.865473388671875,-0.0024434609804302454,0.006108652334660292,-0.013439035043120384
1766054143172502800,6.895502685546875,-0.00855211354792118,0.00733038317412138,-0.015882495790719986
1766054143182482000,6.90548193359375,-0.00855211354792118,0.00733038317412138,-0.015882495790719986
1766054143192461300,6.91546142578125,-0.012217304669320583,0.004886921960860491,-0.004886921960860491
1766054143202471000,6.925470947265625,-0.013439035043120384,0.0012217304902151227,0.009773843921720982
1766054143212450300,6.9354501953125,-0.013439035043120384,-0.0024434609804302454,0.010995574295520782
1766054143222429400,6.945429443359375,-0.01710422709584236,-0.00366519158706069,0.0012217304902151227
1766054143232439300,6.955439208984375,-0.01466076634824276,-0.009773843921720982,-0.00366519158706069
1766054143242449000,6.965448974609375,-0.013439035043120384,-0.009773843921720982,0
1766054143252397800,6.975397705078125,-0.009773843921720982,-0.010995574295520782,0.0012217304902151227
1766054143272386800,6.99538671875,0,-0.009773843921720982,-0.006108652334660292
1766054143282396400,7.005396484375,0.009773843921720982,-0.009773843921720982,-0.02932153269648552
1766054143292375800,7.015375732421875,0.01466076634824276,-0.009773843921720982,-0.03420845419168472
1766054143302355000,7.02535498046875,0.010995574295520782,-0.009773843921720982,-0.021991148591041565
1766054143312334300,7.035334228515625,0.006108652334660292,-0.010995574295520782,-0.0024434609804302454
1766054143322313500,7.0453134765625,0.0024434609804302454,-0.00855211354792118,0.0024434609804302454
1766054143332292900,7.05529296875,0,-0.004886921960860491,-0.00855211354792118
1766054143342272000,7.06527197265625,-0.0012217304902151227,-0.004886921960860491,-0.01466076634824276
1766054143352220700,7.075220703125,-0.0012217304902151227,-0.0024434609804302454,-0.013439035043120384
1766054143372209700,7.095209716796875,-0.00366519158706069,-0.00366519158706069,0.00733038317412138
1766054143382189000,7.10518896484375,-0.0024434609804302454,-0.006108652334660292,0.0024434609804302454
1766054143392198700,7.11519873046875,0.0012217304902151227,-0.00733038317412138,-0.0012217304902151227
1766054143402208500,7.12520849609375,0.004886921960860491,-0.00733038317412138,-0.01466076634824276
1766054143412157200,7.1351572265625,0.004886921960860491,-0.006108652334660292,-0.02321287989616394
1766054143422167000,7.1451669921875,0,-0.0024434609804302454,-0.013439035043120384
1766054143432177000,7.155177001953125,-0.006108652334660292,0,-0.0024434609804302454
1766054143442186500,7.1651865234375,-0.00733038317412138,-0.00366519158706069,-0.0012217304902151227
1766054143452196400,7.1751962890625,-0.009773843921720982,-0.006108652334660292,-0.00366519158706069
1766054143472185300,7.195185302734375,-0.010995574295520782,-0.013439035043120384,0
1766054143482164500,7.20516455078125,-0.010995574295520782,-0.009773843921720982,-0.0012217304902151227
1766054143492143900,7.215143798828125,-0.00855211354792118,0.0024434609804302454,0.00733038317412138
1766054143502123000,7.225123046875,-0.006108652334660292,0.018325956538319588,0.02687807008624077
1766054143512132900,7.2351328125,-0.0024434609804302454,0.03787364438176155,0.045204028487205505
1766054143522142700,7.245142822265625,-0.00733038317412138,0.05375614017248154,0.0403171069920063
1766054143532182800,7.255182861328125,-0.006108652334660292,0.05742133408784866,0.01710422709584236
1766054143542192600,7.265192626953125,0,0.05742133408784866,0.02932153269648552
1766054143552141300,7.275141357421875,0.0024434609804302454,0.04886921867728233,0.03298672288656235
1766054143562120700,7.28512060546875,0.00366519158706069,0.039095375686883926,0.02932153269648552
1766054143592028000,7.31502783203125,0.021991148591041565,0.01466076634824276,-0.00733038317412138
1766054143602007000,7.325007080078125,0.02932153269648552,0.004886921960860491,-0.013439035043120384
1766054143612017000,7.335016845703125,0.030543262138962746,-0.004886921960860491,-0.024434609338641167
1766054143622026800,7.34502685546875,0.02321287989616394,-0.004886921960860491,-0.03176499158143997
1766054143632036400,7.355036376953125,0.01710422709584236,-0.012217304669320583,-0.018325956538319588
1766054143642046200,7.365046142578125,0.009773843921720982,-0.012217304669320583,0
1766054143652025300,7.375025390625,0.00733038317412138,-0.01466076634824276,0.009773843921720982
1766054143662035200,7.38503515625,0.009773843921720982,-0.015882495790719986,0
1766054143671953400,7.394953369140625,0.010995574295520782,-0.01466076634824276,-0.015882495790719986
1766054143711961900,7.4349619140625,0.015882495790719986,0.0024434609804302454,0.01710422709584236
1766054143721971700,7.4449716796875,0.01466076634824276,0.006108652334660292,0.010995574295520782
1766054143731981600,7.454981689453125,0.010995574295520782,0.00855211354792118,0.00366519158706069
1766054143741991200,7.4649912109375,0.009773843921720982,0.012217304669320583,0.00733038317412138
1766054143752001000,7.4750009765625,0.010995574295520782,0.009773843921720982,0.012217304669320583
1766054143762011000,7.485010986328125,0.013439035043120384,0.0024434609804302454,0.00733038317412138
1766054143771959600,7.49495947265625,0.01466076634824276,0,-0.00733038317412138
1766054143781938700,7.504938720703125,0.012217304669320583,-0.0012217304902151227,-0.019547687843441963
1766054143811876600,7.534876708984375,0.0012217304902151227,-0.0012217304902151227,0
1766054143821855700,7.544855712890625,-0.0012217304902151227,-0.0012217304902151227,0.013439035043120384
1766054143831865600,7.554865478515625,-0.00366519158706069,0.0012217304902151227,0.01466076634824276
1766054143841844700,7.5648447265625,-0.006108652334660292,0.00366519158706069,0.00855211354792118
1766054143851824000,7.57482421875,-0.010995574295520782,0.00855211354792118,0
1766054143861803300,7.58480322265625,-0.013439035043120384,0.015882495790719986,0.00733038317412138
1766054143871782400,7.594782470703125,-0.015882495790719986,0.01710422709584236,0.010995574295520782
1766054143881761800,7.60476171875,-0.018325956538319588,0.015882495790719986,0.004886921960860491
1766054143911699500,7.634699462890625,-0.01710422709584236,0.009773843921720982,0.0012217304902151227
1766054143921709300,7.644709228515625,-0.013439035043120384,0,0.00366519158706069
1766054143931688400,7.6546884765625,-0.013439035043120384,-0.00733038317412138,-0.009773843921720982
1766054143941667800,7.664667724609375,-0.015882495790719986,-0.010995574295520782,-0.030543262138962746
1766054143951647000,7.67464697265625,-0.01710422709584236,-0.013439035043120384,-0.030543262138962746
1766054143961687300,7.684687255859375,-0.018325956538319588,-0.013439035043120384,-0.028099801391363144
1766054143971666400,7.69466650390625,-0.02076941914856434,-0.013439035043120384,-0.02687807008624077
1766054143981706800,7.704706787109375,-0.02076941914856434,-0.01466076634824276,-0.024434609338641167
1766054143991686100,7.71468603515625,-0.02076941914856434,-0.012217304669320583,-0.03176499158143997
1766054144041582300,7.764582275390625,-0.02076941914856434,0.024434609338641167,-0.00366519158706069
1766054144051531000,7.774531005859375,-0.019547687843441963,0.02687807008624077,-0.012217304669320583
1766054144061571300,7.7845712890625,-0.01466076634824276,0.025656340643763542,-0.013439035043120384
1766054144071520000,7.79452001953125,-0.010995574295520782,0.021991148591041565,-0.009773843921720982
1766054144081529900,7.80452978515625,-0.009773843921720982,0.01710422709584236,-0.013439035043120384
1766054144091509000,7.814509033203125,-0.004886921960860491,0.012217304669320583,-0.013439035043120384
1766054144101488400,7.82448828125,0,0.00855211354792118,-0.021991148591041565
1766054144121477400,7.844477294921875,0.004886921960860491,0.0024434609804302454,-0.02687807008624077
1766054144131487000,7.854487060546875,0.0024434609804302454,0,-0.015882495790719986
1766054144141466400,7.86446630859375,0,-0.0024434609804302454,-0.00855211354792118
1766054144151415000,7.8744150390625,0,-0.00855211354792118,-0.0024434609804302454
1766054144161425000,7.8844248046875,0.0012217304902151227,-0.00855211354792118,-0.004886921960860491
1766054144171404000,7.894404052734375,0.00733038317412138,-0.010995574295520782,-0.02076941914856434
1766054144181383400,7.904383544921875,0.013439035043120384,-0.013439035043120384,-0.028099801391363144
1766054144191362600,7.914362548828125,0.02321287989616394,-0.015882495790719986,-0.0354301854968071
1766054144201372400,7.924372314453125,0.028099801391363144,-0.013439035043120384,-0.04642575979232788
1766054144241380900,7.964380859375,0.024434609338641167,-0.009773843921720982,-0.051312681287527084
1766054144251360300,7.9743603515625,0.02321287989616394,-0.00733038317412138,-0.042760565876960754
1766054144261369900,7.984369873046875,0.028099801391363144,-0.006108652334660292,-0.02321287989616394
1766054144271318500,7.994318603515625,0.0354301854968071,-0.00855211354792118,0.0024434609804302454
1766054144281358800,8.00435888671875,0.05009094998240471,-0.015882495790719986,0.039095375686883926
1766054144291338200,8.014338134765625,0.06963863968849182,-0.02321287989616394,0.05497787147760391
1766054144301317400,8.0243173828125,0.08552113175392151,-0.025656340643763542,0.0708603709936142
1766054144311296800,8.034296875,0.09407325088977814,-0.03298672288656235,0.08307767659425735
1766054144321276000,8.04427587890625,0.09285151958465576,-0.0354301854968071,0.059864792972803116
1766054144341204000,8.064203857421875,0.08185594528913498,-0.02321287989616394,0.08674286305904388
1766054144351213600,8.074213623046875,0.0757472887635231,-0.010995574295520782,0.1160643994808197
1766054144361193000,8.08419287109375,0.06230825558304787,0.00733038317412138,0.15882496535778046
1766054144371202600,8.09420263671875,0.05253441259264946,0.02076941914856434,0.19425514340400696
1766054144381151500,8.1041513671875,0.04886921867728233,0.030543262138962746,0.18936823308467865
1766054144391161000,8.1141611328125,0.04886921867728233,0.030543262138962746,0.18936823308467865
1766054144401140500,8.124140380859375,0.045204028487205505,0.03787364438176155,0.20036379992961884
1766054144411150000,8.134150146484375,0.039095375686883926,0.04886921867728233,0.23090706765651703
1766054144421129500,8.14412939453125,0.03298672288656235,0.05009094998240471,0.2272418737411499
1766054144441118500,8.164118408203125,0.004886921960860491,0.059864792972803116,0.2076941877603531
1766054144461138000,8.184137939453125,0.004886921960860491,0.06352998316287994,0.22113321721553802
1766054144471117300,8.194117431640626,0.01710422709584236,0.059864792972803116,0.19792033731937408
1766054144481127000,8.204126953125,0.03420845419168472,0.04886921867728233,0.19303341209888458
1766054144491136800,8.21413671875,0.05375614017248154,0.04398229718208313,0.2064724564552307
1766054144501116000,8.224115966796875,0.05619960278272629,0.036651913076639175,0.27000242471694946
1766054144511095300,8.23409521484375,0.01466076634824276,0.039095375686883926,0.30543261766433716
1766054144521074400,8.244074462890625,-0.0024434609804302454,0.04153883829712868,0.28099802136421204
1766054144541033000,8.264032958984375,-0.039095375686883926,0.05742133408784866,0.2822197377681732
1766054144550981600,8.273981689453125,-0.05009094998240471,0.07330382615327835,0.2785545587539673
1766054144561022000,8.28402197265625,-0.06475171446800232,0.09407325088977814,0.3396410644054413
1766054144571001300,8.29400146484375,-0.07330382615327835,0.11239920556545258,0.44715335965156555
1766054144581041400,8.30404150390625,-0.0708603709936142,0.1258382350206375,0.5485569834709167
1766054144590990300,8.313990234375,-0.06230825558304787,0.1417207419872284,0.6279694437980652
1766054144600969500,8.323969482421875,-0.045204028487205505,0.1612684279680252,0.675616979598999
1766054144610979300,8.333979248046875,-0.02687807008624077,0.16737708449363708,0.6878342628479004
1766054144620958500,8.34395849609375,0.028099801391363144,0.1563815027475357,0.6805039048194885
1766054144640917000,8.3639169921875,0.11972958594560623,0.15027284622192383,0.7391469478607178
1766054144650926800,8.3739267578125,0.14049901068210602,0.17348572611808777,0.7562511563301086
1766054144660936400,8.3839365234375,0.15882496535778046,0.18570303916931152,0.6805039048194885
1766054144670915800,8.393915771484375,0.17837265133857727,0.20036379992961884,0.6010913848876953
1766054144680925400,8.403925537109375,0.18814650177955627,0.2125810980796814,0.5656611919403076
1766054144690935300,8.413935302734375,0.2076941877603531,0.2174680233001709,0.6120869517326355
1766054144710893800,8.433893798828125,0.22479841113090515,0.26633724570274353,0.7428121566772461
1766054144720903700,8.443903564453125,0.22846360504627228,0.2736676335334778,0.7867944240570068
1766054144730913300,8.453913330078125,0.22602014243602753,0.27000242471694946,0.8026769161224365
1766054144760881700,8.483881591796875,0.20525072515010834,0.24190263450145721,0.5473352670669556
1766054144790911000,8.513910888671875,0.14782938361167908,0.19303341209888458,0.47280970215797424
1766054144800920600,8.523920654296875,0.10995574295520782,0.17837265133857727,0.4960225820541382
1766054144810930400,8.533930419921875,0.0708603709936142,0.15515977144241333,0.5204572081565857
1766054144830919400,8.55391943359375,0.012217304669320583,0.12217304855585098,0.5998696684837341
1766054144840929300,8.56392919921875,-0.015882495790719986,0.11484266817569733,0.5937610268592834
1766054144850908400,8.573908447265625,-0.025656340643763542,0.09040805697441101,0.504574716091156
1766054144870897400,8.5938974609375,-0.05375614017248154,-0.00366519158706069,0.01466076634824276
1766054144880907300,8.6039072265625,-0.07452555745840073,-0.042760565876960754,-0.2883284091949463
1766054144890917000,8.613917236328126,-0.10018189996480942,-0.07819075137376785,-0.5326744914054871
1766054144900896300,8.623896240234375,-0.14416420459747314,-0.10262536257505417,-0.8503243923187256
1766054144910875400,8.63387548828125,-0.1966986060142517,-0.12339477986097336,-1.1154398918151855
1766054144920885200,8.64388525390625,-0.2272418737411499,-0.12339477986097336,-1.2486085891723633
1766054144930864600,8.65386474609375,-0.2370157092809677,-0.1111774742603302,-1.2608258724212646
1766054144940874200,8.663874267578125,-0.24556782841682434,-0.08429940044879913,-1.1606439352035522
1766054144950853600,8.673853515625,-0.2577851414680481,-0.06841690838336945,-0.9822713136672974
1766054144960832800,8.683832763671875,-0.2590068578720093,-0.06475171446800232,-0.7452555894851685
1766054144970842600,8.693842529296875,-0.25045475363731384,-0.06352998316287994,-0.5241223573684692
1766054144980852200,8.703852294921875,-0.23579397797584534,-0.05864306539297104,-0.39095374941825867
1766054144990831600,8.71383154296875,-0.21868975460529327,-0.05253441259264946,-0.31642818450927734
1766054145000810800,8.723810791015625,-0.19058994948863983,-0.051312681287527084,-0.3066543638706207
1766054145010790100,8.7337900390625,-0.16493362188339233,-0.036651913076639175,-0.3689626157283783
1766054145020769300,8.743769287109375,-0.16493362188339233,-0.036651913076639175,-0.3689626157283783
1766054145030718000,8.753718017578125,-0.14294247329235077,-0.019547687843441963,-0.4386012554168701
1766054145040697300,8.763697265625,-0.11239920556545258,-0.019547687843441963,-0.46670106053352356
1766054145070665500,8.79366552734375,-0.009773843921720982,0.0024434609804302454,-0.44104471802711487
1766054145110613000,8.833613037109375,-0.0024434609804302454,0.012217304669320583,0.06963863968849182
1766054145120622800,8.843622802734375,-0.012217304669320583,0.02321287989616394,0.1368338167667389
1766054145130632700,8.8536328125,-0.00855211354792118,0.03176499158143997,0.1563815027475357
1766054145140611800,8.86361181640625,-0.006108652334660292,0.030543262138962746,0.14538592100143433
1766054145150591000,8.873591064453125,0.00366519158706069,0.024434609338641167,0.10018189996480942
1766054145170580200,8.893580322265626,0.04153883829712868,0.004886921960860491,0.1820378452539444
1766054145180559400,8.903559326171875,0.0659734457731247,0.004886921960860491,0.33597588539123535
1766054145190569200,8.9135693359375,0.09285151958465576,0.013439035043120384,0.4948008358478546
1766054145200548400,8.92354833984375,0.1258382350206375,0.012217304669320583,0.6670648455619812
1766054145210588700,8.933588623046875,0.15760323405265808,0.015882495790719986,0.827111542224884
1766054145220598500,8.9435986328125,0.1918116807937622,0.039095375686883926,0.978606104850769
1766054145230577700,8.95357763671875,0.22602014243602753,0.06475171446800232,1.1215485334396362
1766054145240587500,8.96358740234375,0.18081611394882202,0.07819075137376785,0.9529497623443604
1766054145280535000,9.00353515625,0.2736676335334778,0.15882496535778046,0.9334021210670471
1766054145290575000,9.0135751953125,0.27000242471694946,0.19914206862449646,0.9761626720428467
1766054145300554500,9.023554443359375,0.2773328125476837,0.22602014243602753,1.0225883722305298
1766054145310533600,9.03353369140625,0.2871066629886627,0.2528982162475586,1.0213667154312134
1766054145320513000,9.043512939453125,0.28588494658470154,0.2565633952617645,0.8930850028991699
1766054145330492200,9.0534921875,0.2822197377681732,0.23579397797584534,0.685390830039978
1766054145340502000,9.063501953125,0.2687807083129883,0.2015855312347412,0.4801400899887085
1766054145350511900,9.073511962890626,0.2565633952617645,0.16371189057826996,0.32986724376678467
1766054145370500900,9.0935009765625,0.2125810980796814,0.10995574295520782,0.1722639948129654
1766054145390489900,9.11348974609375,0.16249015927314758,0.03298672288656235,-0.015882495790719986
1766054145400499500,9.12349951171875,0.12950342893600464,-0.0024434609804302454,0.02076941914856434
1766054145410478800,9.133478759765625,0.09407325088977814,-0.024434609338641167,0.13316862285137177
1766054145420458000,9.1434580078125,0.05619960278272629,-0.03420845419168472,0.2064724564552307
1766054145430406700,9.15340673828125,0.012217304669320583,-0.024434609338641167,0.21502456068992615
1766054145440386000,9.163385986328125,-0.025656340643763542,-0.01710422709584236,0.14905111491680145
1766054145450365200,9.173365234375,-0.051312681287527084,-0.013439035043120384,0.04642575979232788
1766054145490374000,9.213373779296875,-0.11972958594560623,-0.01710422709584236,-0.5485569834709167
1766054145510363000,9.23336279296875,-0.1563815027475357,-0.036651913076639175,-1.0555751323699951
1766054145520342000,9.243342041015625,-0.17959438264369965,-0.05253441259264946,-1.1887437105178833
1766054145530321400,9.2533212890625,-0.19914206862449646,-0.0659734457731247,-1.1105530261993408
1766054145540331000,9.2633310546875,-0.21991148591041565,-0.07208210229873657,-1.0018190145492554
1766054145550280000,9.273280029296876,-0.24678955972194672,-0.08796459436416626,-0.8894197940826416
1766054145560259000,9.283259033203125,-0.27488934993743896,-0.08552113175392151,-0.7452555894851685
1766054145610185700,9.333185791015625,-0.36163222789764404,-0.16859880089759827,-1.1081095933914185
1766054145620195600,9.343195556640625,-0.3579670190811157,-0.19792033731937408,-1.2046263217926025
1766054145630205400,9.353205322265625,-0.3579670190811157,-0.19792033731937408,-1.2046263217926025
1766054145640184600,9.3631845703125,-0.3445279896259308,-0.22479841113090515,-1.1374311447143555
1766054145650194400,9.3731943359375,-0.34086281061172485,-0.2431243658065796,-1.0396926403045654
1766054145660173600,9.383173583984375,-0.3530801236629486,-0.2541199326515198,-0.9834930300712585
1766054145670153000,9.393153076171876,-0.375071257352829,-0.2577851414680481,-0.9395107626914978
1766054145700121000,9.42312109375,-0.3604104816913605,-0.304210901260376,-0.8735373020172119
1766054145710100500,9.4331005859375,-0.3274237811565399,-0.29565876722335815,-0.7305948138237
1766054145720110000,9.443110107421875,-0.29565876722335815,-0.27122417092323303,-0.6536257863044739
1766054145730120000,9.453119873046875,-0.2590068578720093,-0.23090706765651703,-0.6328563690185547
1766054145740129800,9.4631298828125,-0.21013765037059784,-0.19547687470912933,-0.5962044596672058
1766054145750109000,9.47310888671875,-0.13439035415649414,-0.17959438264369965,-0.4996877610683441
1766054145760088000,9.483088134765625,-0.06108652427792549,-0.15882496535778046,-0.3836233615875244
1766054145770067500,9.4930673828125,0.004886921960860491,-0.1319468915462494,-0.26511552929878235
1766054145780107800,9.503107666015625,0.07941248267889023,-0.1014036312699318,-0.13316862285137177
1766054145810137000,9.53313720703125,0.2125810980796814,-0.02687807008624077,0.304210901260376
1766054145820146700,9.543146728515625,0.2174680233001709,0.0024434609804302454,0.3433062732219696
1766054145830126000,9.5531259765625,0.21624629199504852,0.01710422709584236,0.3188716471195221
1766054145840135700,9.5631357421875,0.18325957655906677,-0.00366519158706069,-0.019547687843441963
1766054145860124700,9.583124755859375,0.3029891550540924,-0.039095375686883926,-0.10873401165008545
1766054145870104000,9.59310400390625,0.29565876722335815,-0.03298672288656235,-0.10018189996480942
1766054145880083200,9.603083251953125,0.26633724570274353,-0.015882495790719986,-0.07819075137376785
1766054145900072200,9.623072265625,0.23457226157188416,0.0024434609804302454,-0.028099801391363144
1766054145910051600,9.633051513671875,0.2174680233001709,-0.025656340643763542,0.0012217304902151227
1766054145920092000,9.643091796875,0.2076941877603531,-0.05742133408784866,0.015882495790719986
1766054145930071000,9.653071044921875,0.2028072625398636,-0.0708603709936142,0.0354301854968071
1766054145940111400,9.663111328125,0.18936823308467865,-0.07941248267889023,0.07819075137376785
1766054145950090500,9.673090576171875,0.1722639948129654,-0.08918632566928864,0.09040805697441101
1766054145960070000,9.68306982421875,0.15882496535778046,-0.09651670604944229,0.07696902006864548
1766054145970110200,9.693110107421875,0.1466076523065567,-0.10384709388017654,0.07330382615327835
1766054146010027000,9.733027099609375,0.018325956538319588,-0.05253441259264946,-0.05864306539297104
1766054146020036900,9.743036865234375,-0.01466076634824276,-0.0354301854968071,-0.08552113175392151
1766054146029985500,9.752985595703125,-0.04642575979232788,-0.03420845419168472,-0.1319468915462494
1766054146039995400,9.762995361328125,-0.07330382615327835,-0.0354301854968071,-0.13561208546161652
1766054146049974500,9.772974609375,-0.09040805697441101,-0.028099801391363144,-0.07208210229873657
1766054146069933000,9.79293310546875,-0.10873401165008545,-0.009773843921720982,0.009773843921720982
1766054146079943000,9.80294287109375,-0.10384709388017654,-0.015882495790719986,-0.024434609338641167
1766054146109880600,9.832880615234375,-0.06475171446800232,-0.07330382615327835,-0.07208210229873657
1766054146119890400,9.842890380859375,-0.05619960278272629,-0.07696902006864548,-0.08307767659425735
1766054146129839000,9.852839111328125,-0.05742133408784866,-0.0659734457731247,-0.10384709388017654
1766054146139818500,9.862818603515626,-0.05742133408784866,-0.05742133408784866,-0.06841690838336945
1766054146149797600,9.872797607421875,-0.06230825558304787,-0.03420845419168472,-0.0403171069920063
1766054146159776800,9.88277685546875,-0.06475171446800232,-0.013439035043120384,-0.06475171446800232
1766054146169786600,9.89278662109375,-0.0708603709936142,0,-0.0708603709936142
1766054146179796500,9.90279638671875,-0.07452555745840073,0.009773843921720982,-0.06475171446800232
1766054146189745200,9.9127451171875,-0.07208210229873657,0.01466076634824276,-0.09162978827953339
1766054146199755000,9.922755126953126,-0.06475171446800232,0.006108652334660292,-0.06841690838336945
1766054146239733000,9.96273291015625,-0.036651913076639175,-0.006108652334660292,0.03787364438176155
1766054146249773300,9.972773193359375,-0.02076941914856434,0.0024434609804302454,0.01710422709584236
1766054146259752400,9.98275244140625,-0.02076941914856434,0.0024434609804302454,0.01710422709584236
1766054146269701000,9.992701171875,0.0024434609804302454,0.006108652334660292,-0.0012217304902151227
1766054146279680500,10.002680419921875,0.02932153269648552,0.009773843921720982,0.05497787147760391
1766054146289659600,10.01265966796875,0.05619960278272629,0.01466076634824276,0.14905111491680145
1766054146319658500,10.042658447265625,0.08185594528913498,0.025656340643763542,-0.05375614017248154
1766054146339708400,10.06270849609375,0.04642575979232788,0.07696902006864548,0.10262536257505417
1766054146349687800,10.072687744140625,0.013439035043120384,0.09285151958465576,0.24190263450145721
1766054146359697400,10.082697509765625,-0.0012217304902151227,0.10384709388017654,0.32009339332580566
1766054146369707300,10.092707275390625,-0.0024434609804302454,0.10262536257505417,0.37751471996307373
1766054146379656000,10.102656005859375,0.0012217304902151227,0.07941248267889023,0.3701843321323395
1766054146389665800,10.112665771484375,0.010995574295520782,0.05742133408784866,0.31154128909111023
1766054146429613300,10.15261328125,0.010995574295520782,0.02076941914856434,0.17104226350784302
1766054146439623200,10.162623046875,0.009773843921720982,0.02321287989616394,0.14294247329235077
1766054146449632800,10.1726328125,0.004886921960860491,0.02932153269648552,0.12217304855585098
1766054146459612200,10.182612060546875,0.0012217304902151227,0.0403171069920063,0.14905111491680145
1766054146469621800,10.192621826171875,-0.006108652334660292,0.04642575979232788,0.2015855312347412
1766054146479601200,10.20260107421875,-0.019547687843441963,0.05009094998240471,0.20891591906547546
1766054146489610800,10.21261083984375,-0.021991148591041565,0.045204028487205505,0.20036379992961884
1766054146499590100,10.222590087890625,-0.018325956538319588,0.039095375686883926,0.21013765037059784
1766054146529589000,10.252589111328126,-0.00855211354792118,0.03420845419168472,0.2528982162475586
1766054146539568000,10.262568115234375,-0.006108652334660292,0.030543262138962746,0.23945917189121246
1766054146549578000,10.272577880859375,-0.0024434609804302454,0.028099801391363144,0.22602014243602753
1766054146559557000,10.28255712890625,0.0012217304902151227,0.025656340643763542,0.2125810980796814
1766054146569536500,10.29253662109375,0,0.025656340643763542,0.18448130786418915
1766054146579546000,10.302546142578125,-0.0024434609804302454,0.01710422709584236,0.1270599663257599
1766054146589494800,10.312494873046875,0.0012217304902151227,0.006108652334660292,0.09651670604944229
1766054146599504600,10.322504638671875,-0.006108652334660292,-0.00366519158706069,0.08185594528913498
1766054146609514500,10.332514404296875,-0.01710422709584236,-0.013439035043120384,0.059864792972803116
1766054146629503500,10.35250341796875,-0.0403171069920063,-0.030543262138962746,0.07819075137376785
1766054146639513000,10.36251318359375,-0.05742133408784866,-0.036651913076639175,0.030543262138962746
1766054146649523000,10.37252294921875,-0.07696902006864548,-0.042760565876960754,-0.04398229718208313
1766054146659502300,10.38250244140625,-0.08674286305904388,-0.04642575979232788,-0.0806342139840126
1766054146669481500,10.3924814453125,-0.09896016865968704,-0.04398229718208313,-0.09529497474431992
1766054146679460600,10.402460693359375,-0.10995574295520782,-0.03787364438176155,-0.09285151958465576
1766054146689440000,10.41243994140625,-0.11484266817569733,-0.024434609338641167,-0.07208210229873657
1766054146699449900,10.422449951171876,-0.11484266817569733,-0.01710422709584236,-0.0403171069920063
1766054146709429000,10.432428955078125,-0.10995574295520782,-0.010995574295520782,-0.03420845419168472
1766054146729418000,10.45241796875,-0.10751228034496307,-0.00855211354792118,-0.06230825558304787
1766054146759447300,10.482447265625,-0.10262536257505417,0.00366519158706069,-0.20036379992961884
1766054146769426400,10.492426513671875,-0.10018189996480942,0,-0.2675589919090271
1766054146779405800,10.50240576171875,-0.09285151958465576,-0.010995574295520782,-0.3188716471195221
1766054146789385000,10.512385009765625,-0.08796459436416626,-0.018325956538319588,-0.35552358627319336
1766054146799364400,10.5223642578125,-0.08185594528913498,-0.00366519158706069,-0.3445279896259308
1766054146809374000,10.5323740234375,-0.08185594528913498,0.01466076634824276,-0.32986724376678467
1766054146819353300,10.542353271484375,-0.07941248267889023,0.012217304669320583,-0.4092797040939331
1766054146829332500,10.55233251953125,-0.0806342139840126,0,-0.5583308339118958
1766054146849291000,10.572291015625,-0.0757472887635231,-0.02076941914856434,-0.7611380815505981
1766054146859300900,10.58230078125,-0.06352998316287994,-0.02687807008624077,-0.7086036801338196
1766054146869310500,10.592310546875,-0.06352998316287994,-0.02687807008624077,-0.7086036801338196
1766054146879289900,10.602289794921875,-0.05375614017248154,-0.03176499158143997,-0.5815436840057373
1766054146889299700,10.6122998046875,-0.042760565876960754,-0.02687807008624077,-0.44593164324760437
1766054146899278800,10.62227880859375,-0.03420845419168472,-0.00855211354792118,-0.3029891550540924
1766054146909258000,10.632258056640625,-0.02076941914856434,0.021991148591041565,-0.16982053220272064
1766054146919267800,10.642267822265625,-0.021991148591041565,0.036651913076639175,-0.07941248267889023
1766054146929216500,10.652216552734375,-0.028099801391363144,0.02687807008624077,-0.08552113175392151
1766054146959245800,10.682245849609375,-0.006108652334660292,0.009773843921720982,-0.1722639948129654
1766054146979204400,10.702204345703125,0,0.004886921960860491,-0.17348572611808777
1766054146989214200,10.712214111328125,0.013439035043120384,0.00855211354792118,-0.1258382350206375
1766054146999223800,10.722223876953125,0.028099801391363144,0.0012217304902151227,-0.10751228034496307
1766054147009203200,10.732203125,0.039095375686883926,-0.006108652334660292,-0.12339477986097336
1766054147019182300,10.742182373046875,0.039095375686883926,-0.01466076634824276,-0.14416420459747314
1766054147039140900,10.762140869140625,0.0403171069920063,-0.0403171069920063,-0.19547687470912933
1766054147049150700,10.772150634765625,0.042760565876960754,-0.04764748737215996,-0.17959438264369965
1766054147059160300,10.782160400390625,0.042760565876960754,-0.05619960278272629,-0.15760323405265808
1766054147069139700,10.7921396484375,0.0403171069920063,-0.06352998316287994,-0.14905111491680145
1766054147079118800,10.802118896484375,0.0354301854968071,-0.06841690838336945,-0.13927727937698364
1766054147089098200,10.81209814453125,0.02932153269648552,-0.06963863968849182,-0.13072516024112701
1766054147099107800,10.82210791015625,0.028099801391363144,-0.06352998316287994,-0.13316862285137177
1766054147109056800,10.832056884765626,0.030543262138962746,-0.05619960278272629,-0.16004669666290283
1766054147119096800,10.842096923828125,0.02687807008624077,-0.04398229718208313,-0.17592918872833252
1766054147129076200,10.852076171875,0.024434609338641167,-0.0403171069920063,-0.18448130786418915
1766054147159044400,10.88204443359375,0.024434609338641167,-0.04764748737215996,-0.10018189996480942
1766054147179064000,10.90206396484375,0.024434609338641167,-0.059864792972803116,-0.010995574295520782
1766054147189012700,10.9120126953125,0.025656340643763542,-0.06230825558304787,0.004886921960860491
1766054147199053000,10.922052978515625,0.02687807008624077,-0.059864792972803116,0.006108652334660292
1766054147209032200,10.9320322265625,0.02932153269648552,-0.04764748737215996,-0.0024434609804302454
1766054147219011600,10.942011474609375,0.02687807008624077,-0.0354301854968071,-0.0012217304902151227
1766054147228990700,10.95199072265625,0.028099801391363144,-0.030543262138962746,0.018325956538319588
1766054147238970000,10.96197021484375,0.025656340643763542,-0.024434609338641167,0.03420845419168472
1766054147248979700,10.971979736328125,0.021991148591041565,-0.019547687843441963,0.06719517707824707
1766054147268968700,10.99196875,0.00733038317412138,-0.012217304669320583,0.10995574295520782
1766054147278948000,11.001947998046875,-0.00733038317412138,-0.01710422709584236,0.11972958594560623
1766054147288927200,11.01192724609375,-0.019547687843441963,-0.024434609338641167,0.1111774742603302
1766054147298906600,11.02190673828125,-0.024434609338641167,-0.02932153269648552,0.059864792972803116
1766054147308885800,11.0318857421875,-0.030543262138962746,-0.01710422709584236,0.02687807008624077
1766054147318865000,11.041864990234375,-0.028099801391363144,0.01710422709584236,0.013439035043120384
1766054147328844300,11.05184423828125,-0.02687807008624077,0.04642575979232788,-0.013439035043120384
1766054147338854100,11.061854248046876,-0.015882495790719986,0.04764748737215996,-0.08185594528913498
1766054147348833300,11.071833251953125,0,0.04153883829712868,-0.08429940044879913
1766054147358843100,11.081843017578125,0.00733038317412138,0.03787364438176155,-0.02687807008624077
1766054147388841700,11.111841796875,0.01466076634824276,-0.00366519158706069,-0.036651913076639175
1766054147398821000,11.121821044921875,0.009773843921720982,-0.019547687843441963,-0.05619960278272629
1766054147408830700,11.131830810546875,0.01466076634824276,-0.03420845419168472,-0.0806342139840126
1766054147418840600,11.141840576171875,0.02687807008624077,-0.045204028487205505,-0.09162978827953339
1766054147428820000,11.151820068359376,0.03787364438176155,-0.04764748737215996,-0.1270599663257599
1766054147438799000,11.161799072265625,0.05009094998240471,-0.039095375686883926,-0.14905111491680145
1766054147448809000,11.17180908203125,0.05864306539297104,-0.03176499158143997,-0.1417207419872284
1766054147498674700,11.2216748046875,0.03298672288656235,-0.021991148591041565,-0.012217304669320583
1766054147508684300,11.231684326171875,0.019547687843441963,-0.01710422709584236,0.03176499158143997
1766054147518694100,11.241694091796875,0.006108652334660292,-0.012217304669320583,0.06108652427792549
1766054147528704000,11.2517041015625,-0.004886921960860491,-0.010995574295520782,0.07941248267889023
1766054147538683100,11.26168310546875,-0.00855211354792118,-0.01466076634824276,0.09896016865968704
1766054147548662300,11.271662353515625,-0.010995574295520782,-0.018325956538319588,0.10018189996480942
1766054147558672100,11.281672119140625,-0.013439035043120384,-0.019547687843441963,0.07819075137376785
1766054147578661000,11.3016611328125,-0.01710422709584236,-0.009773843921720982,0.02321287989616394
1766054147598650000,11.321650146484375,-0.02076941914856434,0.015882495790719986,0.02076941914856434
1766054147608660000,11.331659912109375,-0.013439035043120384,0.025656340643763542,0.036651913076639175
1766054147618669800,11.341669921875,-0.004886921960860491,0.02687807008624077,0.03420845419168472
1766054147628649000,11.35164892578125,0,0.02321287989616394,0.036651913076639175
1766054147638628000,11.361628173828125,0.0024434609804302454,0.019547687843441963,0.04153883829712868
1766054147648638000,11.371637939453125,0.006108652334660292,0.009773843921720982,0.05497787147760391
1766054147658647800,11.381647705078125,0.00733038317412138,0,0.05253441259264946
1766054147688616000,11.411615966796875,-0.00855211354792118,0,0.004886921960860491
1766054147698595300,11.42159521484375,-0.01466076634824276,0.004886921960860491,0.02932153269648552
1766054147708574500,11.431574462890625,-0.01710422709584236,0.013439035043120384,0.051312681287527084
1766054147718584300,11.441584228515625,-0.018325956538319588,0.02076941914856434,0.05497787147760391
1766054147728563500,11.4515634765625,-0.012217304669320583,0.024434609338641167,0.04642575979232788
1766054147738542800,11.46154296875,-0.0024434609804302454,0.024434609338641167,0.04642575979232788
1766054147748491500,11.471491455078125,0.00733038317412138,0.02076941914856434,0.06475171446800232
1766054147758501000,11.481501220703125,0.009773843921720982,0.013439035043120384,0.08552113175392151
1766054147768511000,11.491510986328125,0.009773843921720982,0.004886921960860491,0.0806342139840126
1766054147788469500,11.511469482421875,0.00733038317412138,-0.0024434609804302454,0.021991148591041565
1766054147798479400,11.521479248046875,0.006108652334660292,-0.00733038317412138,0.009773843921720982
1766054147808458500,11.53145849609375,0.006108652334660292,-0.009773843921720982,-0.00366519158706069
1766054147818468400,11.54146826171875,0.004886921960860491,-0.00855211354792118,0.0024434609804302454
1766054147828447500,11.551447509765625,-0.00366519158706069,-0.0024434609804302454,0.02321287989616394
1766054147838457300,11.561457275390625,-0.01466076634824276,0.02076941914856434,0.04764748737215996
1766054147848181800,11.571181640625,-0.01466076634824276,0.02076941914856434,0.04764748737215996
1766054147857560800,11.580560791015625,-0.019547687843441963,0.04764748737215996,0.07819075137376785
1766054147866940200,11.589940185546874,-0.013439035043120384,0.0659734457731247,0.0806342139840126
1766054147876380400,11.59938037109375,-0.0024434609804302454,0.07330382615327835,0.06352998316287994
1766054147895230500,11.61823046875,0.01466076634824276,0.045204028487205505,-0.019547687843441963
1766054147904709600,11.627709716796875,0.02321287989616394,0.039095375686883926,0.0024434609804302454
1766054147914389000,11.637388916015626,0.03176499158143997,0.02932153269648552,0.042760565876960754
1766054147924068400,11.647068359375,0.03787364438176155,0.021991148591041565,0.06963863968849182
1766054147933878000,11.6568779296875,0.03787364438176155,0.01710422709584236,0.07696902006864548
1766054147953667000,11.6766669921875,0.018325956538319588,0.021991148591041565,0.05253441259264946
1766054147963646200,11.686646240234374,0.013439035043120384,0.015882495790719986,0.025656340643763542
1766054147973625600,11.69662548828125,0.00733038317412138,0.009773843921720982,0.02687807008624077
1766054147983604700,11.706604736328124,-0.0024434609804302454,0.00366519158706069,0.05253441259264946
1766054148003563300,11.726563232421874,-0.024434609338641167,0.004886921960860491,0.06230825558304787
1766054148023582700,11.746582763671874,-0.045204028487205505,0.02687807008624077,0.01710422709584236
1766054148033592600,11.756592529296874,-0.04642575979232788,0.0354301854968071,-0.030543262138962746
1766054148043541200,11.766541259765624,-0.04398229718208313,0.039095375686883926,-0.02687807008624077
1766054148053520600,11.776520751953125,-0.036651913076639175,0.0403171069920063,-0.01710422709584236
1766054148063530200,11.7865302734375,-0.02932153269648552,0.03176499158143997,-0.028099801391363144
1766054148073540000,11.7965400390625,-0.024434609338641167,0.024434609338641167,-0.021991148591041565
1766054148083488800,11.80648876953125,-0.019547687843441963,0.012217304669320583,-0.00733038317412138
1766054148093529000,11.816529052734374,-0.013439035043120384,-0.0012217304902151227,-0.0024434609804302454
1766054148103508200,11.82650830078125,-0.0024434609804302454,-0.01466076634824276,-0.012217304669320583
1766054148133537500,11.85653759765625,0.009773843921720982,-0.02321287989616394,-0.04642575979232788
1766054148143517000,11.866516845703124,0.00733038317412138,-0.01466076634824276,-0.04153883829712868
1766054148153496000,11.87649609375,0.006108652334660292,-0.00366519158706069,-0.03420845419168472
1766054148163506000,11.886505859375,0.0024434609804302454,0.00855211354792118,-0.0354301854968071
1766054148173515800,11.896515869140625,0.0024434609804302454,0.010995574295520782,-0.042760565876960754
1766054148183495000,11.906494873046874,0.004886921960860491,0.00855211354792118,-0.04642575979232788
1766054148193504800,11.9165048828125,0.013439035043120384,0.004886921960860491,-0.05009094998240471
1766054148223442400,11.9464423828125,0.00855211354792118,-0.006108652334660292,-0.08429940044879913
1766054148243462000,11.9664619140625,0.00366519158706069,-0.018325956538319588,-0.1417207419872284
1766054148253441300,11.976441162109374,0.004886921960860491,-0.02321287989616394,-0.1514945775270462
1766054148263390000,11.986389892578124,0.004886921960860491,-0.02687807008624077,-0.14416420459747314
1766054148273399800,11.99639990234375,0.006108652334660292,-0.030543262138962746,-0.12950342893600464
1766054148283379000,12.00637890625,0.009773843921720982,-0.030543262138962746,-0.10384709388017654
1766054148293358000,12.016358154296874,0.009773843921720982,-0.030543262138962746,-0.06841690838336945
1766054148303368000,12.026367919921874,0.009773843921720982,-0.030543262138962746,-0.04153883829712868
1766054148333305600,12.0563056640625,0.006108652334660292,-0.009773843921720982,-0.0354301854968071
1766054148353233700,12.076233642578124,0.009773843921720982,0.00855211354792118,0.018325956538319588
1766054148363212800,12.086212890625,0.012217304669320583,0.009773843921720982,0.01466076634824276
1766054148373222700,12.09622265625,0.019547687843441963,0.00855211354792118,0.02932153269648552
1766054148383171300,12.10617138671875,0.024434609338641167,0,0.03420845419168472
1766054148393150700,12.116150634765624,0.02321287989616394,-0.0012217304902151227,0.039095375686883926
1766054148403160300,12.126160400390624,0.018325956538319588,0.00366519158706069,0.006108652334660292
1766054148413139700,12.1361396484375,0.01710422709584236,0.0024434609804302454,0.004886921960860491
1766054148433128700,12.156128662109374,0.010995574295520782,0.004886921960860491,0.01466076634824276
1766054148473076200,12.196076171875,-0.012217304669320583,-0.00855211354792118,0.004886921960860491
1766054148483086000,12.206086181640625,-0.0024434609804302454,-0.019547687843441963,0.0024434609804302454
1766054148493095700,12.216095703125,0.004886921960860491,-0.01710422709584236,0.025656340643763542
1766054148503044400,12.22604443359375,0.00733038317412138,-0.01710422709584236,0.015882495790719986
1766054148513054200,12.23605419921875,0.004886921960860491,-0.015882495790719986,0.036651913076639175
1766054148523033600,12.24603369140625,0.0024434609804302454,-0.012217304669320583,0.059864792972803116
1766054148543022600,12.266022705078125,-0.00366519158706069,0.013439035043120384,0.09896016865968704
1766054148583000600,12.30600048828125,-0.012217304669320583,0.04642575979232788,0.06475171446800232
1766054148593010200,12.31601025390625,-0.00855211354792118,0.03420845419168472,0.06963863968849182
1766054148602989600,12.325989501953124,-0.010995574295520782,0.021991148591041565,0.0708603709936142
1766054148612968700,12.33596875,-0.013439035043120384,0.00733038317412138,0.042760565876960754
1766054148622978600,12.345978515625,-0.004886921960860491,0.0012217304902151227,-0.01466076634824276
1766054148662987000,12.385987060546874,0.00855211354792118,-0.024434609338641167,-0.09773843735456467
1766054148672966400,12.39596630859375,0.00855211354792118,-0.02687807008624077,-0.08796459436416626
1766054148682945500,12.405945556640624,0.010995574295520782,-0.028099801391363144,-0.07819075137376785
1766054148692925000,12.415925048828125,0.012217304669320583,-0.025656340643763542,-0.06841690838336945
1766054148702904000,12.425904052734374,0.013439035043120384,-0.018325956538319588,-0.06230825558304787
1766054148712914000,12.435913818359374,0.013439035043120384,-0.010995574295520782,-0.04398229718208313
1766054148722893000,12.44589306640625,0.01466076634824276,-0.00733038317412138,-0.039095375686883926
1766054148732872400,12.45587255859375,0.019547687843441963,0.0024434609804302454,-0.059864792972803116
1766054148752830700,12.475830810546874,0.03420845419168472,-0.009773843921720982,-0.11728613078594208
1766054148762840600,12.485840576171874,0.036651913076639175,-0.018325956538319588,-0.14294247329235077
1766054148782799000,12.505799072265624,0.039095375686883926,-0.025656340643763542,-0.12339477986097336
1766054148792809000,12.51580908203125,0.036651913076639175,-0.024434609338641167,-0.08918632566928864
1766054148802757600,12.525757568359374,0.03420845419168472,-0.021991148591041565,-0.05253441259264946
1766054148812767200,12.535767333984374,0.03787364438176155,-0.024434609338641167,-0.03420845419168472
1766054148822777000,12.545777099609374,0.03298672288656235,-0.01710422709584236,-0.051312681287527084
1766054148832787000,12.555786865234374,0.025656340643763542,-0.009773843921720982,-0.06230825558304787
1766054148852745500,12.575745361328124,0.024434609338641167,-0.00733038317412138,-0.08796459436416626
1766054148872704000,12.5957041015625,0.03298672288656235,-0.00733038317412138,-0.08552113175392151
1766054148912743000,12.635742919921874,0.025656340643763542,-0.013439035043120384,0.0024434609804302454
1766054148922722300,12.645722412109375,0.024434609338641167,-0.010995574295520782,0.015882495790719986
1766054148942680600,12.6656806640625,0.018325956538319588,-0.00366519158706069,0.06352998316287994
1766054148972679400,12.695679443359374,0.00366519158706069,0.024434609338641167,0.06230825558304787
1766054148992668400,12.71566845703125,-0.006108652334660292,0.018325956538319588,0.004886921960860491
1766054149012627000,12.735626953125,-0.01466076634824276,0.00733038317412138,0.018325956538319588
1766054149032646400,12.755646484375,-0.025656340643763542,-0.004886921960860491,0.05009094998240471
1766054149102623200,12.825623291015624,-0.018325956538319588,0.015882495790719986,-0.013439035043120384
1766054149112602600,12.8356025390625,-0.015882495790719986,0.01466076634824276,-0.004886921960860491
1766054149122612200,12.8456123046875,-0.009773843921720982,0.013439035043120384,0.004886921960860491
1766054149132591600,12.855591552734374,0.0012217304902151227,0.013439035043120384,0.01466076634824276
1766054149142601200,12.865601318359374,0.012217304669320583,0.010995574295520782,0.009773843921720982
1766054149152580600,12.87558056640625,0.015882495790719986,0.004886921960860491,-0.013439035043120384
1766054149162559700,12.885559814453124,0.012217304669320583,-0.0012217304902151227,-0.030543262138962746
1766054149172569600,12.895569580078124,0.0024434609804302454,0,-0.013439035043120384
1766054149202538000,12.9255380859375,-0.01466076634824276,-0.004886921960860491,0.05497787147760391
1766054149212547600,12.935547607421874,-0.02321287989616394,0,0.06719517707824707
1766054149222527000,12.94552685546875,-0.0354301854968071,0.004886921960860491,0.08429940044879913
1766054149232506000,12.955506103515624,-0.04153883829712868,0.006108652334660292,0.12828169763088226
1766054149242454800,12.965454833984374,-0.051312681287527084,0.004886921960860491,0.1918116807937622
1766054149252495000,12.9754951171875,-0.06719517707824707,0.00855211354792118,0.2871066629886627
1766054149262474500,12.985474609375,-0.08429940044879913,0.019547687843441963,0.3689626157283783
1766054149272453600,12.99545361328125,-0.09896016865968704,0.03298672288656235,0.3995058834552765
1766054149282432800,13.005432861328124,-0.09896016865968704,0.04153883829712868,0.384845107793808
1766054149312431600,13.035431640625,-0.04398229718208313,0.051312681287527084,0.07330382615327835
1766054149342400000,13.06539990234375,0.012217304669320583,0.019547687843441963,-0.024434609338641167
1766054149352409600,13.07540966796875,0.025656340643763542,0.00855211354792118,0.00733038317412138
1766054149362358500,13.085358642578125,0.02932153269648552,0.0012217304902151227,0.01466076634824276
1766054149372368100,13.0953681640625,0.02687807008624077,-0.00366519158706069,0.015882495790719986
1766054149382316800,13.10531689453125,0.02321287989616394,-0.0012217304902151227,0.03420845419168472
1766054149392357000,13.115357177734374,0.01710422709584236,0.004886921960860491,0.07208210229873657
1766054149412346000,13.13534619140625,0.02076941914856434,0.01710422709584236,0.1612684279680252
1766054149432335000,13.155335205078124,0.018325956538319588,0.03420845419168472,0.21502456068992615
1766054149442314500,13.165314453125,0.03176499158143997,0.030543262138962746,0.21991148591041565
1766054149452293600,13.175293701171874,0.0403171069920063,0.036651913076639175,0.1918116807937622
1766054149462303500,13.185303466796874,0.04886921867728233,0.03787364438176155,0.1514945775270462
1766054149472282600,13.19528271484375,0.06230825558304787,0.03420845419168472,0.12339477986097336
1766054149482231600,13.2052314453125,0.06230825558304787,0.039095375686883926,0.1417207419872284
1766054149492271900,13.21527197265625,0.021991148591041565,0.04886921867728233,0.14905111491680145
1766054149502251000,13.2252509765625,0.015882495790719986,0.05009094998240471,0.1661553531885147
1766054149512260900,13.2352607421875,-0.00733038317412138,0.05619960278272629,0.1869247704744339
1766054149572197400,13.295197265625,-0.0757472887635231,0.1258382350206375,0.2993239760398865
1766054149582176500,13.305176513671874,-0.06963863968849182,0.11850785464048386,0.294437050819397
1766054149592186400,13.315186279296874,-0.06230825558304787,0.11362093687057495,0.2736676335334778
1766054149602165500,13.32516552734375,-0.059864792972803116,0.10384709388017654,0.26633724570274353
1766054246584676600,110.30767651367188,0.09529497474431992,-0.04153883829712868,-0.49235737323760986
1766054246594517000,110.31751708984375,0.09529497474431992,-0.04153883829712868,-0.49235737323760986
1766054246604326700,110.32732666015625,0.24556782841682434,0.006108652334660292,0.13561208546161652
1766054246614106000,110.33710620117188,0.19425514340400696,0.042760565876960754,0.5485569834709167
1766054246624146200,110.34714624023438,-0.21135938167572021,0.07452555745840073,-0.012217304669320583
1766054246664063200,110.38706323242188,-0.16493362188339233,0.22968533635139465,0.35185837745666504
1766054246684021800,110.40702172851563,-0.14294247329235077,0.20402899384498596,0.2993239760398865
1766054246723999700,110.44699975585938,-0.10506882518529892,0.1771509200334549,0.23090706765651703
1766054246773926700,110.4969267578125,-0.07696902006864548,0.15882496535778046,0.20036379992961884
1766054246793915600,110.51691552734376,-0.0757472887635231,0.14416420459747314,0.2015855312347412
1766054246803925200,110.52692529296876,-0.08429940044879913,0.13439035415649414,0.2223549485206604
1766054246813904600,110.53690454101563,-0.0757472887635231,0.12828169763088226,0.24068090319633484
1766054246863831300,110.58683129882813,-0.08429940044879913,0.15393804013729095,0.20036379992961884
1766054246893769200,110.61676928710938,-0.10262536257505417,0.13439035415649414,0.27977627515792847
1766054246943696000,110.66669580078126,-0.05253441259264946,0.11239920556545258,0.08918632566928864
1766054246973633500,110.69663354492188,-0.045204028487205505,0.0403171069920063,0.059864792972803116
1766054247003632400,110.72663232421876,-0.0354301854968071,0.010995574295520782,-0.0024434609804302454
1766054247013611500,110.73661157226563,0.013439035043120384,-0.004886921960860491,-0.015882495790719986
1766054247023591000,110.7465908203125,0.015882495790719986,0.0024434609804302454,-0.045204028487205505
1766054247033600800,110.75660083007813,0,0.01466076634824276,-0.06475171446800232
1766054247043610400,110.7666103515625,0.004886921960860491,0.00855211354792118,-0.08307767659425735
1766054247053589800,110.77658984375,-0.00366519158706069,0.006108652334660292,-0.06352998316287994
1766054247063569000,110.78656884765626,-0.015882495790719986,0.00855211354792118,-0.02321287989616394
1766054247073548000,110.79654809570313,-0.015882495790719986,0.00733038317412138,-0.006108652334660292
1766054247093537300,110.81653735351563,-0.006108652334660292,0.010995574295520782,0.0012217304902151227
1766054247113556700,110.836556640625,-0.0024434609804302454,0.015882495790719986,0.009773843921720982
1766054247123566300,110.84656640625,-0.004886921960860491,0.01710422709584236,0.024434609338641167
1766054247133545700,110.85654565429688,-0.012217304669320583,0.018325956538319588,0.05619960278272629
1766054247143524900,110.86652490234376,-0.019547687843441963,0.019547687843441963,0.08429940044879913
1766054247153534700,110.87653466796876,-0.021991148591041565,0.019547687843441963,0.08429940044879913
1766054247163544600,110.88654467773438,-0.02076941914856434,0.021991148591041565,0.06719517707824707
1766054247173523700,110.89652368164063,-0.018325956538319588,0.024434609338641167,0.05253441259264946
1766054247183564000,110.90656396484376,-0.019547687843441963,0.03420845419168472,0.05375614017248154
1766054247213563000,110.93656298828125,-0.02932153269648552,0.05009094998240471,0.059864792972803116
1766054247223572500,110.94657250976563,-0.0354301854968071,0.04398229718208313,0.06230825558304787
1766054247233552000,110.9565517578125,-0.0354301854968071,0.04398229718208313,0.06230825558304787
1766054247243561500,110.9665615234375,-0.03787364438176155,0.03298672288656235,0.039095375686883926
1766054247253540900,110.97654077148438,-0.0403171069920063,0.025656340643763542,0.036651913076639175
1766054247263520000,110.98652001953126,-0.04153883829712868,0.02321287989616394,0.04398229718208313
1766054247273529900,110.99652978515626,-0.0354301854968071,0.019547687843441963,0.019547687843441963
1766054247283448000,111.00644799804688,-0.025656340643763542,0.01466076634824276,-0.006108652334660292
1766054247303467500,111.02646752929688,-0.009773843921720982,0.006108652334660292,-0.03420845419168472
1766054247313477400,111.03647729492188,-0.006108652334660292,-0.0024434609804302454,-0.04398229718208313
1766054247323487200,111.0464873046875,-0.004886921960860491,-0.00733038317412138,-0.045204028487205505
1766054247333466400,111.05646630859376,-0.00855211354792118,-0.00733038317412138,-0.03298672288656235
1766054247343445500,111.06644555664063,-0.00733038317412138,-0.009773843921720982,-0.039095375686883926
1766054247353455400,111.07645532226563,-0.004886921960860491,-0.00855211354792118,-0.05009094998240471
1766054247363465200,111.08646533203125,0,-0.00733038317412138,-0.05497787147760391
1766054247373474800,111.09647485351563,0.009773843921720982,-0.012217304669320583,-0.08552113175392151
