time,seconds_elapsed,z,y,x
1766054134466112300,-1.8108876953125,0.09576806426048279,-0.08379705995321274,-0.040701430290937424
1766054134476122000,-1.8008779296875,0.1628057211637497,-0.06703764945268631,-0.10055647045373917
1766054134506151400,-1.7708486328125,0.10534487664699554,-0.10055647045373917,-0.05027823522686958
1766054134516161300,-1.760838623046875,0.090979665517807,-0.033518824726343155,0.016759412363171577
1766054134556139300,-1.72086083984375,0.1173158809542656,-0.545877993106842,0.07900865375995636
1766054134566148900,-1.71085107421875,0.2082955539226532,-0.24660277366638184,-0.23942017555236816
1766054134576128300,-1.700871826171875,0.40462008118629456,-0.05506663769483566,-0.15322890877723694
1766054134636064800,-1.640935302734375,0.35673606395721436,-0.07900865375995636,0.1412578970193863
1766054134646105000,-1.63089501953125,0.3519476354122162,-0.08619125932455063,0.090979665517807
1766054134656114700,-1.62088525390625,0.3447650372982025,-0.17477671802043915,-0.009576806798577309
1766054134666124500,-1.61087548828125,0.272938996553421,-0.19632454216480255,-0.05027823522686958
1766054134676073200,-1.6009267578125,0.2777273952960968,0.08379705995321274,0.08858546614646912
1766054134696092700,-1.5809072265625,0.16519992053508759,0.11013327538967133,0.047884032130241394
1766054134716112400,-1.5608876953125,-0.038307227194309235,-0.1604115068912506,0.08858546614646912
1766054134736131800,-1.5408681640625,-0.15801730751991272,-0.2753331959247589,0.047884032130241394
1766054134756090400,-1.52090966796875,-0.2059013396501541,-0.1388636976480484,-0.05027823522686958
1766054134766100200,-1.510899658203125,-0.17477671802043915,-0.07182604819536209,-0.08619125932455063
1766054134776109800,-1.50089013671875,-0.07182604819536209,-0.10295066982507706,-0.0933738648891449
1766054134826097700,-1.45090234375,0.0933738648891449,-0.13407529890537262,-0.16759411990642548
1766054134836107500,-1.440892578125,0.090979665517807,-0.181959331035614,-0.13407529890537262
1766054134846086700,-1.430913330078125,0.16998831927776337,-0.24899697303771973,-0.09576806426048279
1766054134856096500,-1.420903564453125,0.11013327538967133,-0.2801215946674347,-0.11971008777618408
1766054134866106000,-1.410893798828125,0.1412578970193863,-0.16759411990642548,-0.019153613597154617
1766054134876085500,-1.40091455078125,0.22744916379451752,0.06703764945268631,0.033518824726343155
1766054134886095400,-1.390904541015625,0.24660277366638184,0.1173158809542656,-0.009576806798577309
1766054134916124400,-1.36087548828125,0.2777273952960968,-0.002394201699644327,-0.038307227194309235
1766054134926103800,-1.350896240234375,0.17956513166427612,-0.07661445438861847,-0.047884032130241394
1766054134936113700,-1.34088623046875,0.2513911724090576,-0.002394201699644327,-0.07182604819536209
1766054134946123300,-1.330876708984375,0.17238251864910126,-0.15322890877723694,-0.05027823522686958
1766054134956102700,-1.3208974609375,0.21308395266532898,-0.1149216815829277,-0.07422025501728058
1766054134966112300,-1.3108876953125,0.2082955539226532,-0.11971008777618408,-0.07182604819536209
1766054134976091600,-1.300908447265625,0.26096799969673157,-0.05027823522686958,0.002394201699644327
1766054134986101200,-1.290898681640625,0.2346317619085312,-0.05267243832349777,-0.028730420395731926
1766054134996111000,-1.280888916015625,0.2537853717803955,-0.2322375625371933,-0.009576806798577309
1766054135026140400,-1.250859619140625,0.11013327538967133,-0.24660277366638184,0.035913024097681046
1766054135036119600,-1.24088037109375,0.023942016065120697,-0.2513911724090576,0.021547814831137657
1766054135046099000,-1.230901123046875,0.002394201699644327,-0.08858546614646912,-0.05746084079146385
1766054135056139300,-1.22086083984375,-0.016759412363171577,-0.07422025501728058,0.0454898327589035
1766054135066118400,-1.210881591796875,0.004788403399288654,0.021547814831137657,0.031124621629714966
1766054135076067000,-1.200932861328125,-0.002394201699644327,0.023942016065120697,-0.043095629662275314
1766054135086107400,-1.190892578125,0.0071826050989329815,-0.15801730751991272,-0.026336219161748886
1766054135096086800,-1.180913330078125,0.05506663769483566,-0.17717093229293823,-0.05746084079146385
1766054135106035500,-1.170964599609375,-0.033518824726343155,-0.14604631066322327,-0.1149216815829277
1766054135125963500,-1.151036376953125,0.043095629662275314,-0.10773907601833344,-0.11971008777618408
1766054135136003600,-1.140996337890625,0.05506663769483566,0.07422025501728058,-0.07422025501728058
1766054135145983000,-1.13101708984375,0.15562310814857483,0.05027823522686958,-0.014365210197865963
1766054135155962000,-1.121037841796875,0.1412578970193863,-0.05027823522686958,-0.15083470940589905
1766054135165972000,-1.111028076171875,0.12928688526153564,-0.14604631066322327,-0.07900865375995636
1766054135176012300,-1.10098779296875,0.08858546614646912,-0.21787235140800476,-0.08858546614646912
1766054135185991400,-1.091008544921875,0.07422025501728058,-0.17717093229293823,-0.18914192914962769
1766054135195970800,-1.081029296875,0.06464344263076782,-0.12449848651885986,0
1766054135205980400,-1.07101953125,0.09816227108240128,-0.0454898327589035,0.035913024097681046
1766054135215959800,-1.061040283203125,0.16519992053508759,0.014365210197865963,0.08140286058187485
1766054135245928000,-1.031072021484375,0.181959331035614,-0.031124621629714966,0.002394201699644327
1766054135255937800,-1.021062255859375,0.19632454216480255,-0.19632454216480255,-0.016759412363171577
1766054135265917000,-1.0110830078125,0.19871874153614044,-0.19153612852096558,-0.0694318488240242
1766054135275835100,-1.001164794921875,0.16759411990642548,-0.1173158809542656,-0.002394201699644327
1766054135285845000,-0.991155029296875,0.1364694982767105,-0.12928688526153564,0.014365210197865963
1766054135295824100,-0.98117578125,0.15562310814857483,-0.004788403399288654,0.035913024097681046
1766054135305834000,-0.971166015625,0.12449848651885986,-0.047884032130241394,-0.0071826050989329815
1766054135315843800,-0.96115625,0.181959331035614,-0.031124621629714966,0.004788403399288654
1766054135345842400,-0.931157470703125,0.0933738648891449,-0.19393034279346466,-0.026336219161748886
1766054135365801000,-0.911198974609375,0.004788403399288654,-0.14844051003456116,-0.05985504388809204
1766054135385820700,-0.891179443359375,0.06703764945268631,0.17717093229293823,-0.06464344263076782
1766054135395830300,-0.881169677734375,0.1412578970193863,0.08379705995321274,0.0071826050989329815
1766054135405809700,-0.8711904296875,0.12449848651885986,0,-0.009576806798577309
1766054135415819300,-0.8611806640625,0.1604115068912506,-0.16519992053508759,-0.1173158809542656
1766054135425798700,-0.851201416015625,0.0071826050989329815,-0.31124621629714966,-0.10055647045373917
1766054135435808300,-0.841191650390625,0.002394201699644327,-0.26096799969673157,-0.047884032130241394
1766054135455766800,-0.821233154296875,0.10773907601833344,-0.08858546614646912,-0.06224924325942993
1766054135465807000,-0.81119287109375,0.12210428714752197,0.047884032130241394,-0.028730420395731926
1766054135475786500,-0.801213623046875,0.12928688526153564,0.009576806798577309,0.033518824726343155
1766054135485796000,-0.791203857421875,0.1388636976480484,-0.1149216815829277,0.014365210197865963
1766054135495745000,-0.7812548828125,0.08379705995321274,-0.1388636976480484,0.002394201699644327
1766054135505724200,-0.77127587890625,0.08858546614646912,-0.20111294090747833,0.031124621629714966
1766054135515734000,-0.761265869140625,0.07661445438861847,-0.23942017555236816,-0.028730420395731926
1766054135525713200,-0.751286865234375,0.14604631066322327,-0.16759411990642548,0.014365210197865963
1766054135535753500,-0.74124658203125,0.10534487664699554,-0.12449848651885986,-0.0454898327589035
1766054135545732600,-0.731267333984375,0.1364694982767105,-0.09576806426048279,-0.05267243832349777
1766054135565721600,-0.7112783203125,0.10534487664699554,-0.07182604819536209,0.033518824726343155
1766054135575762000,-0.701238037109375,0.14844051003456116,-0.08858546614646912,-0.028730420395731926
1766054135585741300,-0.6912587890625,0.12210428714752197,-0.16759411990642548,-0.0071826050989329815
1766054135595751000,-0.6812490234375,0.12689268589019775,-0.1628057211637497,-0.0071826050989329815
1766054135605730300,-0.671269775390625,-0.033518824726343155,-0.2777273952960968,-0.040701430290937424
1766054135615740000,-0.661260009765625,0.0933738648891449,-0.19153612852096558,-0.090979665517807
1766054135635759600,-0.641240478515625,0.08140286058187485,-0.14844051003456116,-0.016759412363171577
1766054135645738800,-0.63126123046875,0.19632454216480255,-0.009576806798577309,-0.07661445438861847
1766054135665758200,-0.61124169921875,0.11252748221158981,0.028730420395731926,0
1766054135675768000,-0.60123193359375,0.023942016065120697,-0.12449848651885986,-0.06464344263076782
1766054135685716700,-0.591283203125,-0.07182604819536209,-0.181959331035614,-0.019153613597154617
1766054135695726600,-0.5812734375,-0.026336219161748886,-0.26815059781074524,-0.08619125932455063
1766054135705705700,-0.571294189453125,-0.026336219161748886,-0.21308395266532898,-0.08858546614646912
1766054135715685000,-0.56131494140625,0.10534487664699554,-0.12210428714752197,-0.09576806426048279
1766054135725664300,-0.551335693359375,0.12689268589019775,-0.026336219161748886,-0.019153613597154617
1766054135735674000,-0.541325927734375,0.0694318488240242,-0.07900865375995636,-0.040701430290937424
1766054135755693600,-0.521306396484375,0.031124621629714966,0.014365210197865963,-0.038307227194309235
1766054135795641000,-0.48135888671875,0.19393034279346466,-0.22026655077934265,-0.023942016065120697
1766054135805651000,-0.47134912109375,0.17238251864910126,-0.016759412363171577,-0.05746084079146385
1766054135815630000,-0.461369873046875,0.13407529890537262,-0.031124621629714966,0.019153613597154617
1766054135825609500,-0.451390625,0.181959331035614,0.07661445438861847,-0.026336219161748886
1766054135835588600,-0.441411376953125,0.12689268589019775,0.028730420395731926,-0.038307227194309235
1766054135845568000,-0.431431884765625,0.12449848651885986,-0.11971008777618408,-0.016759412363171577
1766054135855608000,-0.421391845703125,0.13407529890537262,-0.12210428714752197,-0.043095629662275314
1766054135895586300,-0.38141357421875,0.19871874153614044,-0.031124621629714966,-0.047884032130241394
1766054135905596000,-0.371404052734375,0.17956513166427612,-0.1149216815829277,-0.05267243832349777
1766054135915605800,-0.361394287109375,0.1149216815829277,-0.033518824726343155,-0.040701430290937424
1766054135925585000,-0.3514150390625,0.09816227108240128,-0.07422025501728058,-0.011971008032560349
1766054136005663200,-0.271336669921875,0.12210428714752197,-0.10534487664699554,-0.021547814831137657
1766054136025621500,-0.25137841796875,0.08619125932455063,-0.12928688526153564,-0.05267243832349777
1766054136035631400,-0.24136865234375,0.0454898327589035,-0.2082955539226532,0.028730420395731926
1766054136045580000,-0.231419921875,0.0454898327589035,-0.18914192914962769,-0.11252748221158981
1766054136055559400,-0.221440673828125,0.038307227194309235,-0.17956513166427612,-0.009576806798577309
1766054136065538600,-0.21146142578125,0.12449848651885986,0.028730420395731926,-0.021547814831137657
1766054136085527600,-0.191472412109375,0.1364694982767105,-0.10534487664699554,-0.043095629662275314
1766054136115526400,-0.1614736328125,0.06703764945268631,-0.2513911724090576,-0.06703764945268631
1766054136125536300,-0.151463623046875,0.15801730751991272,-0.13168109953403473,0
1766054136135545900,-0.1414541015625,0.21308395266532898,-0.14365209639072418,-0.009576806798577309
1766054136145525200,-0.131474853515625,0.08140286058187485,-0.0454898327589035,-0.009576806798577309
1766054136155534800,-0.121465087890625,0.08619125932455063,-0.1149216815829277,-0.009576806798577309
1766054136165514200,-0.11148583984375,-0.016759412363171577,-0.24420857429504395,0.10295066982507706
1766054136175554600,-0.101445556640625,0.035913024097681046,-0.2322375625371933,0.031124621629714966
1766054136205553200,-0.07144677734375,0.08379705995321274,0.06464344263076782,-0.08858546614646912
1766054136225511700,-0.05148828125,0.13168109953403473,-0.11013327538967133,-0.05027823522686958
1766054136235521500,-0.041478515625,0.13407529890537262,-0.11013327538967133,-0.05027823522686958
1766054136245500700,-0.031499267578125,0.1412578970193863,-0.15322890877723694,-0.13168109953403473
1766054136255480000,-0.02152001953125,0.1604115068912506,-0.2082955539226532,-0.07182604819536209
1766054136265489700,-0.01151025390625,0.181959331035614,-0.14604631066322327,-0.033518824726343155
1766054136275469000,-0.001531005859375,0.0694318488240242,-0.10534487664699554,-0.019153613597154617
1766054136285448200,0.0084482421875,-0.011971008032560349,-0.0933738648891449,0.031124621629714966
1766054136295488500,0.018488525390625,-0.002394201699644327,-0.21308395266532898,0.038307227194309235
1766054136315416600,0.03841650390625,0.035913024097681046,-0.17717093229293823,0.047884032130241394
1766054136325426200,0.04842626953125,0.08140286058187485,-0.047884032130241394,-0.004788403399288654
1766054136335436000,0.05843603515625,0.06224924325942993,-0.05746084079146385,-0.031124621629714966
1766054136345446000,0.06844580078125,0.07422025501728058,-0.11252748221158981,0.011971008032560349
1766054136355425000,0.078425048828125,0.14604631066322327,-0.019153613597154617,-0.047884032130241394
1766054136365404400,0.088404296875,0.08858546614646912,-0.07422025501728058,0
1766054136375414000,0.0984140625,0.12689268589019775,-0.040701430290937424,-0.031124621629714966
1766054136385393400,0.108393310546875,0.17717093229293823,-0.11013327538967133,-0.026336219161748886
1766054136435381200,0.15838134765625,0.1412578970193863,-0.0454898327589035,-0.05027823522686958
1766054136455339500,0.178339599609375,0.09576806426048279,-0.06464344263076782,-0.026336219161748886
1766054136465379800,0.1883798828125,0.05746084079146385,-0.0454898327589035,-0.038307227194309235
1766054136475359200,0.198359130859375,0.040701430290937424,-0.14365209639072418,-0.047884032130241394
1766054136485338400,0.20833837890625,0.1412578970193863,-0.08140286058187485,-0.05267243832349777
1766054136495348200,0.21834814453125,0.16759411990642548,-0.14604631066322327,-0.08858546614646912
1766054136505327400,0.228327392578125,0.05746084079146385,-0.16998831927776337,-0.021547814831137657
1766054136515306800,0.238306640625,0.12689268589019775,-0.12210428714752197,-0.10295066982507706
1766054136525316400,0.24831640625,0.17477671802043915,-0.10055647045373917,-0.011971008032560349
1766054136535326200,0.258326171875,0.10295066982507706,-0.11013327538967133,-0.021547814831137657
1766054136545336000,0.268336181640625,0.1388636976480484,-0.10773907601833344,-0.047884032130241394
1766054136555315200,0.278315185546875,0.031124621629714966,-0.09816227108240128,-0.021547814831137657
1766054136565294300,0.28829443359375,0.047884032130241394,-0.014365210197865963,-0.07182604819536209
1766054136575273700,0.298273681640625,0.06464344263076782,-0.09576806426048279,-0.07182604819536209
1766054136595293200,0.318293212890625,0.035913024097681046,-0.21547815203666687,-0.0454898327589035
1766054136615313000,0.33831298828125,0.06464344263076782,-0.1604115068912506,-0.11252748221158981
1766054136635271200,0.358271240234375,0.07661445438861847,-0.08379705995321274,-0.05267243832349777
1766054136645250600,0.36825048828125,0.033518824726343155,-0.16998831927776337,-0.1173158809542656
1766054136655260200,0.37826025390625,0.06703764945268631,-0.1843535304069519,-0.07182604819536209
1766054136665270000,0.38827001953125,0.1412578970193863,-0.16759411990642548,-0.028730420395731926
1766054136675249400,0.39824951171875,0.22505496442317963,-0.009576806798577309,-0.07900865375995636
1766054136685228500,0.408228515625,0.21787235140800476,0,-0.023942016065120697
1766054136695238400,0.41823828125,0.1388636976480484,0.0071826050989329815,0.05985504388809204
1766054136705217500,0.428217529296875,0.12210428714752197,-0.12928688526153564,0.06224924325942993
1766054136725206500,0.44820654296875,0.1149216815829277,-0.24420857429504395,0.10295066982507706
1766054136765123600,0.48812353515625,0.3495534360408783,-0.2801215946674347,-0.8379706144332886
1766054136775164000,0.498163818359375,0.16998831927776337,0.08379705995321274,0.10295066982507706
1766054136785143000,0.50814306640625,0.19871874153614044,-0.19871874153614044,-0.11252748221158981
1766054136795122400,0.518122314453125,0.12210428714752197,-0.3974374830722809,-0.19153612852096558
1766054136805101600,0.5281015625,0.07182604819536209,-0.29209262132644653,-0.11013327538967133
1766054136815111400,0.538111328125,0.08379705995321274,-0.3687070608139038,-0.13168109953403473
1766054136845079600,0.56807958984375,0.1843535304069519,0.090979665517807,-0.038307227194309235
1766054136855059000,0.578058837890625,0.17956513166427612,0.08858546614646912,-0.038307227194309235
1766054136865038000,0.5880380859375,0.1149216815829277,0.21308395266532898,-0.05746084079146385
1766054136875017500,0.598017578125,0.12928688526153564,0.0933738648891449,-0.0694318488240242
1766054136884996600,0.60799658203125,0.011971008032560349,-0.05985504388809204,-0.11971008777618408
1766054136895037000,0.618036865234375,0.035913024097681046,0.004788403399288654,-0.13407529890537262
1766054136905046800,0.628046875,0.07422025501728058,0.10773907601833344,-0.038307227194309235
1766054136915026000,0.63802587890625,0.24660277366638184,0.13168109953403473,-0.16759411990642548
1766054136935015000,0.658014892578125,0.6105214357376099,1.2401964664459229,-0.1604115068912506
1766054136965013800,0.688013671875,1.1851298809051514,3.090914487838745,-0.42616790533065796
1766054136975054000,0.69805419921875,1.161187767982483,3.050212860107422,-0.2059013396501541
1766054136985063700,0.708063720703125,1.1875240802764893,3.2585084438323975,-0.17956513166427612
1766054136995043000,0.71804296875,1.1085153818130493,2.3367409706115723,-0.12449848651885986
1766054137005022200,0.728022216796875,0.9672574996948242,1.522712230682373,-0.19393034279346466
1766054137015032000,0.738031982421875,0.6392518281936646,0.9983820915222168,-0.5051765441894531
1766054137025041700,0.748041748046875,0.33518823981285095,0.6631938815116882,-0.727837324142456
1766054137035021000,0.75802099609375,-0.043095629662275314,0.3687070608139038,-0.8834604024887085
1766054137065020000,0.78802001953125,-0.040701430290937424,0.5003881454467773,-0.9481038451194763
1766054137074999000,0.7979990234375,-0.3926490843296051,0.040701430290937424,-1.1252747774124146
1766054137084978200,0.807978271484375,-0.9888052940368652,-0.6967126727104187,-1.1180921792984009
1766054137094988000,0.817988037109375,-1.7597382068634033,-1.173158884048462,-0.9361328482627869
1766054137104967400,0.827967529296875,-2.5785553455352783,-1.6735470294952393,-0.6368576288223267
1766054137114946600,0.837946533203125,-3.227383852005005,-1.920149803161621,-0.6631938815116882
1766054137124956400,0.847956298828125,-3.955221176147461,-3.0142998695373535,-0.2825157940387726
1766054137134935600,0.857935546875,-4.333505153656006,-3.5649664402008057,-0.2585737705230713
1766054137154955000,0.877955078125,-4.271255970001221,-2.6815059185028076,-0.1173158809542656
1766054137164934400,0.887934326171875,-3.73016619682312,-2.2170307636260986,-0.304063618183136
1766054137174974700,0.897974609375,-3.6822822093963623,-1.6759412288665771,-0.33518823981285095
1766054137184953900,0.907953857421875,-3.8810009956359863,-1.479616641998291,-0.023942016065120697
1766054137194933200,0.917933349609375,-3.9600095748901367,-0.5171475410461426,0.1173158809542656
1766054137204912400,0.927912353515625,-3.8139634132385254,-1.137245774269104,0.24660277366638184
1766054137214922200,0.937922119140625,-3.584120035171509,-0.9433154463768005,0.31124621629714966
1766054137224931800,0.947931884765625,-3.88818359375,-0.6033388376235962,0.35673606395721436
1766054137234911200,0.9579111328125,-4.10366153717041,-0.5051765441894531,0.26575639843940735
1766054137244920800,0.9679208984375,-3.818751811981201,-0.5171475410461426,0.5554547905921936
1766054137254869800,0.977869873046875,-3.0789434909820557,-0.11971008777618408,0.090979665517807
1766054137274919700,0.997919677734375,-2.9448680877685547,-0.9002198576927185,-0.10295066982507706
1766054137284899000,1.007899169921875,-2.80361008644104,-0.09816227108240128,-0.090979665517807
1766054137294908700,1.01790869140625,-2.477998733520508,-0.8427590131759644,0
1766054137304918500,1.02791845703125,-2.691082715988159,-1.0845733880996704,0.019153613597154617
1766054137314897700,1.037897705078125,-2.1954829692840576,-1.6879122257232666,0.002394201699644327
1766054137324877000,1.047876953125,-1.8818424940109253,-1.5873557329177856,-0.028730420395731926
1766054137334917400,1.05791748046875,-1.8171991109848022,-1.3886369466781616,-0.07900865375995636
1766054137344896500,1.067896484375,-1.7884687185287476,-1.6927006244659424,0.07182604819536209
1766054137354906400,1.07790625,-1.2689268589019775,-1.0821791887283325,-0.06464344263076782
1766054137374925800,1.09792578125,-1.501164436340332,-0.0933738648891449,0.10295066982507706
1766054137384905000,1.107905029296875,-1.1827356815338135,1.0462661981582642,0.5889736413955688
1766054137394884400,1.11788427734375,-1.7070658206939697,0.608127236366272,0.507570743560791
1766054137404863500,1.127863525390625,-1.6543933153152466,0.6129156351089478,0.5554547905921936
1766054137414903800,1.13790380859375,-1.2976573705673218,0.23702596127986908,0.646434485912323
1766054137424913700,1.14791357421875,-1.0319008827209473,-0.2968810200691223,0.4189853072166443
1766054137434862300,1.1578623046875,-0.6033388376235962,-0.3687070608139038,0.7852981686592102
1766054137444902700,1.167902587890625,-0.5913678407669067,0.14365209639072418,0.7637503147125244
1766054137464922000,1.187922119140625,-0.2992752194404602,0.3974374830722809,0.7422025203704834
1766054137474870800,1.197870849609375,0.1604115068912506,0.17477671802043915,0.5722141861915588
1766054137484880600,1.207880615234375,0.5315127968788147,0.2801215946674347,0.42377370595932007
1766054137494921000,1.2179208984375,0.5482721924781799,0.2849099934101105,0.3878606855869293
1766054137504900000,1.227900146484375,0.8954314589500427,0.4620809257030487,0.1149216815829277
1766054137514910000,1.237909912109375,0.6368576288223267,0.16519992053508759,-0.038307227194309235
1766054137524889000,1.24788916015625,0.4836287498474121,-0.040701430290937424,-0.09816227108240128
1766054137534868500,1.257868408203125,0.5027823448181152,1.41257905960083,0.2777273952960968
1766054137544878000,1.267878173828125,1.0893617868423462,-0.2322375625371933,-0.31603461503982544
1766054137554888000,1.277887939453125,1.3215993642807007,-0.6248866319656372,-0.11252748221158981
1766054137594896400,1.317896484375,0.8523358106613159,-1.3287819623947144,-0.13407529890537262
1766054137614855000,1.33785498046875,0.9169792532920837,-0.7781155705451965,-0.38546648621559143
1766054137624864800,1.34786474609375,0.4812345504760742,-0.33039984107017517,-0.31842881441116333
1766054137634844000,1.357843994140625,0.11252748221158981,0.014365210197865963,-0.49559974670410156
1766054137644853800,1.367853759765625,-0.2513911724090576,0.10295066982507706,-0.586579442024231
1766054137654863600,1.377863525390625,-0.38067805767059326,-0.15562310814857483,-0.40940847992897034
1766054137664842800,1.3878427734375,-0.7948749661445618,-0.8619126081466675,-0.43095630407333374
1766054137694811100,1.41781103515625,-0.7445967197418213,-1.4245500564575195,-0.667982280254364
1766054137704851500,1.4278515625,-0.07422025501728058,-0.15801730751991272,-0.6823474764823914
1766054137714861000,1.437861083984375,0.5817909836769104,1.0342950820922852,-0.5195417404174805
1766054137724840400,1.44784033203125,0.181959331035614,0.586579442024231,-0.44532153010368347
1766054137734880800,1.457880859375,-0.12928688526153564,0.7757213711738586,-0.28730419278144836
1766054137744890400,1.467890380859375,-0.5650315880775452,-0.1843535304069519,-0.05027823522686958
1766054137754869800,1.477869873046875,-0.6775590777397156,-0.6320692300796509,-0.27054479718208313
1766054137764879400,1.48787939453125,-0.1412578970193863,-0.8738836050033569,-0.1388636976480484
1766054137794847700,1.51784765625,0.8259995579719543,0.9983820915222168,-0.08140286058187485
1766054137804796400,1.52779638671875,0.9624691009521484,0.4884171485900879,-0.026336219161748886
1766054137814806300,1.53780615234375,0.9193734526634216,-0.05027823522686958,0.10295066982507706
1766054137824785400,1.547785400390625,0.629675030708313,-0.24420857429504395,-0.08619125932455063
1766054137844804900,1.567804931640625,1.0797849893569946,-0.6847416758537292,0.021547814831137657
1766054137854814700,1.577814697265625,0.9265560507774353,0.1149216815829277,0.14844051003456116
1766054137864793900,1.5877939453125,0.7948749661445618,0.6224924325942993,0.2992752194404602
1766054137874803700,1.5978037109375,0.6440402865409851,0.1843535304069519,0.40462008118629456
1766054137894823200,1.6178232421875,0.38067805767059326,-0.3902548849582672,0.40462008118629456
1766054137904833000,1.6278330078125,0.3711012601852417,-0.7996633648872375,0.40701428055763245
1766054137914812200,1.637812255859375,0.3758896589279175,-0.27054479718208313,0.28969839215278625
1766054137924822000,1.647822021484375,0.9050082564353943,0.2106897532939911,0.43335050344467163
1766054137934831900,1.657831787109375,0.8355764150619507,0.3926490843296051,0.3423708379268646
1766054137944811000,1.66781103515625,0.6727706789970398,0.6129156351089478,0.35913026332855225
1766054137954820900,1.67782080078125,0.3447650372982025,-0.002394201699644327,0.17717093229293823
1766054137964830700,1.687830810546875,0.3926490843296051,0.10295066982507706,0.047884032130241394
1766054137974840300,1.69784033203125,0.26096799969673157,-0.24420857429504395,0.15562310814857483
1766054138004778000,1.727778076171875,-0.2849099934101105,-0.5722141861915588,0.05985504388809204
1766054138014818300,1.737818359375,-0.6512228846549988,-0.5386953949928284,-0.08858546614646912
1766054138024797700,1.747797607421875,-0.5913678407669067,-0.3926490843296051,-0.004788403399288654
1766054138034776800,1.75777685546875,-0.6607996821403503,-0.507570743560791,-0.12928688526153564
1766054138044786700,1.76778662109375,-0.5530605912208557,-1.1659762859344482,-0.3232172429561615
1766054138054827000,1.777826904296875,-0.10773907601833344,-0.3878606855869293,-0.33758243918418884
1766054138064836600,1.787836669921875,0.2346317619085312,-0.22266076505184174,-0.2849099934101105
1766054138074846500,1.797846435546875,0.26096799969673157,-0.19871874153614044,-0.26336219906806946
1766054138094866000,1.817865966796875,-0.033518824726343155,0.1173158809542656,-0.026336219161748886
1766054138104875800,1.827875732421875,-0.10534487664699554,0.2992752194404602,0.06224924325942993
1766054138114824400,1.837824462890625,-0.2346317619085312,0.19393034279346466,0.09576806426048279
1766054138124803800,1.847803955078125,-0.23942017555236816,0.21787235140800476,0.07900865375995636
1766054138134813400,1.8578134765625,-0.2322375625371933,0.21787235140800476,0.07182604819536209
1766054138144823300,1.8678232421875,-0.0933738648891449,0.10773907601833344,0.0933738648891449
1766054138154772000,1.87777197265625,-0.06464344263076782,-0.05267243832349777,-0.13168109953403473
1766054138164781800,1.88778173828125,0.1628057211637497,0.08379705995321274,-0.1149216815829277
1766054138174791400,1.89779150390625,0.23702596127986908,0.304063618183136,-0.08379705995321274
1766054138184801300,1.90780126953125,0.20350714027881622,0.47165772318840027,-0.10055647045373917
1766054138194750000,1.91775,0.14844051003456116,0.27054479718208313,-0.07900865375995636
1766054138224779300,1.947779296875,-0.07900865375995636,-0.29209262132644653,0.05267243832349777
1766054138234758700,1.957758544921875,-0.06224924325942993,0.12689268589019775,0.08858546614646912
1766054138244799000,1.967799072265625,0.019153613597154617,0.20350714027881622,0.09576806426048279
1766054138254778000,1.977778076171875,-0.023942016065120697,0.033518824726343155,0.026336219161748886
1766054138264818400,1.987818359375,0.11252748221158981,-0.16998831927776337,0.11013327538967133
1766054138274828000,1.997828125,0.13168109953403473,-0.2825157940387726,0.07900865375995636
1766054138284807400,2.007807373046875,0.1604115068912506,-0.23942017555236816,0.021547814831137657
1766054138314836700,2.037836669921875,0.06464344263076782,-0.15083470940589905,0.08619125932455063
1766054138324846300,2.047846435546875,0.19632454216480255,-0.1628057211637497,0.14604631066322327
1766054138334856200,2.057856201171875,0.26815059781074524,-0.3471592366695404,0.07182604819536209
1766054138344835600,2.067835693359375,0.3064578175544739,-0.4381389021873474,0.10055647045373917
1766054138354845200,2.07784521484375,0.26575639843940735,-0.29209262132644653,0.002394201699644327
1766054138364824600,2.087824462890625,0.24660277366638184,-0.06703764945268631,0.014365210197865963
1766054138374865000,2.097864990234375,0.16759411990642548,-0.08619125932455063,0.0454898327589035
1766054138384844000,2.107843994140625,0.09576806426048279,-0.12928688526153564,0.047884032130241394
1766054138394854000,2.11785400390625,0.031124621629714966,0.07182604819536209,0.05027823522686958
1766054138424852500,2.1478525390625,-0.06464344263076782,-0.07422025501728058,-0.09576806426048279
1766054138434832000,2.157831787109375,-0.033518824726343155,0.019153613597154617,-0.035913024097681046
1766054138444811000,2.16781103515625,-0.23702596127986908,-0.002394201699644327,-0.05746084079146385
1766054138454851300,2.177851318359375,-0.24420857429504395,-0.20111294090747833,0.0694318488240242
1766054138464830700,2.187830810546875,-0.4692635238170624,-0.2513911724090576,0.05506663769483566
1766054138484789000,2.2077890625,-0.35673606395721436,0.07182604819536209,0.09816227108240128
1766054138494798800,2.217798828125,-0.304063618183136,0.1173158809542656,0.13168109953403473
1766054138504778000,2.227778076171875,-0.2777273952960968,-0.20111294090747833,0.07900865375995636
1766054138554796300,2.27779638671875,0.26815059781074524,-0.07661445438861847,-0.0071826050989329815
1766054138564775700,2.287775634765625,0.021547814831137657,-0.08379705995321274,-0.033518824726343155
1766054138574816000,2.29781591796875,-0.14365209639072418,-0.047884032130241394,-0.038307227194309235
1766054138584825600,2.30782568359375,-0.2561795711517334,-0.090979665517807,0
1766054138594835500,2.31783544921875,-0.3280056416988373,-0.22744916379451752,-0.028730420395731926
1766054138604814800,2.32781494140625,-0.363918662071228,-0.2753331959247589,-0.12928688526153564
1766054138634844000,2.357843994140625,0.08858546614646912,0.19153612852096558,-0.10534487664699554
1766054138644792800,2.367792724609375,0.10055647045373917,0.3926490843296051,-0.1604115068912506
1766054138654833200,2.377833251953125,0.09576806426048279,0.14844051003456116,-0.05746084079146385
1766054138664842800,2.3878427734375,0.13407529890537262,0.09816227108240128,0.0454898327589035
1766054138674822100,2.397822265625,0.15801730751991272,0.031124621629714966,0.031124621629714966
1766054138684801300,2.40780126953125,0.035913024097681046,-0.1412578970193863,-0.016759412363171577
1766054138694811100,2.41781103515625,-0.0694318488240242,-0.08379705995321274,0.002394201699644327
1766054138704790300,2.427790283203125,-0.035913024097681046,-0.0454898327589035,0.026336219161748886
1766054138714769700,2.437769775390625,0.05746084079146385,-0.023942016065120697,-0.06464344263076782
1766054138724779300,2.447779296875,0.21547815203666687,0.21547815203666687,-0.004788403399288654
1766054138744768300,2.467768310546875,-0.026336219161748886,-0.08858546614646912,0.033518824726343155
1766054138754717200,2.47771728515625,-0.09816227108240128,-0.1867477297782898,0.047884032130241394
1766054138764696300,2.4876962890625,-0.22026655077934265,-0.2825157940387726,-0.0454898327589035
1766054138774706200,2.4977060546875,-0.22266076505184174,-0.2825157940387726,-0.043095629662275314
1766054138784685300,2.507685302734375,-0.13407529890537262,-0.36152446269989014,-0.05267243832349777
1766054138794695200,2.517695068359375,-0.14365209639072418,-0.3280056416988373,-0.038307227194309235
1766054138804704800,2.527704833984375,-0.0933738648891449,-0.33039984107017517,0.002394201699644327
1766054138814714600,2.537714599609375,-0.1364694982767105,-0.2106897532939911,0.08140286058187485
1766054138824724500,2.547724365234375,-0.10773907601833344,0.08140286058187485,-0.07661445438861847
1766054138834703600,2.55770361328125,-0.040701430290937424,0.24420857429504395,0
1766054138864702500,2.587702392578125,0.17956513166427612,-0.33758243918418884,-0.019153613597154617
1766054138874712000,2.597712158203125,0.20350714027881622,-0.3878606855869293,-0.1173158809542656
1766054138884691500,2.60769140625,0.13407529890537262,-0.45489832758903503,-0.2106897532939911
1766054138894731800,2.617731689453125,0.15083470940589905,-0.4118026793003082,-0.181959331035614
1766054138904711000,2.6277109375,-0.002394201699644327,-0.06224924325942993,-0.12449848651885986
1766054138914720800,2.637720703125,-0.07182604819536209,0.07900865375995636,-0.16519992053508759
1766054138924730400,2.64773046875,0.2298433631658554,0.28730419278144836,-0.09576806426048279
1766054138944719600,2.6677197265625,0.15083470940589905,0.09816227108240128,0.05267243832349777
1766054138954729200,2.677729248046875,0.05746084079146385,-0.06224924325942993,0.038307227194309235
1766054138984697600,2.707697509765625,0.18914192914962769,-0.5554547905921936,-0.08858546614646912
1766054138994707200,2.717707275390625,0.14365209639072418,-0.6584054827690125,-0.17477671802043915
1766054139004717000,2.727717041015625,0.49559974670410156,-0.0071826050989329815,-0.12928688526153564
1766054139014727000,2.737726806640625,0.42377370595932007,-0.08619125932455063,-0.18914192914962769
1766054139024706000,2.7477060546875,0.2849099934101105,-0.1149216815829277,-0.24420857429504395
1766054139034716000,2.7577158203125,0.31842881441116333,-0.14844051003456116,-0.18914192914962769
1766054139064714800,2.78771484375,0.08858546614646912,-0.4118026793003082,-0.07900865375995636
1766054139074694000,2.79769384765625,-0.24420857429504395,-0.43095630407333374,-0.12449848651885986
1766054139084703700,2.807703857421875,-0.3016694188117981,-0.1173158809542656,-0.040701430290937424
1766054139094683000,2.817682861328125,-0.26336219906806946,0.31124621629714966,-0.047884032130241394
1766054139104662000,2.827662109375,-0.20111294090747833,0.24899697303771973,0.0694318488240242
1766054139114671900,2.837671875,-0.1173158809542656,0.2801215946674347,0.17717093229293823
1766054139124651300,2.8476513671875,0.004788403399288654,0.2298433631658554,0.11013327538967133
1766054139134691300,2.85769140625,-0.05267243832349777,0.040701430290937424,0.043095629662275314
1766054139174669600,2.897669677734375,0.2777273952960968,-0.10534487664699554,-0.040701430290937424
1766054139184679200,2.90767919921875,0.4836287498474121,0.2059013396501541,-0.026336219161748886
1766054139194719500,2.917719482421875,0.5147533416748047,0.569819986820221,0.05746084079146385
1766054139204699000,2.927698974609375,0.42856210470199585,0.23942017555236816,0.26336219906806946
1766054139214739000,2.937739013671875,0.15801730751991272,0.16998831927776337,0.1412578970193863
1766054139224748800,2.947748779296875,0.2825157940387726,-0.09816227108240128,0.181959331035614
1766054139234728000,2.95772802734375,0.3280056416988373,-0.17477671802043915,0.08619125932455063
1766054139274706200,2.9977060546875,0.3495534360408783,-0.026336219161748886,-0.1843535304069519
1766054139284715800,3.0077158203125,0.545877993106842,0.2825157940387726,-0.12928688526153564
1766054139294695200,3.017695068359375,0.4141969084739685,0.06224924325942993,0.05267243832349777
1766054139304674300,3.02767431640625,0.11252748221158981,-0.35434186458587646,0.05027823522686958
1766054139314684200,3.03768408203125,-0.026336219161748886,-0.4836287498474121,-0.05027823522686958
1766054139324663300,3.047663330078125,-0.0694318488240242,-0.45250412821769714,-0.16759411990642548
1766054139334673200,3.057673095703125,-0.14604631066322327,-0.3256114423274994,-0.26096799969673157
1766054139344652300,3.06765234375,-0.12449848651885986,-0.22026655077934265,-0.1628057211637497
1766054139384661000,3.107660888671875,-0.05027823522686958,0.26336219906806946,0.0454898327589035
1766054139394609700,3.117609619140625,-0.002394201699644327,0.13168109953403473,0.05267243832349777
1766054139404619500,3.12761962890625,-0.12210428714752197,0.021547814831137657,0.10534487664699554
1766054139414568200,3.137568115234375,-0.05506663769483566,-0.1364694982767105,0.1149216815829277
1766054139424577800,3.147577880859375,-0.05267243832349777,-0.1364694982767105,0.1149216815829277
1766054139434587600,3.157587646484375,0.016759412363171577,-0.1604115068912506,0.06224924325942993
1766054139444628000,3.1676279296875,0.07182604819536209,-0.035913024097681046,0
1766054139454576600,3.17757666015625,0.24181437492370605,0.19153612852096558,-0.07900865375995636
1766054139484606000,3.20760595703125,-0.22505496442317963,-0.667982280254364,0.06224924325942993
1766054139494554600,3.2175546875,0.42616790533065796,0.031124621629714966,0
1766054139504534000,3.227533935546875,-0.49320554733276367,-0.4908113479614258,-0.19153612852096558
1766054139514543600,3.237543701171875,0.37828385829925537,1.2330138683319092,-0.026336219161748886
1766054139524523000,3.24752294921875,0.3495534360408783,0.42856210470199585,-0.395043283700943
1766054139534532900,3.257532958984375,0.3687070608139038,0.21547815203666687,-0.26336219906806946
1766054139554521900,3.27752197265625,0.22266076505184174,0.2561795711517334,-0.11971008777618408
1766054139594499800,3.317499755859375,-0.2944868206977844,-0.27054479718208313,-0.19393034279346466
1766054139614488800,3.33748876953125,-0.2537853717803955,-0.6703764796257019,-0.033518824726343155
1766054139624498700,3.347498779296875,-0.1412578970193863,-0.5506663918495178,0.019153613597154617
1766054139634477800,3.357477783203125,-0.019153613597154617,-0.35913026332855225,0.06224924325942993
1766054139644487700,3.36748779296875,0.05746084079146385,-0.33039984107017517,0.09816227108240128
1766054139654497300,3.377497314453125,0.06703764945268631,-0.1628057211637497,0.11013327538967133
1766054139664476700,3.3874765625,0.14365209639072418,-0.043095629662275314,0.0694318488240242
1766054139674455800,3.397455810546875,0.1388636976480484,0.090979665517807,0.10534487664699554
1766054139704515600,3.427515625,-0.15083470940589905,-0.06464344263076782,0.19153612852096558
1766054139724596200,3.44759619140625,-0.0454898327589035,-0.20350714027881622,0.043095629662275314
1766054139734545000,3.457544921875,-0.031124621629714966,-0.047884032130241394,0
1766054139744524300,3.467524169921875,-0.05506663769483566,-0.17238251864910126,-0.038307227194309235
1766054139754534000,3.477533935546875,-0.026336219161748886,-0.26815059781074524,-0.05746084079146385
1766054139764574200,3.48757421875,-0.18914192914962769,-0.31124621629714966,0.026336219161748886
1766054139774553600,3.4975537109375,-0.1149216815829277,-0.15083470940589905,0.038307227194309235
1766054139784532700,3.50753271484375,-0.06224924325942993,0,-0.033518824726343155
1766054139824510700,3.5475107421875,0.2322375625371933,0.2968810200691223,0.0694318488240242
1766054139834520600,3.5575205078125,0.395043283700943,0.0454898327589035,-0.09816227108240128
1766054139844561000,3.567560791015625,0.3878606855869293,0.2322375625371933,-0.08858546614646912
1766054139854509600,3.577509521484375,0.2825157940387726,0.004788403399288654,-0.16519992053508759
1766054139864488700,3.58748876953125,0.15801730751991272,-0.3447650372982025,-0.035913024097681046
1766054139874468000,3.597468017578125,0.08619125932455063,-0.2944868206977844,-0.004788403399288654
1766054139884477700,3.607477783203125,0.12210428714752197,-0.30885201692581177,-0.11013327538967133
1766054139924425200,3.64742529296875,-0.0933738648891449,0.08379705995321274,-0.1843535304069519
1766054139934435000,3.65743505859375,-0.35673606395721436,-0.1173158809542656,-0.021547814831137657
1766054139944445000,3.66744482421875,-0.5051765441894531,-0.23702596127986908,-0.05985504388809204
1766054139954393600,3.6773935546875,-0.5003881454467773,-0.10055647045373917,0.038307227194309235
1766054139964372700,3.687372802734375,-0.40222588181495667,-0.1364694982767105,0.0071826050989329815
1766054139974382600,3.697382568359375,-0.2537853717803955,-0.11013327538967133,0.047884032130241394
1766054139994402000,3.717402099609375,0.08619125932455063,0.06703764945268631,0.031124621629714966
1766054140014421800,3.737421875,-0.31124621629714966,-0.2992752194404602,-0.009576806798577309
1766054140034410800,3.75741064453125,-0.45489832758903503,-0.14844051003456116,-0.12449848651885986
1766054140044420400,3.76742041015625,-0.42377370595932007,0.009576806798577309,-0.09576806426048279
1766054140054430200,3.77743017578125,-0.21308395266532898,0.035913024097681046,0.08619125932455063
1766054140064409300,3.787409423828125,-0.19393034279346466,0.035913024097681046,0.08379705995321274
1766054140074388700,3.797388671875,-0.12449848651885986,0.016759412363171577,0.05027823522686958
1766054140084398600,3.807398681640625,0.021547814831137657,-0.12928688526153564,0.05985504388809204
1766054140094408200,3.817408203125,-0.028730420395731926,-0.21308395266532898,-0.06703764945268631
1766054140104387600,3.8273876953125,0.023942016065120697,-0.035913024097681046,-0.028730420395731926
1766054140144365600,3.867365478515625,-0.08619125932455063,0.12449848651885986,-0.05267243832349777
1766054140154344700,3.8773447265625,0.004788403399288654,0.12210428714752197,-0.014365210197865963
1766054140164324000,3.887323974609375,-0.040701430290937424,-0.12449848651885986,0.10295066982507706
1766054140174333700,3.897333740234375,0.021547814831137657,-0.3064578175544739,-0.0071826050989329815
1766054140194322700,3.91732275390625,0.1364694982767105,-0.31603461503982544,-0.07182604819536209
1766054140204332500,3.92733251953125,0.038307227194309235,-0.3016694188117981,-0.002394201699644327
1766054140244249600,3.96724951171875,-0.15083470940589905,-0.0694318488240242,-0.033518824726343155
1766054140254228700,3.977228759765625,0.047884032130241394,0.40701428055763245,0.507570743560791
1766054140264238600,3.987238525390625,0.040701430290937424,0.13407529890537262,0.038307227194309235
1766054140274217700,3.9972177734375,0.09576806426048279,0.06464344263076782,0.009576806798577309
1766054140284197000,4.007197021484375,0.08379705995321274,0.009576806798577309,-0.016759412363171577
1766054140294237400,4.017237548828125,0.09576806426048279,-0.08858546614646912,0.0071826050989329815
1766054140304216600,4.027216552734375,0.026336219161748886,-0.05985504388809204,-0.028730420395731926
1766054140334215400,4.05721533203125,-0.20111294090747833,-0.033518824726343155,-0.033518824726343155
1766054140344194600,4.067194580078125,-0.272938996553421,-0.004788403399288654,-0.08379705995321274
1766054140354143200,4.077143310546875,-0.2992752194404602,0.05746084079146385,-0.05985504388809204
1766054140364122600,4.08712255859375,-0.2298433631658554,0.1173158809542656,-0.07661445438861847
1766054140374132200,4.09713232421875,-0.10534487664699554,0.22266076505184174,-0.016759412363171577
1766054140384111600,4.107111572265625,0.05506663769483566,0.19632454216480255,-0.002394201699644327
1766054140394060300,4.117060302734375,0.15322890877723694,-0.09816227108240128,0.038307227194309235
1766054140404070100,4.127070068359375,0.09576806426048279,-0.304063618183136,-0.002394201699644327
1766054140414079700,4.137079833984375,-0.014365210197865963,-0.28969839215278625,-0.031124621629714966
1766054140434038300,4.157038330078125,-0.29209262132644653,-0.22266076505184174,-0.07900865375995636
1766054140444017700,4.167017578125,-0.2968810200691223,-0.021547814831137657,-0.10295066982507706
1766054140453996800,4.176996826171875,-0.23942017555236816,0.0071826050989329815,-0.05506663769483566
1766054140464037000,4.187037109375,-0.12689268589019775,0.05027823522686958,-0.05267243832349777
1766054140473985800,4.19698583984375,-0.016759412363171577,0.043095629662275314,0.06703764945268631
1766054140483995600,4.20699560546875,0.0071826050989329815,0.021547814831137657,0.0071826050989329815
1766054140493974800,4.216974853515625,0.021547814831137657,-0.05506663769483566,0.038307227194309235
1766054140503984600,4.226984619140625,-0.038307227194309235,-0.22026655077934265,0.004788403399288654
1766054140553972500,4.276972412109375,-0.08619125932455063,-0.0071826050989329815,-0.05985504388809204
1766054140563951600,4.28695166015625,-0.07661445438861847,0.2082955539226532,-0.14604631066322327
1766054140573931000,4.296930908203125,-0.1173158809542656,0.1843535304069519,-0.05506663769483566
1766054140583940600,4.306940673828125,-0.090979665517807,0.033518824726343155,-0.05506663769483566
1766054140593889500,4.3168896484375,-0.06224924325942993,0.08858546614646912,-0.12689268589019775
1766054140603868700,4.32686865234375,0.0454898327589035,0.12210428714752197,-0.014365210197865963
1766054140613847800,4.336847900390625,0.047884032130241394,-0.043095629662275314,-0.023942016065120697
1766054140673753900,4.39675390625,-0.22266076505184174,-0.05267243832349777,0.023942016065120697
1766054140683763700,4.406763671875,-0.19871874153614044,0.05267243832349777,-0.10055647045373917
1766054140693742800,4.416742919921875,0.031124621629714966,0.1388636976480484,-0.031124621629714966
1766054140703752700,4.426752685546875,0,0.05746084079146385,0.004788403399288654
1766054140713731800,4.43673193359375,-0.06464344263076782,-0.1412578970193863,-0.0454898327589035
1766054140733690400,4.4566904296875,-0.14844051003456116,-0.040701430290937424,0.1149216815829277
1766054140743669800,4.466669677734375,-0.13168109953403473,-0.08379705995321274,0.090979665517807
1766054140753618400,4.476618408203125,-0.17238251864910126,-0.21787235140800476,-0.004788403399288654
1766054140773638000,4.496637939453125,-0.22505496442317963,0.07182604819536209,-0.016759412363171577
1766054140783647700,4.506647705078125,-0.30885201692581177,-0.181959331035614,-0.090979665517807
1766054140793657600,4.51665771484375,-0.22744916379451752,-0.19153612852096558,-0.11971008777618408
1766054140803636700,4.52663671875,-0.07661445438861847,0.05267243832349777,-0.12689268589019775
1766054140813646600,4.536646484375,0.016759412363171577,0.05267243832349777,-0.05746084079146385
1766054140823625700,4.546625732421875,0.11971008777618408,0.06224924325942993,0
1766054140863634400,4.586634521484375,0.1149216815829277,0.08140286058187485,-0.05985504388809204
1766054140883592700,4.6065927734375,-0.05985504388809204,-0.07661445438861847,0.06703764945268631
1766054140893602600,4.6166025390625,-0.14604631066322327,-0.2322375625371933,-0.011971008032560349
1766054140903581700,4.626581787109375,-0.10773907601833344,-0.2968810200691223,-0.05027823522686958
1766054140913591600,4.636591552734375,-0.13407529890537262,-0.1173158809542656,-0.08379705995321274
1766054140923631900,4.6466318359375,-0.09816227108240128,0.22505496442317963,-0.10773907601833344
1766054140933611000,4.656611083984375,0.3016694188117981,0.15322890877723694,0.004788403399288654
1766054140943620900,4.666620849609375,0.11252748221158981,0.002394201699644327,-0.026336219161748886
1766054140983598800,4.706598876953125,-0.07422025501728058,-0.26575639843940735,0.019153613597154617
1766054140993578200,4.716578125,-0.0071826050989329815,-0.1173158809542656,-0.07422025501728058
1766054141003587800,4.726587890625,0.2992752194404602,0.08619125932455063,-0.5506663918495178
1766054141013567200,4.736567138671875,0.08858546614646912,-0.12689268589019775,0.043095629662275314
1766054141023546400,4.74654638671875,0.17717093229293823,0.5267243981361389,-0.2801215946674347
1766054141033495000,4.7564951171875,0.13168109953403473,0.19871874153614044,-0.24660277366638184
1766054141053484000,4.776484130859375,0.08858546614646912,0.29209262132644653,-0.10055647045373917
1766054141083483000,4.80648291015625,0.11013327538967133,0.028730420395731926,-0.05267243832349777
1766054141093492700,4.81649267578125,0.2082955539226532,-0.3423708379268646,-0.11971008777618408
1766054141103502600,4.826502685546875,-0.19871874153614044,-0.9744400978088379,-0.038307227194309235
1766054141113481700,4.836481689453125,-0.42856210470199585,-1.0893617868423462,0
1766054141123491600,4.84649169921875,-0.3423708379268646,-0.47405192255973816,0.13407529890537262
1766054141133501200,4.856501220703125,-0.24660277366638184,-0.1628057211637497,0.05506663769483566
1766054141143511000,4.866510986328125,-0.14844051003456116,-0.043095629662275314,0.06464344263076782
1766054141163530500,4.886530517578125,-0.009576806798577309,0.1843535304069519,0.026336219161748886
1766054141193499000,4.916498779296875,0.17956513166427612,0.08858546614646912,0.0071826050989329815
1766054141203508500,4.926508544921875,0.11013327538967133,-0.019153613597154617,0.002394201699644327
1766054141213518300,4.936518310546875,0.0933738648891449,-0.10773907601833344,-0.08140286058187485
1766054141223528200,4.946528076171875,0.09576806426048279,-0.08379705995321274,-0.07422025501728058
1766054141233507300,4.95650732421875,0.10773907601833344,-0.05746084079146385,-0.12689268589019775
1766054141243517200,4.96651708984375,0.13407529890537262,-0.05267243832349777,-0.14844051003456116
1766054141253496300,4.976496337890625,-0.004788403399288654,-0.10773907601833344,-0.14844051003456116
1766054141273485300,4.9964853515625,0,-0.1149216815829277,-0.031124621629714966
1766054141283495200,5.0064951171875,-0.090979665517807,-0.17956513166427612,0.026336219161748886
1766054141293474300,5.016474365234375,-0.18914192914962769,-0.23942017555236816,0.06703764945268631
1766054141303514600,5.0265146484375,-0.181959331035614,-0.23942017555236816,0.06703764945268631
1766054141313494000,5.036493896484375,-0.2513911724090576,-0.33518823981285095,0.14365209639072418
1766054141323473200,5.04647314453125,-0.14844051003456116,-0.24420857429504395,0.023942016065120697
1766054141333483000,5.05648291015625,0.05267243832349777,-0.10534487664699554,0.047884032130241394
1766054141353441500,5.076441650390625,0.047884032130241394,-0.15083470940589905,-0.028730420395731926
1766054141363481600,5.086481689453125,0.033518824726343155,-0.11252748221158981,-0.05267243832349777
1766054141383501300,5.106501220703125,-0.0454898327589035,0.14604631066322327,-0.002394201699644327
1766054141393480400,5.11648046875,-0.031124621629714966,0.07661445438861847,0.004788403399288654
1766054141403490300,5.126490234375,-0.031124621629714966,-0.19393034279346466,-0.016759412363171577
1766054141413469400,5.136469482421875,0.026336219161748886,-0.21787235140800476,-0.0454898327589035
1766054141423448800,5.14644873046875,-0.040701430290937424,-0.1173158809542656,-0.004788403399288654
1766054141433428000,5.156427978515625,0.05027823522686958,-0.19393034279346466,0.009576806798577309
1766054141443437800,5.166437744140625,0.12449848651885986,-0.009576806798577309,-0.05506663769483566
1766054141453417000,5.1764169921875,-0.11013327538967133,-0.08140286058187485,-0.090979665517807
1766054141463426800,5.1864267578125,0.05506663769483566,-0.002394201699644327,0.028730420395731926
1766054141493395000,5.21639501953125,-0.1412578970193863,-0.05746084079146385,-0.05027823522686958
1766054141503404800,5.22640478515625,-0.07422025501728058,-0.26336219906806946,-0.07900865375995636
1766054141513384000,5.236384033203125,-0.019153613597154617,-0.181959331035614,-0.05506663769483566
1766054141523363300,5.24636328125,-0.09576806426048279,-0.2777273952960968,0.011971008032560349
1766054141533373200,5.256373291015625,-0.08619125932455063,-0.19393034279346466,-0.026336219161748886
1766054141543382800,5.2663828125,0.0454898327589035,-0.08140286058187485,0.035913024097681046
1766054141553362200,5.276362060546875,0.1604115068912506,0.05985504388809204,0.038307227194309235
1766054141563402500,5.286402587890625,0.1843535304069519,0.19632454216480255,-0.009576806798577309
1766054141573381600,5.296381591796875,0.17717093229293823,0.014365210197865963,-0.014365210197865963
1766054141593340200,5.316340087890625,0.10773907601833344,0.06703764945268631,0.10773907601833344
1766054141603380500,5.32638037109375,0.08858546614646912,-0.09816227108240128,0.009576806798577309
1766054141613390000,5.33639013671875,-0.05027823522686958,-0.043095629662275314,-0.038307227194309235
1766054141623400000,5.34639990234375,-0.0071826050989329815,-0.09816227108240128,-0.09816227108240128
1766054141633409800,5.356409912109375,-0.08379705995321274,-0.11252748221158981,-0.047884032130241394
1766054141643419400,5.36641943359375,-0.12449848651885986,-0.08858546614646912,-0.1604115068912506
1766054141653429200,5.37642919921875,-0.004788403399288654,-0.15801730751991272,-0.14844051003456116
1766054141663439000,5.386439208984375,-0.040701430290937424,-0.19632454216480255,-0.11971008777618408
1766054141693437700,5.416437744140625,0.028730420395731926,-0.1388636976480484,0.08619125932455063
1766054141703417000,5.4264169921875,0.06703764945268631,0.043095629662275314,0.023942016065120697
1766054141713396200,5.436396240234375,0.07661445438861847,-0.011971008032560349,0.08858546614646912
1766054141743395000,5.46639501953125,0.12689268589019775,-0.1388636976480484,0.06703764945268631
1766054141763323100,5.4863232421875,0.14844051003456116,0.047884032130241394,0.035913024097681046
1766054141773302300,5.49630224609375,0.07661445438861847,0.019153613597154617,0.06703764945268631
1766054141783281400,5.506281494140625,0,-0.14604631066322327,-0.043095629662275314
1766054141813249800,5.536249755859375,0.033518824726343155,-0.08619125932455063,-0.026336219161748886
1766054141823229000,5.54622900390625,0,-0.05746084079146385,-0.07182604819536209
1766054141833208300,5.556208251953125,0.0694318488240242,-0.002394201699644327,-0.13407529890537262
1766054141843248600,5.56624853515625,0.038307227194309235,0.028730420395731926,-0.11971008777618408
1766054141853258200,5.57625830078125,-0.12689268589019775,-0.09576806426048279,-0.06464344263076782
1766054141863268000,5.58626806640625,0.043095629662275314,-0.07661445438861847,-0.0071826050989329815
1766054141873247200,5.596247314453125,0.0071826050989329815,-0.016759412363171577,0.016759412363171577
1766054141883257000,5.606257080078125,-0.026336219161748886,-0.004788403399288654,-0.009576806798577309
1766054141903246000,5.62624609375,-0.06703764945268631,-0.0933738648891449,-0.0454898327589035
1766054141913225500,5.6362255859375,-0.06464344263076782,0.002394201699644327,0.06224924325942993
1766054141923265500,5.646265625,-0.019153613597154617,-0.06464344263076782,-0.009576806798577309
1766054141933275400,5.656275390625,-0.021547814831137657,-0.06464344263076782,-0.009576806798577309
1766054141943285200,5.66628515625,0.043095629662275314,-0.047884032130241394,-0.026336219161748886
1766054141953264400,5.676264404296875,0.07422025501728058,-0.15083470940589905,0.004788403399288654
1766054141963274200,5.686274169921875,0.090979665517807,-0.07422025501728058,-0.028730420395731926
1766054141973253400,5.69625341796875,-0.043095629662275314,-0.1388636976480484,0
1766054141983263200,5.70626318359375,0,0.026336219161748886,-0.014365210197865963
1766054142023241200,5.7462412109375,-0.05985504388809204,-0.11252748221158981,0.05746084079146385
1766054142033190000,5.75618994140625,-0.090979665517807,-0.21547815203666687,-0.004788403399288654
1766054142043230200,5.766230224609375,-0.090979665517807,-0.13168109953403473,-0.026336219161748886
1766054142053240000,5.776239990234375,0.004788403399288654,-0.06464344263076782,-0.0454898327589035
1766054142063249700,5.786249755859375,0.019153613597154617,-0.09816227108240128,-0.10534487664699554
1766054142073198600,5.796198486328125,0.05985504388809204,0.016759412363171577,-0.16998831927776337
1766054142083239000,5.806239013671875,0.11013327538967133,0.040701430290937424,-0.1149216815829277
1766054142113237500,5.836237548828125,-0.05027823522686958,-0.1388636976480484,0.014365210197865963
1766054142123217000,5.846216796875,0.009576806798577309,-0.11252748221158981,-0.06224924325942993
1766054142133196000,5.856196044921875,0.06464344263076782,-0.028730420395731926,-0.002394201699644327
1766054142143206000,5.866205810546875,0.11971008777618408,0.004788403399288654,-0.05027823522686958
1766054142153215500,5.876215576171875,0.1149216815829277,-0.06464344263076782,0.035913024097681046
1766054142163195000,5.88619482421875,0.043095629662275314,-0.13168109953403473,-0.014365210197865963
1766054142173235200,5.896235107421875,0.019153613597154617,-0.14844051003456116,0.031124621629714966
1766054142183244800,5.906244873046875,0.07661445438861847,-0.08858546614646912,-0.1149216815829277
1766054142193224200,5.91622412109375,0.014365210197865963,-0.15322890877723694,-0.05985504388809204
1766054142243150800,5.96615087890625,0.014365210197865963,-0.023942016065120697,-0.023942016065120697
1766054142253099500,5.976099609375,0.05746084079146385,-0.10773907601833344,-0.05506663769483566
1766054142263079000,5.986078857421875,0.040701430290937424,-0.1412578970193863,0.0071826050989329815
1766054142273027600,5.996027587890625,0.019153613597154617,-0.06464344263076782,-0.002394201699644327
1766054142283037400,6.006037353515625,0.035913024097681046,0.11252748221158981,-0.009576806798577309
1766054142293047000,6.016047119140625,0.016759412363171577,-0.019153613597154617,-0.12449848651885986
1766054142303026400,6.0260263671875,-0.0071826050989329815,-0.3016694188117981,-0.2059013396501541
1766054142323015400,6.046015380859375,-0.0454898327589035,0.035913024097681046,-0.031124621629714966
1766054142332964000,6.055964111328125,0.07182604819536209,-0.0933738648891449,0.040701430290937424
1766054142342943500,6.065943603515625,-0.009576806798577309,-0.2944868206977844,0.05985504388809204
1766054142352953000,6.075953125,-0.05027823522686958,-0.2298433631658554,0.014365210197865963
1766054142362963000,6.085962890625,-0.06464344263076782,-0.19153612852096558,-0.08140286058187485
1766054142382952000,6.105951904296875,-0.05506663769483566,0.002394201699644327,-0.06703764945268631
1766054142392961800,6.1159619140625,-0.0694318488240242,-0.0694318488240242,-0.038307227194309235
1766054142402971400,6.125971435546875,-0.0071826050989329815,-0.09816227108240128,0.004788403399288654
1766054142422899500,6.1458994140625,-0.026336219161748886,-0.07422025501728058,-0.004788403399288654
1766054142432848100,6.15584814453125,0,-0.16998831927776337,0.08140286058187485
1766054142442827500,6.16582763671875,0.0071826050989329815,-0.17477671802043915,0.009576806798577309
1766054142452806700,6.175806640625,-0.002394201699644327,-0.05027823522686958,-0.016759412363171577
1766054142462785800,6.185785888671875,0,-0.09816227108240128,-0.021547814831137657
1766054142472765200,6.19576513671875,-0.05506663769483566,-0.14604631066322327,-0.09576806426048279
1766054142482775000,6.205775146484375,-0.090979665517807,-0.181959331035614,-0.07661445438861847
1766054142492723700,6.2157236328125,-0.06224924325942993,-0.0071826050989329815,-0.07900865375995636
1766054142502764000,6.225763916015625,0.040701430290937424,0.040701430290937424,-0.06464344263076782
1766054142512743200,6.2357431640625,0.014365210197865963,-0.1173158809542656,0.026336219161748886
1766054142542772500,6.2657724609375,-0.10534487664699554,-0.12449848651885986,-0.014365210197865963
1766054142552721200,6.27572119140625,-0.10534487664699554,-0.12449848651885986,-0.016759412363171577
1766054142562731000,6.28573095703125,-0.07182604819536209,0.014365210197865963,0
1766054142572679700,6.2956796875,-0.004788403399288654,0.043095629662275314,-0.031124621629714966
1766054142582720000,6.305719970703125,-0.011971008032560349,0.021547814831137657,-0.05267243832349777
1766054142592668700,6.315668701171875,0,-0.05985504388809204,-0.021547814831137657
1766054142602678500,6.325678466796875,0.08379705995321274,-0.07661445438861847,-0.004788403399288654
1766054142612688400,6.3356884765625,0.0933738648891449,-0.16759411990642548,0.05267243832349777
1766054142642687000,6.36568701171875,0,-0.08619125932455063,-0.011971008032560349
1766054142652666400,6.375666259765625,-0.028730420395731926,-0.12928688526153564,-0.004788403399288654
1766054142662676000,6.385676025390625,0.0694318488240242,-0.040701430290937424,-0.06464344263076782
1766054142672655400,6.3956552734375,-0.07422025501728058,-0.090979665517807,-0.035913024097681046
1766054142682695700,6.40569580078125,0.035913024097681046,-0.033518824726343155,-0.07422025501728058
1766054142692644400,6.415644287109375,-0.002394201699644327,-0.040701430290937424,0.004788403399288654
1766054142702654000,6.425654052734375,-0.07422025501728058,0.0071826050989329815,0.016759412363171577
1766054142712633300,6.43563330078125,-0.05985504388809204,-0.0694318488240242,0.05267243832349777
1766054142722643200,6.445643310546875,-0.016759412363171577,-0.10534487664699554,0.07422025501728058
1766054142742632200,6.465632080078125,-0.06224924325942993,-0.05027823522686958,-0.05746084079146385
1766054142752611300,6.475611328125,-0.009576806798577309,-0.10055647045373917,-0.011971008032560349
1766054142762590700,6.4855908203125,0.033518824726343155,-0.1173158809542656,0.0071826050989329815
1766054142772600300,6.495600341796875,-0.019153613597154617,-0.1412578970193863,0.019153613597154617
1766054142782579700,6.505579833984375,0.011971008032560349,-0.14365209639072418,0.021547814831137657
1766054142792589300,6.51558935546875,-0.05267243832349777,-0.1628057211637497,-0.002394201699644327
1766054142802599200,6.52559912109375,-0.038307227194309235,-0.1173158809542656,-0.06224924325942993
1766054142812609000,6.535609130859375,0,-0.07422025501728058,-0.0694318488240242
1766054142822588200,6.545588134765625,0.004788403399288654,-0.004788403399288654,-0.031124621629714966
1766054142852556500,6.575556640625,0.05267243832349777,-0.12210428714752197,-0.028730420395731926
1766054142862566100,6.585566162109375,0.031124621629714966,-0.1388636976480484,-0.033518824726343155
1766054142872545500,6.595545654296875,-0.019153613597154617,-0.1628057211637497,0.047884032130241394
1766054142882555100,6.60555517578125,-0.05985504388809204,-0.1364694982767105,0.035913024097681046
1766054142892565000,6.61556494140625,-0.016759412363171577,-0.07661445438861847,-0.05027823522686958
1766054142902574800,6.625574951171875,0.031124621629714966,-0.0694318488240242,-0.07182604819536209
1766054142912554000,6.635553955078125,-0.009576806798577309,-0.009576806798577309,-0.05746084079146385
1766054142922563800,6.645563720703125,0,0.004788403399288654,0.026336219161748886
1766054142932573400,6.655573486328125,-0.05506663769483566,-0.12449848651885986,-0.004788403399288654
1766054142962572300,6.685572265625,-0.014365210197865963,-0.0694318488240242,0.004788403399288654
1766054142972582100,6.69558203125,-0.06703764945268631,-0.272938996553421,-0.07422025501728058
1766054142982561300,6.705561279296875,-0.09576806426048279,-0.22026655077934265,-0.08140286058187485
1766054142992571100,6.715571044921875,-0.033518824726343155,-0.12689268589019775,0.011971008032560349
1766054143002580700,6.725580810546875,0.05985504388809204,-0.009576806798577309,0.0071826050989329815
1766054143012590600,6.735590576171875,-0.05506663769483566,-0.24420857429504395,-0.11252748221158981
1766054143022600400,6.745600341796875,-0.05506663769483566,0.043095629662275314,0.028730420395731926
1766054143032579600,6.75557958984375,-0.05746084079146385,-0.026336219161748886,0.019153613597154617
1766054143042559000,6.76555908203125,-0.06224924325942993,-0.10773907601833344,0.028730420395731926
1766054143062548000,6.7855478515625,-0.06224924325942993,-0.033518824726343155,-0.040701430290937424
1766054143072527000,6.795527099609375,-0.08140286058187485,-0.12928688526153564,-0.0071826050989329815
1766054143082537000,6.805536865234375,-0.05267243832349777,-0.17717093229293823,0.0071826050989329815
1766054143092546600,6.815546630859375,0.05267243832349777,-0.11013327538967133,-0.040701430290937424
1766054143102556400,6.825556396484375,0.016759412363171577,-0.11252748221158981,-0.08379705995321274
1766054143112535600,6.83553564453125,-0.05985504388809204,-0.1843535304069519,-0.05506663769483566
1766054143122515000,6.845514892578125,-0.026336219161748886,-0.22026655077934265,-0.05506663769483566
1766054143142473500,6.865473388671875,-0.019153613597154617,0.08858546614646912,-0.0454898327589035
1766054143172502800,6.895502685546875,0.002394201699644327,-0.18914192914962769,-0.07661445438861847
1766054143182482000,6.90548193359375,0.004788403399288654,-0.18914192914962769,-0.07661445438861847
1766054143192461300,6.91546142578125,0.021547814831137657,-0.23702596127986908,-0.009576806798577309
1766054143202471000,6.925470947265625,0.05267243832349777,-0.2106897532939911,-0.009576806798577309
1766054143212450300,6.9354501953125,0.05267243832349777,-0.14365209639072418,-0.05027823522686958
1766054143222429400,6.945429443359375,0.08140286058187485,-0.028730420395731926,-0.033518824726343155
1766054143232439300,6.955439208984375,0.08379705995321274,-0.15322890877723694,-0.1173158809542656
1766054143242449000,6.965448974609375,0.05267243832349777,-0.040701430290937424,-0.014365210197865963
1766054143252397800,6.975397705078125,-0.07422025501728058,-0.06703764945268631,0.033518824726343155
1766054143272386800,6.99538671875,-0.13168109953403473,-0.023942016065120697,-0.033518824726343155
1766054143282396400,7.005396484375,-0.0694318488240242,0.10773907601833344,0.0071826050989329815
1766054143292375800,7.015375732421875,0.031124621629714966,-0.043095629662275314,0.031124621629714966
1766054143302355000,7.02535498046875,0.009576806798577309,-0.26815059781074524,-0.0071826050989329815
1766054143312334300,7.035334228515625,-0.035913024097681046,-0.31124621629714966,-0.026336219161748886
1766054143322313500,7.0453134765625,-0.021547814831137657,-0.13168109953403473,0.05267243832349777
1766054143332292900,7.05529296875,-0.1149216815829277,-0.040701430290937424,-0.047884032130241394
1766054143342272000,7.06527197265625,-0.019153613597154617,-0.038307227194309235,-0.07661445438861847
1766054143352220700,7.075220703125,0.016759412363171577,-0.06464344263076782,-0.009576806798577309
1766054143372209700,7.095209716796875,-0.023942016065120697,-0.05985504388809204,-0.033518824726343155
1766054143382189000,7.10518896484375,-0.004788403399288654,-0.014365210197865963,0
1766054143392198700,7.11519873046875,-0.05027823522686958,0.028730420395731926,-0.07661445438861847
1766054143402208500,7.12520849609375,-0.06703764945268631,-0.05506663769483566,-0.004788403399288654
1766054143412157200,7.1351572265625,-0.08140286058187485,-0.12689268589019775,0.031124621629714966
1766054143422167000,7.1451669921875,0.038307227194309235,-0.15562310814857483,-0.026336219161748886
1766054143432177000,7.155177001953125,0.038307227194309235,-0.22266076505184174,-0.07422025501728058
1766054143442186500,7.1651865234375,-0.011971008032560349,-0.19632454216480255,-0.043095629662275314
1766054143452196400,7.1751962890625,-0.033518824726343155,-0.05506663769483566,-0.09816227108240128
1766054143472185300,7.195185302734375,0.0071826050989329815,-0.06224924325942993,0
1766054143482164500,7.20516455078125,0.021547814831137657,0.06703764945268631,-0.0071826050989329815
1766054143492143900,7.215143798828125,-0.10055647045373917,-0.026336219161748886,-0.016759412363171577
1766054143502123000,7.225123046875,-0.2968810200691223,-0.13168109953403473,0.033518824726343155
1766054143512132900,7.2351328125,-0.272938996553421,-0.07900865375995636,-0.043095629662275314
1766054143522142700,7.245142822265625,-0.3423708379268646,0.004788403399288654,-0.05746084079146385
1766054143532182800,7.255182861328125,-0.35673606395721436,0.272938996553421,0.28730419278144836
1766054143542192600,7.265192626953125,-0.043095629662275314,-0.14604631066322327,-0.05506663769483566
1766054143552141300,7.275141357421875,0.14844051003456116,-0.06703764945268631,-0.047884032130241394
1766054143562120700,7.28512060546875,0.24899697303771973,-0.08140286058187485,-0.004788403399288654
1766054143592028000,7.31502783203125,0.16998831927776337,-0.0694318488240242,-0.05267243832349777
1766054143602007000,7.325007080078125,0.07422025501728058,-0.05267243832349777,-0.08379705995321274
1766054143612017000,7.335016845703125,0.1843535304069519,-0.040701430290937424,-0.05267243832349777
1766054143622026800,7.34502685546875,0.15083470940589905,-0.10773907601833344,-0.05746084079146385
1766054143632036400,7.355036376953125,0.10295066982507706,-0.19871874153614044,-0.1843535304069519
1766054143642046200,7.365046142578125,0.08379705995321274,-0.21308395266532898,-0.05027823522686958
1766054143652025300,7.375025390625,-0.1388636976480484,-0.2825157940387726,0
1766054143662035200,7.38503515625,-0.12928688526153564,-0.06703764945268631,-0.0454898327589035
1766054143671953400,7.394953369140625,-0.1388636976480484,-0.047884032130241394,0.002394201699644327
1766054143711961900,7.4349619140625,-0.11252748221158981,-0.09816227108240128,0.06224924325942993
1766054143721971700,7.4449716796875,-0.026336219161748886,-0.08619125932455063,0.031124621629714966
1766054143731981600,7.454981689453125,0.033518824726343155,-0.004788403399288654,-0.038307227194309235
1766054143741991200,7.4649912109375,0.05506663769483566,-0.0933738648891449,-0.016759412363171577
1766054143752001000,7.4750009765625,-0.019153613597154617,-0.10055647045373917,-0.05267243832349777
1766054143762011000,7.485010986328125,0.0694318488240242,-0.028730420395731926,-0.12210428714752197
1766054143771959600,7.49495947265625,0.040701430290937424,0.023942016065120697,-0.07182604819536209
1766054143781938700,7.504938720703125,0.016759412363171577,-0.12928688526153564,-0.035913024097681046
1766054143821855700,7.544855712890625,-0.035913024097681046,-0.21547815203666687,-0.040701430290937424
1766054143831865600,7.554865478515625,-0.05027823522686958,-0.06464344263076782,-0.08619125932455063
1766054143841844700,7.5648447265625,-0.035913024097681046,-0.05985504388809204,-0.05985504388809204
1766054143851824000,7.57482421875,-0.05746084079146385,-0.12210428714752197,0
1766054143861803300,7.58480322265625,-0.07182604819536209,-0.12689268589019775,-0.038307227194309235
1766054143871782400,7.594782470703125,0.033518824726343155,-0.11971008777618408,-0.08858546614646912
1766054143881761800,7.60476171875,0.016759412363171577,-0.11013327538967133,-0.019153613597154617
1766054143911699500,7.634699462890625,0.1412578970193863,-0.05027823522686958,-0.014365210197865963
1766054143921709300,7.644709228515625,-0.014365210197865963,-0.033518824726343155,-0.05985504388809204
1766054143931688400,7.6546884765625,0.20111294090747833,0.1149216815829277,-0.014365210197865963
1766054143941667800,7.664667724609375,0.05985504388809204,-0.05027823522686958,0.019153613597154617
1766054143951647000,7.67464697265625,0.011971008032560349,-0.17238251864910126,-0.043095629662275314
1766054143961687300,7.684687255859375,-0.023942016065120697,-0.2106897532939911,-0.040701430290937424
1766054143971666400,7.69466650390625,-0.0454898327589035,-0.19632454216480255,-0.11252748221158981
1766054143981706800,7.704706787109375,0.033518824726343155,-0.05506663769483566,-0.13168109953403473
1766054143991686100,7.71468603515625,0.06224924325942993,-0.08619125932455063,-0.15801730751991272
1766054144041582300,7.764582275390625,-0.06224924325942993,0.05027823522686958,0
1766054144051531000,7.774531005859375,-0.10295066982507706,0.019153613597154617,-0.033518824726343155
1766054144061571300,7.7845712890625,0.011971008032560349,-0.08379705995321274,0.07900865375995636
1766054144071520000,7.79452001953125,0.0071826050989329815,0.028730420395731926,-0.021547814831137657
1766054144081529900,7.80452978515625,0.0694318488240242,-0.07900865375995636,-0.014365210197865963
1766054144091509000,7.814509033203125,0.002394201699644327,-0.07182604819536209,0.090979665517807
1766054144121477400,7.844477294921875,-0.031124621629714966,-0.14844051003456116,0.023942016065120697
1766054144131487000,7.854487060546875,-0.0071826050989329815,-0.15801730751991272,0.05985504388809204
1766054144141466400,7.86446630859375,-0.028730420395731926,-0.06224924325942993,0.011971008032560349
1766054144151415000,7.8744150390625,0.038307227194309235,-0.031124621629714966,0.0454898327589035
1766054144161425000,7.8844248046875,0.06224924325942993,0.009576806798577309,0.040701430290937424
1766054144171404000,7.894404052734375,-0.026336219161748886,0.023942016065120697,-0.023942016065120697
1766054144181383400,7.904383544921875,-0.08619125932455063,-0.021547814831137657,-0.038307227194309235
1766054144191362600,7.914362548828125,-0.035913024097681046,-0.06703764945268631,-0.033518824726343155
1766054144201372400,7.924372314453125,0.031124621629714966,0.019153613597154617,0.06224924325942993
1766054144241380900,7.964380859375,-0.05027823522686958,-0.2753331959247589,-0.035913024097681046
1766054144251360300,7.9743603515625,-0.1173158809542656,-0.21787235140800476,-0.090979665517807
1766054144261369900,7.984369873046875,-0.07182604819536209,-0.22266076505184174,-0.031124621629714966
1766054144271318500,7.994318603515625,-0.13168109953403473,-0.2753331959247589,-0.05267243832349777
1766054144281358800,8.00435888671875,-0.033518824726343155,-0.3064578175544739,-0.07182604819536209
1766054144291338200,8.014338134765625,-0.11252748221158981,-0.17717093229293823,0.009576806798577309
1766054144301317400,8.0243173828125,-0.1628057211637497,-0.15562310814857483,0.14844051003456116
1766054144311296800,8.034296875,-0.08858546614646912,0.15083470940589905,0.08379705995321274
1766054144341204000,8.064203857421875,-0.031124621629714966,-0.1149216815829277,0.12928688526153564
1766054144351213600,8.074213623046875,-0.035913024097681046,-0.15801730751991272,0.033518824726343155
1766054144361193000,8.08419287109375,-0.13407529890537262,-0.24660277366638184,0.05027823522686958
1766054144371202600,8.09420263671875,-0.11013327538967133,-0.27054479718208313,-0.06224924325942993
1766054144381151500,8.1041513671875,-0.10534487664699554,-0.33039984107017517,-0.0933738648891449
1766054144391161000,8.1141611328125,-0.10534487664699554,-0.2585737705230713,-0.16998831927776337
1766054144401140500,8.124140380859375,-0.1173158809542656,-0.2585737705230713,-0.16998831927776337
1766054144411150000,8.134150146484375,-0.20350714027881622,-0.15083470940589905,-0.20111294090747833
1766054144441118500,8.164118408203125,0.20111294090747833,-0.019153613597154617,-0.026336219161748886
1766054144461138000,8.184137939453125,-0.019153613597154617,-0.090979665517807,-0.040701430290937424
1766054144471117300,8.194117431640626,0.12689268589019775,-0.014365210197865963,0.023942016065120697
1766054144481127000,8.204126953125,0.16759411990642548,0.004788403399288654,0.026336219161748886
1766054144491136800,8.21413671875,0.17477671802043915,0.011971008032560349,0.10055647045373917
1766054144501116000,8.224115966796875,0.1388636976480484,-0.2059013396501541,-0.0694318488240242
1766054144511095300,8.23409521484375,0.33279404044151306,0.021547814831137657,-0.181959331035614
1766054144521074400,8.244074462890625,0.16759411990642548,-0.5291185975074768,-0.3232172429561615
1766054144541033000,8.264032958984375,0.31842881441116333,-0.08379705995321274,-0.23942017555236816
1766054144550981600,8.273981689453125,0.09816227108240128,-0.2082955539226532,-0.1867477297782898
1766054144561022000,8.28402197265625,-0.2944868206977844,-0.5171475410461426,-0.19632454216480255
1766054144571001300,8.29400146484375,-0.3926490843296051,-0.3016694188117981,-0.05506663769483566
1766054144581041400,8.30404150390625,-0.43335050344467163,-0.3064578175544739,0.028730420395731926
1766054144590990300,8.313990234375,-0.38546648621559143,-0.33758243918418884,0.1173158809542656
1766054144600969500,8.323969482421875,-0.3902548849582672,-0.15083470940589905,-0.0694318488240242
1766054144610979300,8.333979248046875,-0.44532153010368347,-0.2561795711517334,0.07661445438861847
1766054144620958500,8.34395849609375,-0.31124621629714966,-0.05746084079146385,0.10773907601833344
1766054144640917000,8.3639169921875,-0.3423708379268646,-0.10055647045373917,0.10534487664699554
1766054144650926800,8.3739267578125,0.0071826050989329815,0.304063618183136,0.2513911724090576
1766054144660936400,8.3839365234375,0.2825157940387726,0.3974374830722809,0.06464344263076782
1766054144670915800,8.393915771484375,0.4165911078453064,0.5363011956214905,-0.0071826050989329815
1766054144680925400,8.403925537109375,0.3208230137825012,0.24660277366638184,0.019153613597154617
1766054144690935300,8.413935302734375,0.15562310814857483,-0.08619125932455063,-0.023942016065120697
1766054144710893800,8.433893798828125,0.4213795065879822,0.19153612852096558,-0.033518824726343155
1766054144720903700,8.443903564453125,0.6248866319656372,-0.023942016065120697,-0.090979665517807
1766054144730913300,8.453913330078125,0.9433154463768005,0.22505496442317963,-0.18914192914962769
1766054144760881700,8.483881591796875,1.37906014919281,0.24899697303771973,-0.3016694188117981
1766054144790911000,8.513910888671875,0.933738648891449,-0.2849099934101105,-0.3280056416988373
1766054144800920600,8.523920654296875,0.8403648138046265,-0.2992752194404602,-0.4141969084739685
1766054144810930400,8.533930419921875,0.9026140570640564,-0.2753331959247589,-0.5027823448181152
1766054144830919400,8.55391943359375,0.6775590777397156,-0.002394201699644327,-0.5099649429321289
1766054144850908400,8.573908447265625,0.6967126727104187,0.507570743560791,-0.14365209639072418
1766054144870897400,8.5938974609375,1.1061211824417114,0.30885201692581177,-0.08858546614646912
1766054144880907300,8.6039072265625,0.646434485912323,-0.33039984107017517,-0.08140286058187485
1766054144890917000,8.613917236328126,0.49799394607543945,0.031124621629714966,-0.13168109953403473
1766054144900896300,8.623896240234375,0.26575639843940735,0.3663128614425659,-0.06703764945268631
1766054144910875400,8.63387548828125,-0.26575639843940735,-0.090979665517807,-0.05746084079146385
1766054144920885200,8.64388525390625,-0.6703764796257019,-0.2801215946674347,0.31364041566848755
1766054144930864600,8.65386474609375,-1.015141487121582,-0.5363011956214905,0.24181437492370605
1766054144940874200,8.663874267578125,-1.1276689767837524,-0.5746083855628967,0.3471592366695404
1766054144950853600,8.673853515625,-1.381454348564148,-1.0558429956436157,0.3232172429561615
1766054144960832800,8.683832763671875,-1.338358759880066,-1.094150185585022,0.3663128614425659
1766054144970842600,8.693842529296875,-1.3311761617660522,-0.7182605266571045,0.3064578175544739
1766054144980852200,8.703852294921875,-0.9816226959228516,-0.30885201692581177,0.2106897532939911
1766054144990831600,8.71383154296875,-0.7733271718025208,-0.2777273952960968,0.20111294090747833
1766054145000810800,8.723810791015625,-0.5195417404174805,0.22026655077934265,0.2992752194404602
1766054145010790100,8.7337900390625,-0.2298433631658554,0.33039984107017517,0.28969839215278625
1766054145020769300,8.743769287109375,-0.17477671802043915,0.3423708379268646,0.26336219906806946
1766054145030718000,8.753718017578125,-0.22266076505184174,0.3280056416988373,0.28730419278144836
1766054145040697300,8.763697265625,-0.23942017555236816,0.05746084079146385,0.16519992053508759
1766054145070665500,8.79366552734375,-0.7613561153411865,-0.10295066982507706,0.1628057211637497
1766054145110613000,8.833613037109375,-0.3878606855869293,-0.43335050344467163,-0.0071826050989329815
1766054145120622800,8.843622802734375,-0.4357447028160095,-0.35434186458587646,-0.0694318488240242
1766054145130632700,8.8536328125,-0.15562310814857483,-0.14844051003456116,-0.090979665517807
1766054145140611800,8.86361181640625,-0.11013327538967133,-0.19153612852096558,-0.12449848651885986
1766054145150591000,8.873591064453125,-0.10534487664699554,-0.2944868206977844,-0.05027823522686958
1766054145170580200,8.893580322265626,-0.17477671802043915,-0.7398083209991455,-0.009576806798577309
1766054145180559400,8.903559326171875,-0.33997663855552673,-0.6943184733390808,-0.002394201699644327
1766054145190569200,8.9135693359375,-0.45250412821769714,-0.608127236366272,0.07900865375995636
1766054145200548400,8.92354833984375,-0.524330198764801,-0.5937620401382446,0.17956513166427612
1766054145210588700,8.933588623046875,-0.4812345504760742,-0.20111294090747833,0.26575639843940735
1766054145220598500,8.9435986328125,-0.5482721924781799,-0.24899697303771973,0.28969839215278625
1766054145230577700,8.95357763671875,-0.3902548849582672,0.5530605912208557,0.17956513166427612
1766054145240587500,8.96358740234375,0.768538773059845,1.50355863571167,-0.38067805767059326
1766054145280535000,9.00353515625,0.3064578175544739,0.304063618183136,-0.24181437492370605
1766054145290575000,9.0135751953125,0.45489832758903503,0.35434186458587646,-0.1628057211637497
1766054145300554500,9.023554443359375,0.7086837291717529,0.33758243918418884,-0.15801730751991272
1766054145310533600,9.03353369140625,0.9385270476341248,0.7110779285430908,-0.2561795711517334
1766054145320513000,9.043512939453125,1.3838485479354858,0.9744400978088379,-0.3232172429561615
1766054145330492200,9.0534921875,1.5298948287963867,0.8068459630012512,-0.4213795065879822
1766054145340502000,9.063501953125,1.7310078144073486,0.5219359993934631,-0.4429273009300232
1766054145350511900,9.073511962890626,1.6543933153152466,-0.11013327538967133,-0.4118026793003082
1766054145390489900,9.11348974609375,0.8259995579719543,-0.17717093229293823,-0.48602294921875
1766054145400499500,9.12349951171875,0.4668693244457245,-0.6823474764823914,-0.40462008118629456
1766054145410478800,9.133478759765625,0.08858546614646912,-0.7374141216278076,-0.4165911078453064
1766054145420458000,9.1434580078125,-0.040701430290937424,-0.45010992884635925,-0.3471592366695404
1766054145430406700,9.15340673828125,-0.23702596127986908,-0.033518824726343155,-0.3758896589279175
1766054145440386000,9.163385986328125,-0.05746084079146385,0.014365210197865963,-0.31842881441116333
1766054145450365200,9.173365234375,-0.05506663769483566,-0.33997663855552673,-0.22026655077934265
1766054145490374000,9.213373779296875,0.5817909836769104,0.7110779285430908,-0.002394201699644327
1766054145500383500,9.223383544921875,0.6105214357376099,0.6009446382522583,0.23942017555236816
1766054145510363000,9.23336279296875,0.5937620401382446,0.43095630407333374,0.21308395266532898
1766054145520342000,9.243342041015625,0.040701430290937424,-0.5363011956214905,0.0933738648891449
1766054145530321400,9.2533212890625,-0.40462008118629456,-0.7829039692878723,0.12928688526153564
1766054145540331000,9.2633310546875,-0.5363011956214905,-0.47644615173339844,0.18914192914962769
1766054145550280000,9.273280029296876,-0.9552865028381348,-0.7254431247711182,0.031124621629714966
1766054145560259000,9.283259033203125,-0.828393816947937,-0.7374141216278076,0.12210428714752197
1766054145620195600,9.343195556640625,-0.4141969084739685,-0.6057330369949341,0.004788403399288654
1766054145630205400,9.353205322265625,-0.3902548849582672,-1.256955862045288,-0.14604631066322327
1766054145640184600,9.3631845703125,-0.28969839215278625,-1.2401964664459229,-0.17956513166427612
1766054145650194400,9.3731943359375,-0.17717093229293823,-0.3687070608139038,-0.2059013396501541
1766054145660173600,9.383173583984375,-0.26336219906806946,-0.047884032130241394,0.047884032130241394
1766054145670153000,9.393153076171876,-0.2585737705230713,-0.10773907601833344,-0.031124621629714966
1766054145690142000,9.413141845703125,-0.5027823448181152,-0.22266076505184174,0.047884032130241394
1766054145700121000,9.42312109375,-1.1204863786697388,-0.6177040338516235,-0.035913024097681046
1766054145710100500,9.4331005859375,-1.2425906658172607,-0.5793967843055725,-0.021547814831137657
1766054145720110000,9.443110107421875,-1.316810965538025,0.05506663769483566,0.2059013396501541
1766054145730120000,9.453119873046875,-1.3096283674240112,0.43335050344467163,0.304063618183136
1766054145740129800,9.4631298828125,-1.7310078144073486,0.16519992053508759,0.3471592366695404
1766054145750109000,9.47310888671875,-1.5897499322891235,-0.011971008032560349,0.44771572947502136
1766054145760088000,9.483088134765625,-1.482010841369629,-0.06224924325942993,0.45250412821769714
1766054145770067500,9.4930673828125,-1.2880805730819702,-0.2968810200691223,0.5913678407669067
1766054145780107800,9.503107666015625,-1.1994950771331787,-0.45010992884635925,0.5770025849342346
1766054145810137000,9.53313720703125,-0.3064578175544739,0.6967126727104187,0.395043283700943
1766054145820146700,9.543146728515625,-0.047884032130241394,0.8259995579719543,0.3926490843296051
1766054145830126000,9.5531259765625,0.07422025501728058,0.9983820915222168,0.06464344263076782
1766054145840135700,9.5631357421875,0.5961562395095825,0.9385270476341248,0.31603461503982544
1766054145860124700,9.583124755859375,0.5363011956214905,0.3423708379268646,0.1628057211637497
1766054145870104000,9.59310400390625,0.6272808313369751,-0.395043283700943,-0.05506663769483566
1766054145880083200,9.603083251953125,0.5985504388809204,-0.47165772318840027,-0.23942017555236816
1766054145900072200,9.623072265625,0.4189853072166443,-0.40701428055763245,-0.5770025849342346
1766054145910051600,9.633051513671875,0.20111294090747833,-0.6631938815116882,-0.45250412821769714
1766054145920092000,9.643091796875,0.2968810200691223,-0.5291185975074768,-0.3974374830722809
1766054145930071000,9.653071044921875,0.2298433631658554,-0.47884035110473633,-0.33518823981285095
1766054145940111400,9.663111328125,0.49559974670410156,-0.10773907601833344,-0.21308395266532898
1766054145950090500,9.673090576171875,0.6320692300796509,-0.038307227194309235,-0.395043283700943
1766054145960070000,9.68306982421875,0.5650315880775452,0.09816227108240128,-0.5267243981361389
1766054145970110200,9.693110107421875,0.727837324142456,0.043095629662275314,-0.5602431893348694
1766054146010027000,9.733027099609375,-0.05506663769483566,-0.05985504388809204,-0.3280056416988373
1766054146020036900,9.743036865234375,-0.011971008032560349,0.06464344263076782,-0.3878606855869293
1766054146029985500,9.752985595703125,-0.12689268589019775,-0.31603461503982544,-0.3280056416988373
1766054146039995400,9.762995361328125,-0.033518824726343155,-0.4357447028160095,-0.16998831927776337
1766054146049974500,9.772974609375,-0.028730420395731926,-0.6224924325942993,-0.09576806426048279
1766054146069933000,9.79293310546875,-0.002394201699644327,0.23702596127986908,0.07182604819536209
1766054146079943000,9.80294287109375,0.043095629662275314,0.19393034279346466,0.15562310814857483
1766054146109880600,9.832880615234375,-0.19393034279346466,-0.3208230137825012,0.21547815203666687
1766054146119890400,9.842890380859375,-0.17717093229293823,-0.17956513166427612,0.22505496442317963
1766054146129839000,9.852839111328125,-0.33997663855552673,-0.090979665517807,0.2513911724090576
1766054146139818500,9.862818603515626,-0.3974374830722809,-0.11013327538967133,0.20350714027881622
1766054146149797600,9.872797607421875,-0.4572925269603729,0.014365210197865963,0.21308395266532898
1766054146159776800,9.88277685546875,-0.28969839215278625,0.05027823522686958,0.12928688526153564
1766054146169786600,9.89278662109375,-0.3495534360408783,-0.2322375625371933,0.17717093229293823
1766054146179796500,9.90279638671875,-0.2968810200691223,-0.2059013396501541,0.028730420395731926
1766054146189745200,9.9127451171875,-0.14844051003456116,-0.12449848651885986,-0.05746084079146385
1766054146199755000,9.922755126953126,-0.17956513166427612,-0.27054479718208313,0.043095629662275314
1766054146239733000,9.96273291015625,-0.2777273952960968,-0.22266076505184174,-0.06703764945268631
1766054146249773300,9.972773193359375,-0.12928688526153564,0.004788403399288654,0.07900865375995636
1766054146259752400,9.98275244140625,-0.12210428714752197,0.0071826050989329815,0.07422025501728058
1766054146269701000,9.992701171875,-0.13407529890537262,-0.22744916379451752,0.13407529890537262
1766054146279680500,10.002680419921875,-0.2585737705230713,-0.26096799969673157,0.1843535304069519
1766054146289659600,10.01265966796875,-0.31603461503982544,-0.26096799969673157,0.20111294090747833
1766054146319658500,10.042658447265625,-0.1388636976480484,-0.10055647045373917,0.07661445438861847
1766054146339708400,10.06270849609375,-0.31124621629714966,-0.05506663769483566,-0.090979665517807
1766054146349687800,10.072687744140625,-0.0694318488240242,0.35434186458587646,-0.026336219161748886
1766054146359697400,10.082697509765625,0.21547815203666687,0.2106897532939911,-0.07661445438861847
1766054146369707300,10.092707275390625,0.2801215946674347,-0.05027823522686958,-0.12689268589019775
1766054146379656000,10.102656005859375,0.2825157940387726,-0.30885201692581177,-0.06224924325942993
1766054146389665800,10.112665771484375,0.28730419278144836,-0.31842881441116333,-0.0071826050989329815
1766054146429613300,10.15261328125,0.05746084079146385,-0.28730419278144836,-0.016759412363171577
1766054146439623200,10.162623046875,0.08858546614646912,-0.12689268589019775,-0.019153613597154617
1766054146449632800,10.1726328125,0.002394201699644327,-0.10534487664699554,-0.05985504388809204
1766054146459612200,10.182612060546875,-0.05027823522686958,-0.031124621629714966,-0.09576806426048279
1766054146469621800,10.192621826171875,0,-0.0071826050989329815,-0.08858546614646912
1766054146479601200,10.20260107421875,0.17238251864910126,-0.047884032130241394,-0.16759411990642548
1766054146489610800,10.21261083984375,0.28730419278144836,-0.2992752194404602,-0.17717093229293823
1766054146499590100,10.222590087890625,0.23942017555236816,-0.2777273952960968,-0.12928688526153564
1766054146529589000,10.252589111328126,0.16759411990642548,0.181959331035614,-0.1149216815829277
1766054146539568000,10.262568115234375,0.1412578970193863,0.22266076505184174,-0.1149216815829277
1766054146549578000,10.272577880859375,0.17717093229293823,0.2082955539226532,-0.15562310814857483
1766054146559557000,10.28255712890625,0.12689268589019775,0.05506663769483566,-0.21787235140800476
1766054146569536500,10.29253662109375,0.18914192914962769,0.033518824726343155,-0.1173158809542656
1766054146579546000,10.302546142578125,0.21308395266532898,-0.002394201699644327,-0.1364694982767105
1766054146589494800,10.312494873046875,0.26096799969673157,-0.035913024097681046,-0.11252748221158981
1766054146599504600,10.322504638671875,0.2825157940387726,0.06464344263076782,-0.1364694982767105
1766054146609514500,10.332514404296875,0.24660277366638184,-0.023942016065120697,-0.2059013396501541
1766054146629503500,10.35250341796875,0.2753331959247589,-0.1364694982767105,-0.06703764945268631
1766054146639513000,10.36251318359375,0.26815059781074524,-0.0694318488240242,-0.043095629662275314
1766054146649523000,10.37252294921875,0.0694318488240242,-0.2849099934101105,-0.002394201699644327
1766054146659502300,10.38250244140625,-0.023942016065120697,-0.363918662071228,-0.002394201699644327
1766054146669481500,10.3924814453125,-0.16998831927776337,-0.35434186458587646,-0.0071826050989329815
1766054146679460600,10.402460693359375,-0.19632454216480255,-0.304063618183136,0.10295066982507706
1766054146689440000,10.41243994140625,-0.38307225704193115,-0.29209262132644653,0.12689268589019775
1766054146699449900,10.422449951171876,-0.2777273952960968,-0.22505496442317963,0.16759411990642548
1766054146709429000,10.432428955078125,-0.11013327538967133,-0.06703764945268631,0.1412578970193863
1766054146719408000,10.442408203125,0.009576806798577309,0.047884032130241394,0.1149216815829277
1766054146759447300,10.482447265625,0.031124621629714966,0.12689268589019775,0.28969839215278625
1766054146769426400,10.492426513671875,0.06224924325942993,0.021547814831137657,0.07900865375995636
1766054146779405800,10.50240576171875,0.07661445438861847,0.0694318488240242,0.17717093229293823
1766054146789385000,10.512385009765625,0.033518824726343155,-0.1364694982767105,0.0454898327589035
1766054146799364400,10.5223642578125,-0.090979665517807,-0.0933738648891449,0.10055647045373917
1766054146809374000,10.5323740234375,-0.12689268589019775,0.090979665517807,0.07900865375995636
1766054146819353300,10.542353271484375,-0.033518824726343155,0.5386953949928284,0.09576806426048279
1766054146829332500,10.55233251953125,-0.035913024097681046,0.3974374830722809,0.038307227194309235
1766054146849291000,10.572291015625,-0.08140286058187485,-0.16998831927776337,0.05506663769483566
1766054146859300900,10.58230078125,-0.3519476354122162,-0.363918662071228,0.13168109953403473
1766054146869310500,10.592310546875,-0.5530605912208557,-0.4836287498474121,0.06464344263076782
1766054146879289900,10.602289794921875,-0.5003881454467773,-0.48602294921875,0.05506663769483566
1766054146889299700,10.6122998046875,-0.4836287498474121,-0.42856210470199585,0.14604631066322327
1766054146899278800,10.62227880859375,-0.5674257874488831,-0.507570743560791,0.1388636976480484
1766054146909258000,10.632258056640625,-0.5578489899635315,-0.3208230137825012,0.038307227194309235
1766054146919267800,10.642267822265625,-0.38307225704193115,0.17956513166427612,-0.06464344263076782
1766054146929216500,10.652216552734375,-0.05985504388809204,0.569819986820221,-0.004788403399288654
1766054146949205500,10.67220556640625,0.038307227194309235,-0.1867477297782898,-0.05746084079146385
1766054146979204400,10.702204345703125,-0.181959331035614,-0.43335050344467163,-0.023942016065120697
1766054146989214200,10.712214111328125,-0.19393034279346466,-0.4213795065879822,-0.1412578970193863
1766054146999223800,10.722223876953125,-0.10055647045373917,-0.2801215946674347,-0.10295066982507706
1766054147009203200,10.732203125,0.06464344263076782,-0.11971008777618408,-0.05746084079146385
1766054147019182300,10.742182373046875,-0.040701430290937424,-0.026336219161748886,0.028730420395731926
1766054147039140900,10.762140869140625,0.06464344263076782,0.272938996553421,-0.07661445438861847
1766054147049150700,10.772150634765625,-0.014365210197865963,-0.17717093229293823,-0.004788403399288654
1766054147059160300,10.782160400390625,0.06464344263076782,-0.19632454216480255,0.043095629662275314
1766054147069139700,10.7921396484375,-0.1364694982767105,-0.3758896589279175,-0.07422025501728058
1766054147079118800,10.802118896484375,-0.21547815203666687,-0.4644751250743866,0.06703764945268631
1766054147089098200,10.81209814453125,-0.2992752194404602,-0.4189853072166443,0.031124621629714966
1766054147099107800,10.82210791015625,-0.3519476354122162,-0.016759412363171577,-0.12210428714752197
1766054147109056800,10.832056884765626,-0.21308395266532898,0.16519992053508759,0.016759412363171577
1766054147119096800,10.842096923828125,-0.17717093229293823,0.3016694188117981,-0.10534487664699554
1766054147129076200,10.852076171875,-0.08858546614646912,0.20111294090747833,-0.09576806426048279
1766054147159044400,10.88204443359375,-0.07661445438861847,-0.30885201692581177,-0.0694318488240242
1766054147179064000,10.90206396484375,-0.11252748221158981,-0.2346317619085312,-0.05746084079146385
1766054147189012700,10.9120126953125,-0.090979665517807,-0.05746084079146385,-0.05267243832349777
1766054147199053000,10.922052978515625,-0.047884032130241394,0.023942016065120697,-0.011971008032560349
1766054147209032200,10.9320322265625,-0.011971008032560349,0.3711012601852417,-0.009576806798577309
1766054147219011600,10.942011474609375,-0.09576806426048279,0.1412578970193863,0.0694318488240242
1766054147228990700,10.95199072265625,-0.1867477297782898,0.10295066982507706,0.031124621629714966
1766054147238970000,10.96197021484375,-0.22026655077934265,-0.019153613597154617,0.12210428714752197
1766054147268968700,10.99196875,-0.06224924325942993,-0.08379705995321274,-0.07182604819536209
1766054147278948000,11.001947998046875,0.13407529890537262,-0.31842881441116333,-0.004788403399288654
1766054147288927200,11.01192724609375,0.1388636976480484,-0.3926490843296051,-0.026336219161748886
1766054147298906600,11.02190673828125,0.033518824726343155,-0.19632454216480255,-0.031124621629714966
1766054147308885800,11.0318857421875,-0.2825157940387726,-0.043095629662275314,0.033518824726343155
1766054147318865000,11.041864990234375,-0.272938996553421,0.1149216815829277,0.026336219161748886
1766054147328844300,11.05184423828125,-0.3447650372982025,0.2753331959247589,0.0071826050989329815
1766054147338854100,11.061854248046876,-0.22266076505184174,0.1628057211637497,0.026336219161748886
1766054147348833300,11.071833251953125,-0.0933738648891449,-0.4644751250743866,-0.08619125932455063
1766054147378862600,11.101862548828125,0.24181437492370605,-0.10773907601833344,-0.19632454216480255
1766054147388841700,11.111841796875,0.3232172429561615,0.07900865375995636,-0.13168109953403473
1766054147398821000,11.121821044921875,0.45250412821769714,0.21308395266532898,-0.011971008032560349
1766054147408830700,11.131830810546875,0.26815059781074524,-0.07182604819536209,-0.14365209639072418
1766054147418840600,11.141840576171875,0.05027823522686958,0.038307227194309235,-0.026336219161748886
1766054147428820000,11.151820068359376,-0.06464344263076782,0.17956513166427612,-0.05746084079146385
1766054147438799000,11.161799072265625,-0.1867477297782898,0.021547814831137657,0.021547814831137657
1766054147448809000,11.17180908203125,-0.11971008777618408,0.10773907601833344,-0.05027823522686958
1766054147498674700,11.2216748046875,-0.22505496442317963,-0.17956513166427612,-0.023942016065120697
1766054147508684300,11.231684326171875,-0.1388636976480484,-0.22026655077934265,-0.023942016065120697
1766054147518694100,11.241694091796875,-0.0933738648891449,-0.07661445438861847,-0.019153613597154617
1766054147528704000,11.2517041015625,-0.06464344263076782,-0.19393034279346466,-0.07422025501728058
1766054147538683100,11.26168310546875,-0.021547814831137657,-0.19632454216480255,0.014365210197865963
1766054147548662300,11.271662353515625,-0.06703764945268631,-0.1628057211637497,-0.05746084079146385
1766054147578661000,11.3016611328125,-0.1364694982767105,-0.07422025501728058,0.002394201699644327
1766054147598650000,11.321650146484375,-0.2944868206977844,-0.14365209639072418,0.047884032130241394
1766054147608660000,11.331659912109375,-0.33279404044151306,0.12928688526153564,-0.031124621629714966
1766054147618669800,11.341669921875,0.040701430290937424,0.1364694982767105,0.0071826050989329815
1766054147628649000,11.35164892578125,0.12689268589019775,-0.0071826050989329815,0.002394201699644327
1766054147638628000,11.361628173828125,0.05985504388809204,-0.16998831927776337,-0.09576806426048279
1766054147648638000,11.371637939453125,0.05027823522686958,-0.24420857429504395,-0.031124621629714966
1766054147658647800,11.381647705078125,0.07661445438861847,-0.043095629662275314,-0.009576806798577309
1766054147688616000,11.411615966796875,0.038307227194309235,-0.1867477297782898,0.021547814831137657
1766054147698595300,11.42159521484375,-0.1628057211637497,-0.24420857429504395,-0.11971008777618408
1766054147708574500,11.431574462890625,-0.05746084079146385,-0.17717093229293823,-0.08619125932455063
1766054147718584300,11.441584228515625,-0.1149216815829277,-0.0694318488240242,-0.19153612852096558
1766054147728563500,11.4515634765625,-0.06703764945268631,0.1149216815829277,-0.08858546614646912
1766054147738542800,11.46154296875,-0.009576806798577309,0.2346317619085312,-0.05506663769483566
1766054147748491500,11.471491455078125,0.019153613597154617,0.1843535304069519,-0.07661445438861847
1766054147758501000,11.481501220703125,0.07900865375995636,0.1173158809542656,-0.047884032130241394
1766054147768511000,11.491510986328125,0.29209262132644653,0.13168109953403473,0
1766054147788469500,11.511469482421875,0.14604631066322327,-0.3998316824436188,-0.035913024097681046
1766054147798479400,11.521479248046875,0.06464344263076782,-0.38067805767059326,-0.035913024097681046
1766054147808458500,11.53145849609375,-0.05027823522686958,-0.2825157940387726,-0.05506663769483566
1766054147818468400,11.54146826171875,-0.035913024097681046,-0.19153612852096558,-0.040701430290937424
1766054147828447500,11.551447509765625,-0.08379705995321274,-0.19393034279346466,0
1766054147838457300,11.561457275390625,-0.10055647045373917,-0.11971008777618408,0.11252748221158981
1766054147848181800,11.571181640625,-0.1604115068912506,-0.10534487664699554,0.1149216815829277
1766054147857560800,11.580560791015625,-0.1628057211637497,-0.10534487664699554,0.11252748221158981
1766054147866940200,11.589940185546874,-0.10534487664699554,0.019153613597154617,0.11971008777618408
1766054147876380400,11.59938037109375,-0.16519992053508759,0.05746084079146385,0.09816227108240128
1766054147895230500,11.61823046875,0.023942016065120697,-0.14604631066322327,0.05746084079146385
1766054147904709600,11.627709716796875,-0.047884032130241394,-0.3663128614425659,0.026336219161748886
1766054147914389000,11.637388916015626,-0.040701430290937424,-0.2944868206977844,0.019153613597154617
1766054147924068400,11.647068359375,-0.035913024097681046,-0.07422025501728058,-0.12210428714752197
1766054147933878000,11.6568779296875,0.06224924325942993,0.07661445438861847,-0.11013327538967133
1766054147943657200,11.6666572265625,0.26336219906806946,0.27054479718208313,-0.16519992053508759
1766054147953667000,11.6766669921875,0.3519476354122162,0.26336219906806946,-0.0454898327589035
1766054147963646200,11.686646240234374,0.26575639843940735,0.043095629662275314,-0.08140286058187485
1766054147973625600,11.69662548828125,0.0454898327589035,-0.26815059781074524,-0.15562310814857483
1766054147983604700,11.706604736328124,0.0454898327589035,-0.4141969084739685,-0.11252748221158981
1766054148003563300,11.726563232421874,-0.08858546614646912,-0.2298433631658554,-0.031124621629714966
1766054148023582700,11.746582763671874,0.004788403399288654,0.14844051003456116,0.011971008032560349
1766054148033592600,11.756592529296874,0.011971008032560349,-0.06224924325942993,0.08140286058187485
1766054148043541200,11.766541259765624,-0.14844051003456116,-0.2825157940387726,0.035913024097681046
1766054148053520600,11.776520751953125,-0.09576806426048279,-0.0694318488240242,-0.004788403399288654
1766054148063530200,11.7865302734375,0.004788403399288654,-0.0694318488240242,-0.0454898327589035
1766054148073540000,11.7965400390625,0.07182604819536209,0.016759412363171577,-0.07661445438861847
1766054148083488800,11.80648876953125,0.19153612852096558,0.019153613597154617,-0.028730420395731926
1766054148093529000,11.816529052734374,0.18914192914962769,0.031124621629714966,-0.05267243832349777
1766054148133537500,11.85653759765625,-0.11252748221158981,0.016759412363171577,-0.05506663769483566
1766054148143517000,11.866516845703124,-0.090979665517807,-0.040701430290937424,-0.05267243832349777
1766054148153496000,11.87649609375,-0.15083470940589905,0.019153613597154617,-0.07182604819536209
1766054148163506000,11.886505859375,-0.09576806426048279,-0.0071826050989329815,-0.040701430290937424
1766054148173515800,11.896515869140625,-0.028730420395731926,0,-0.0454898327589035
1766054148183495000,11.906494873046874,-0.09816227108240128,-0.181959331035614,-0.040701430290937424
1766054148193504800,11.9165048828125,0.023942016065120697,0.011971008032560349,-0.08858546614646912
1766054148223442400,11.9464423828125,-0.002394201699644327,-0.07661445438861847,-0.08140286058187485
1766054148243462000,11.9664619140625,0.047884032130241394,-0.14844051003456116,-0.10773907601833344
1766054148253441300,11.976441162109374,0.016759412363171577,-0.1867477297782898,-0.1867477297782898
1766054148263390000,11.986389892578124,0.05267243832349777,-0.05027823522686958,-0.15083470940589905
1766054148273399800,11.99639990234375,-0.1604115068912506,-0.06224924325942993,-0.035913024097681046
1766054148283379000,12.00637890625,-0.11971008777618408,-0.05267243832349777,-0.05985504388809204
1766054148293358000,12.016358154296874,-0.10534487664699554,-0.021547814831137657,-0.002394201699644327
1766054148303368000,12.026367919921874,0.021547814831137657,-0.05985504388809204,-0.014365210197865963
1766054148333305600,12.0563056640625,-0.2059013396501541,0.20350714027881622,0.05506663769483566
1766054148353233700,12.076233642578124,-0.12449848651885986,-0.05267243832349777,0.07182604819536209
1766054148363212800,12.086212890625,-0.12210428714752197,-0.17238251864910126,-0.035913024097681046
1766054148373222700,12.09622265625,-0.1412578970193863,-0.15083470940589905,-0.047884032130241394
1766054148383171300,12.10617138671875,-0.07900865375995636,-0.07182604819536209,0.07182604819536209
1766054148393150700,12.116150634765624,0.1388636976480484,0.040701430290937424,0.05027823522686958
1766054148403160300,12.126160400390624,0,0.023942016065120697,0.12210428714752197
1766054148413139700,12.1361396484375,-0.1867477297782898,-0.15562310814857483,0.031124621629714966
1766054148423149600,12.146149658203125,-0.002394201699644327,-0.016759412363171577,0.009576806798577309
1766054148463096800,12.186096923828124,0.07661445438861847,-0.20350714027881622,-0.1173158809542656
1766054148483086000,12.206086181640625,-0.023942016065120697,-0.17477671802043915,-0.09576806426048279
1766054148493095700,12.216095703125,0.1149216815829277,0.038307227194309235,-0.06464344263076782
1766054148503044400,12.22604443359375,0.023942016065120697,0.05985504388809204,-0.08619125932455063
1766054148513054200,12.23605419921875,-0.06224924325942993,-0.011971008032560349,-0.12928688526153564
1766054148523033600,12.24603369140625,-0.05027823522686958,-0.0454898327589035,-0.15801730751991272
1766054148543022600,12.266022705078125,-0.16759411990642548,-0.043095629662275314,-0.002394201699644327
1766054148583000600,12.30600048828125,0.08858546614646912,-0.272938996553421,-0.009576806798577309
1766054148593010200,12.31601025390625,0.24181437492370605,-0.1388636976480484,-0.033518824726343155
1766054148602989600,12.325989501953124,0.36152446269989014,-0.14365209639072418,-0.016759412363171577
1766054148612968700,12.33596875,0.2944868206977844,-0.033518824726343155,-0.019153613597154617
1766054148622978600,12.345978515625,0.22505496442317963,0.16519992053508759,0.009576806798577309
1766054148662987000,12.385987060546874,-0.0694318488240242,-0.181959331035614,-0.05027823522686958
1766054148672966400,12.39596630859375,-0.09816227108240128,-0.22744916379451752,-0.09576806426048279
1766054148682945500,12.405945556640624,-0.12928688526153564,-0.1867477297782898,-0.0694318488240242
1766054148692925000,12.415925048828125,-0.12449848651885986,-0.05746084079146385,-0.047884032130241394
1766054148702904000,12.425904052734374,-0.14604631066322327,-0.06703764945268631,-0.1149216815829277
1766054148712914000,12.435913818359374,-0.2059013396501541,-0.12210428714752197,-0.090979665517807
1766054148722893000,12.44589306640625,-0.07422025501728058,0.014365210197865963,-0.043095629662275314
1766054148752830700,12.475830810546874,0.009576806798577309,0.035913024097681046,-0.05985504388809204
1766054148762840600,12.485840576171874,0.0071826050989329815,-0.0454898327589035,-0.06224924325942993
1766054148782799000,12.505799072265624,-0.08619125932455063,-0.1867477297782898,0.07900865375995636
1766054148792809000,12.51580908203125,-0.08619125932455063,-0.1843535304069519,0.002394201699644327
1766054148802757600,12.525757568359374,-0.1628057211637497,-0.3423708379268646,0.07900865375995636
1766054148812767200,12.535767333984374,-0.047884032130241394,-0.0071826050989329815,-0.033518824726343155
1766054148822777000,12.545777099609374,-0.08858546614646912,0.10773907601833344,0.035913024097681046
1766054148832787000,12.555786865234374,-0.0454898327589035,-0.040701430290937424,-0.014365210197865963
1766054148852745500,12.575745361328124,-0.033518824726343155,-0.07900865375995636,-0.07661445438861847
1766054148872704000,12.5957041015625,-0.0454898327589035,-0.12928688526153564,-0.11013327538967133
1766054148912743000,12.635742919921874,0.035913024097681046,-0.043095629662275314,0.031124621629714966
1766054148922722300,12.645722412109375,-0.05027823522686958,-0.09576806426048279,0
1766054148942680600,12.6656806640625,-0.12928688526153564,-0.31364041566848755,-0.07422025501728058
1766054148972679400,12.695679443359374,0.028730420395731926,0.23702596127986908,-0.07422025501728058
1766054148992668400,12.71566845703125,0.047884032130241394,-0.10055647045373917,-0.07422025501728058
1766054149012627000,12.735626953125,-0.05746084079146385,-0.21787235140800476,-0.15322890877723694
1766054149022606300,12.7456064453125,-0.014365210197865963,-0.17956513166427612,-0.07182604819536209
1766054149102623200,12.825623291015624,0.043095629662275314,-0.06703764945268631,0.004788403399288654
1766054149112602600,12.8356025390625,0.06703764945268631,0.028730420395731926,-0.011971008032560349
1766054149122612200,12.8456123046875,0.038307227194309235,-0.05506663769483566,-0.023942016065120697
1766054149132591600,12.855591552734374,-0.002394201699644327,-0.12210428714752197,-0.0071826050989329815
1766054149142601200,12.865601318359374,-0.0071826050989329815,0.021547814831137657,-0.0454898327589035
1766054149152580600,12.87558056640625,0.08858546614646912,0.17477671802043915,-0.11971008777618408
1766054149162559700,12.885559814453124,0.17717093229293823,0.21547815203666687,-0.1388636976480484
1766054149172569600,12.895569580078124,0.0694318488240242,-0.13407529890537262,-0.07661445438861847
1766054149202538000,12.9255380859375,-0.014365210197865963,-0.16998831927776337,-0.009576806798577309
1766054149212547600,12.935547607421874,0.1149216815829277,-0.3519476354122162,0.05027823522686958
1766054149222527000,12.94552685546875,-0.19153612852096558,-0.3280056416988373,-0.06703764945268631
1766054149232506000,12.955506103515624,-0.0071826050989329815,-0.3280056416988373,-0.002394201699644327
1766054149242454800,12.965454833984374,-0.07661445438861847,-0.4620809257030487,0.016759412363171577
1766054149252495000,12.9754951171875,-0.05506663769483566,-0.38307225704193115,0.07661445438861847
1766054149262474500,12.985474609375,-0.0694318488240242,-0.36152446269989014,0.0454898327589035
1766054149272453600,12.99545361328125,-0.12689268589019775,-0.21787235140800476,0.07422025501728058
1766054149282432800,13.005432861328124,-0.22026655077934265,-0.1149216815829277,0.0694318488240242
1766054149312431600,13.035431640625,0.15562310814857483,0.42377370595932007,0.035913024097681046
1766054149342400000,13.06539990234375,0.08379705995321274,-0.3495534360408783,-0.011971008032560349
1766054149352409600,13.07540966796875,0.07422025501728058,-0.2059013396501541,-0.043095629662275314
1766054149362358500,13.085358642578125,0.13407529890537262,-0.14844051003456116,-0.1173158809542656
1766054149372368100,13.0953681640625,0.11252748221158981,-0.1604115068912506,-0.14844051003456116
1766054149382316800,13.10531689453125,0.07661445438861847,-0.0454898327589035,-0.05746084079146385
1766054149392357000,13.115357177734374,-0.026336219161748886,-0.26815059781074524,-0.047884032130241394
1766054149412346000,13.13534619140625,0.016759412363171577,-0.10295066982507706,-0.023942016065120697
1766054149432335000,13.155335205078124,-0.023942016065120697,-0.28969839215278625,-0.019153613597154617
1766054149442314500,13.165314453125,0.08619125932455063,-0.08379705995321274,-0.21787235140800476
1766054149452293600,13.175293701171874,0.11252748221158981,-0.1149216815829277,0.035913024097681046
1766054149462303500,13.185303466796874,-0.031124621629714966,-0.20111294090747833,-0.1173158809542656
1766054149472282600,13.19528271484375,-0.035913024097681046,-0.16759411990642548,-0.06703764945268631
1766054149482231600,13.2052314453125,0.021547814831137657,0.011971008032560349,-0.14844051003456116
1766054149492271900,13.21527197265625,0.21787235140800476,-0.090979665517807,0.05746084079146385
1766054149502251000,13.2252509765625,0.12449848651885986,-0.3734954595565796,-0.21547815203666687
1766054149572197400,13.295197265625,-0.304063618183136,-0.22505496442317963,-0.038307227194309235
1766054149582176500,13.305176513671874,-0.19153612852096558,-0.17238251864910126,0.031124621629714966
1766054149592186400,13.315186279296874,-0.002394201699644327,-0.11971008777618408,-0.033518824726343155
1766054149602165500,13.32516552734375,0.15562310814857483,-0.23702596127986908,0.047884032130241394
1766054246584676600,110.30767651367188,-0.11013327538967133,0.031124621629714966,-0.1628057211637497
1766054246594517000,110.31751708984375,10.575188636779785,8.851364135742188,1.9560627937316895
1766054246604326700,110.32732666015625,0.0071826050989329815,0,0
1766054246614106000,110.33710620117188,-0.09816227108240128,-0.026336219161748886,0.06703764945268631
1766054246664063200,110.38706323242188,-0.0694318488240242,0.48602294921875,-0.3256114423274994
1766054246674042600,110.39704272460938,-0.10055647045373917,0.38307225704193115,-0.304063618183136
1766054246684021800,110.40702172851563,-0.24420857429504395,-0.019153613597154617,-0.2944868206977844
1766054246723999700,110.44699975585938,-0.15562310814857483,0.2825157940387726,0.019153613597154617
1766054246793915600,110.51691552734376,0.3208230137825012,0.07661445438861847,-0.22026655077934265
1766054246803925200,110.52692529296876,0.181959331035614,-0.09576806426048279,-0.21547815203666687
1766054246863831300,110.58683129882813,0.5410895943641663,0.4405331015586853,-0.29209262132644653
1766054246883759400,110.60675927734376,0.0454898327589035,0.10773907601833344,-0.12449848651885986
1766054246943696000,110.66669580078126,0.1412578970193863,0.05267243832349777,-0.08858546614646912
1766054246973633500,110.69663354492188,-0.24420857429504395,-0.10773907601833344,-0.2346317619085312
1766054247003632400,110.72663232421876,-0.1867477297782898,-0.16519992053508759,-0.07422025501728058
1766054247013611500,110.73661157226563,-0.06224924325942993,-0.05746084079146385,-0.014365210197865963
1766054247023591000,110.7465908203125,-0.17956513166427612,-0.1867477297782898,-0.27054479718208313
1766054247033600800,110.75660083007813,0.17477671802043915,-0.14844051003456116,0.016759412363171577
1766054247043610400,110.7666103515625,0.28969839215278625,-0.08858546614646912,-0.11971008777618408
1766054247053589800,110.77658984375,0.26096799969673157,-0.19871874153614044,-0.13168109953403473
1766054247063569000,110.78656884765626,0.3423708379268646,0.011971008032560349,-0.043095629662275314
1766054247073548000,110.79654809570313,0.5003881454467773,0.36152446269989014,-0.026336219161748886
1766054247093537300,110.81653735351563,0.47644615173339844,0.21308395266532898,-0.004788403399288654
1766054247113556700,110.836556640625,0.3902548849582672,0.17956513166427612,-0.033518824726343155
1766054247123566300,110.84656640625,0.3471592366695404,-0.10055647045373917,-0.08858546614646912
1766054247133545700,110.85654565429688,0.33518823981285095,-0.2561795711517334,-0.023942016065120697
1766054247143524900,110.86652490234376,0.29209262132644653,-0.15801730751991272,-0.040701430290937424
1766054247153534700,110.87653466796876,0.21308395266532898,0.002394201699644327,-0.035913024097681046
1766054247163544600,110.88654467773438,0.2849099934101105,0.21547815203666687,-0.011971008032560349
1766054247173523700,110.89652368164063,0.19632454216480255,0.15322890877723694,-0.07182604819536209
1766054247183564000,110.90656396484376,0.11971008777618408,0.14604631066322327,-0.12689268589019775
1766054247213563000,110.93656298828125,0.08619125932455063,0.040701430290937424,-0.2082955539226532
1766054247223572500,110.94657250976563,0.08619125932455063,0.033518824726343155,-0.20111294090747833
1766054247233552000,110.9565517578125,0.09576806426048279,0.11013327538967133,-0.12210428714752197
1766054247243561500,110.9665615234375,0.15801730751991272,0.07422025501728058,-0.11252748221158981
1766054247253540900,110.97654077148438,-0.06224924325942993,-0.06703764945268631,-0.08858546614646912
1766054247263520000,110.98652001953126,-0.10773907601833344,0.016759412363171577,0.004788403399288654
1766054247273529900,110.99652978515626,0.11971008777618408,0.12210428714752197,-0.035913024097681046
1766054247283448000,111.00644799804688,0.090979665517807,0.040701430290937424,0.026336219161748886
1766054247293427200,111.01642724609376,0.1173158809542656,0.07422025501728058,-0.038307227194309235
1766054247313477400,111.03647729492188,0.15083470940589905,-0.009576806798577309,-0.17477671802043915
1766054247323487200,111.0464873046875,0.05746084079146385,-0.009576806798577309,-0.09816227108240128
1766054247333466400,111.05646630859376,0.0071826050989329815,-0.2082955539226532,-0.12449848651885986
1766054247343445500,111.06644555664063,0.12689268589019775,0.043095629662275314,-0.10534487664699554
1766054247353455400,111.07645532226563,0.014365210197865963,-0.0694318488240242,-0.009576806798577309
1766054247363465200,111.08646533203125,0.026336219161748886,0.033518824726343155,-0.12928688526153564
1766054247373474800,111.09647485351563,0.08140286058187485,0.2106897532939911,-0.10534487664699554
1766054247383454200,111.1064541015625,0.1628057211637497,0.31364041566848755,-0.09816227108240128
1766054247413453000,111.136453125,-0.033518824726343155,0.26336219906806946,-0.08619125932455063
1766054247423432200,111.14643212890626,0.009576806798577309,0.2513911724090576,-0.19632454216480255
1766054247433411300,111.15641137695313,-0.06464344263076782,0.2777273952960968,-0.1843535304069519
1766054247443421200,111.16642114257813,-0.3280056416988373,0.24899697303771973,-0.19871874153614044
1766054247453400300,111.176400390625,-0.44532153010368347,0.4812345504760742,-0.3447650372982025
1766054247463379700,111.18637963867188,-0.8547300100326538,0.49799394607543945,-0.38546648621559143
1766054247473358800,111.19635888671876,-1.2713210582733154,0.19393034279346466,-0.35913026332855225
1766054247483368700,111.20636865234376,-1.6855180263519287,0.10295066982507706,-0.18914192914962769
1766054247493317400,111.2163173828125,-1.800439715385437,0.10295066982507706,0.05267243832349777
1766054247513245400,111.23624536132813,-2.183511972427368,0.35673606395721436,0.6607996821403503
1766054247523255300,111.24625537109375,-2.322375535964966,0.38307225704193115,0.9528923034667969
1766054247533265000,111.25626489257813,-2.2409727573394775,0.3256114423274994,0.7709329724311829
1766054247543244300,111.26624438476563,-2.343923568725586,0.023942016065120697,0.8810662031173706
1766054247553223400,111.27622338867188,-2.985569477081299,-1.2090718746185303,0.8212111592292786
1766054247563233300,111.2862333984375,-3.7493197917938232,-1.0558429956436157,1.4700398445129395
1766054247573243000,111.29624291992188,-3.818751811981201,-0.49559974670410156,1.7501614093780518
1766054247583252700,111.30625268554688,-4.4532151222229,-1.7357962131500244,1.556231141090393
1766054247593232000,111.31623193359376,-4.446032524108887,-2.0183119773864746,1.2473790645599365
1766054247603241700,111.32624169921876,-4.034229755401611,-1.9273324012756348,1.2042834758758545
1766054247623230700,111.34623071289063,-4.309563159942627,-3.064578056335449,1.802833914756775
1766054247633240600,111.35624047851563,-4.034229755401611,-3.5003228187561035,1.802833914756775
1766054247643219700,111.3662197265625,-4.091690540313721,-3.378218650817871,2.0159177780151367
1766054247653260000,111.37626000976563,-3.8163576126098633,-3.3207578659057617,1.4963760375976562
1766054247663239400,111.38623950195313,-2.9017724990844727,-2.765302896499634,1.625662922859192
1766054247673249000,111.3962490234375,-2.2385785579681396,-2.2385785579681396,1.3766659498214722
1766054247693268700,111.41626879882813,-1.0103530883789062,-1.4508862495422363,0.9313444495201111
1766054247703217400,111.42621752929688,-0.5985504388809204,-1.0965443849563599,0.3016694188117981
1766054247733216000,111.45621606445313,4.446032524108887,-5.743690013885498,-0.5770025849342346
1766054247743225900,111.46622583007813,4.436455726623535,-3.8163576126098633,-1.6208745241165161
