time,seconds_elapsed,z,y,x
1766054134466112300,-1.8108876953125,6.848077297210693,-6.602792263031006,-2.382721185684204
1766054134476122000,-1.8008779296875,6.848180294036865,-6.602235794067383,-2.3839669227600098
1766054134506151400,-1.7708486328125,6.849117755889893,-6.601092338562012,-2.38444185256958
1766054134516161300,-1.760838623046875,6.850795745849609,-6.599279880523682,-2.384636163711548
1766054134556139300,-1.72086083984375,6.8539137840271,-6.597240447998047,-2.381316900253296
1766054134566148900,-1.71085107421875,6.857146263122559,-6.593599796295166,-2.3820981979370117
1766054134576128300,-1.700871826171875,6.859623432159424,-6.589367866516113,-2.3866682052612305
1766054134636064800,-1.640935302734375,6.863925457000732,-6.58556604385376,-2.384791851043701
1766054134646105000,-1.63089501953125,6.863639831542969,-6.587149143218994,-2.3812386989593506
1766054134656114700,-1.62088525390625,6.8649210929870605,-6.588348388671875,-2.374218702316284
1766054134666124500,-1.61087548828125,6.868992328643799,-6.58595085144043,-2.3690884113311768
1766054134676073200,-1.6009267578125,6.876084327697754,-6.5815749168396,-2.3606622219085693
1766054134696092700,-1.5809072265625,6.885840892791748,-6.578113555908203,-2.3417937755584717
1766054134716112400,-1.5608876953125,6.882875919342041,-6.585317134857178,-2.3302361965179443
1766054134736131800,-1.5408681640625,6.876784801483154,-6.594997882843018,-2.320821523666382
1766054134756090400,-1.52090966796875,6.882232666015625,-6.589998245239258,-2.3188748359680176
1766054134766100200,-1.510899658203125,6.8832550048828125,-6.588685035705566,-2.319572687149048
1766054134776109800,-1.50089013671875,6.882745265960693,-6.588171005249023,-2.3225440979003906
1766054134786089200,-1.490910888671875,6.883427143096924,-6.586144924163818,-2.326268196105957
1766054134826097700,-1.45090234375,6.876591682434082,-6.587231159210205,-2.343345880508423
1766054134836107500,-1.440892578125,6.8718976974487305,-6.590460300445557,-2.348026752471924
1766054134846086700,-1.430913330078125,6.869234085083008,-6.5925798416137695,-2.3498735427856445
1766054134856096500,-1.420903564453125,6.8663330078125,-6.594796657562256,-2.3521292209625244
1766054134866106000,-1.410893798828125,6.8667826652526855,-6.593860626220703,-2.3534417152404785
1766054134876085500,-1.40091455078125,6.868648529052734,-6.5912957191467285,-2.355180501937866
1766054134886095400,-1.390904541015625,6.871068000793457,-6.588059902191162,-2.3571770191192627
1766054134916124400,-1.36087548828125,6.87301778793335,-6.585041522979736,-2.359927177429199
1766054134926103800,-1.350896240234375,6.872710704803467,-6.584499359130859,-2.3623299598693848
1766054134936113700,-1.34088623046875,6.872634410858154,-6.58381986618042,-2.3644485473632812
1766054134946123300,-1.330876708984375,6.8751678466796875,-6.580059051513672,-2.3675484657287598
1766054134956102700,-1.3208974609375,6.877891540527344,-6.576693058013916,-2.368988037109375
1766054134966112300,-1.3108876953125,6.881969928741455,-6.572317600250244,-2.369288444519043
1766054134976091600,-1.300908447265625,6.885695934295654,-6.568249702453613,-2.3697426319122314
1766054134986101200,-1.290898681640625,6.887883186340332,-6.566088676452637,-2.3693721294403076
1766054134996111000,-1.280888916015625,6.8885297775268555,-6.565749645233154,-2.368434429168701
1766054135026140400,-1.250859619140625,6.889733791351318,-6.566258907318115,-2.363513231277466
1766054135036119600,-1.24088037109375,6.889777183532715,-6.566744804382324,-2.3620386123657227
1766054135046099000,-1.230901123046875,6.891224384307861,-6.567136287689209,-2.356721878051758
1766054135056139300,-1.22086083984375,6.892245769500732,-6.566935062408447,-2.3542957305908203
1766054135066118400,-1.210881591796875,6.89255952835083,-6.567201614379883,-2.352633237838745
1766054135076067000,-1.200932861328125,6.890988826751709,-6.56950569152832,-2.350799083709717
1766054135086107400,-1.190892578125,6.889294147491455,-6.571591377258301,-2.3499341011047363
1766054135096086800,-1.180913330078125,6.887121200561523,-6.573533058166504,-2.3508777618408203
1766054135106035500,-1.170964599609375,6.886804103851318,-6.572884559631348,-2.3536157608032227
1766054135125963500,-1.151036376953125,6.888622283935547,-6.569835186004639,-2.356809377670288
1766054135136003600,-1.140996337890625,6.891384601593018,-6.566828727722168,-2.357111930847168
1766054135145983000,-1.13101708984375,6.892080307006836,-6.565309524536133,-2.359307050704956
1766054135155962000,-1.121037841796875,6.891150951385498,-6.565699100494385,-2.3609392642974854
1766054135165972000,-1.111028076171875,6.888977527618408,-6.567224025726318,-2.3630354404449463
1766054135176012300,-1.10098779296875,6.886437892913818,-6.568298816680908,-2.367447853088379
1766054135185991400,-1.091008544921875,6.885913372039795,-6.568416595458984,-2.3686492443084717
1766054135195970800,-1.081029296875,6.886554718017578,-6.567896366119385,-2.368225574493408
1766054135205980400,-1.07101953125,6.889181137084961,-6.565224647521973,-2.3679935932159424
1766054135215959800,-1.061040283203125,6.890758514404297,-6.563082218170166,-2.369346857070923
1766054135245928000,-1.031072021484375,6.8914361000061035,-6.561001777648926,-2.3731327056884766
1766054135255937800,-1.021062255859375,6.891447067260742,-6.560290336608887,-2.3750650882720947
1766054135265917000,-1.0110830078125,6.89204216003418,-6.55961275100708,-2.3752105236053467
1766054135275835100,-1.001164794921875,6.893995761871338,-6.557547092437744,-2.375244379043579
1766054135285845000,-0.991155029296875,6.896966934204102,-6.55466365814209,-2.3745782375335693
1766054135295824100,-0.98117578125,6.898895740509033,-6.552802562713623,-2.3741116523742676
1766054135305834000,-0.971166015625,6.900437831878662,-6.551684856414795,-2.3727128505706787
1766054135315843800,-0.96115625,6.9007463455200195,-6.551562786102295,-2.372154474258423
1766054135345842400,-0.931157470703125,6.891603946685791,-6.561450004577637,-2.371403932571411
1766054135365801000,-0.911198974609375,6.890142440795898,-6.563517093658447,-2.369929075241089
1766054135385820700,-0.891179443359375,6.895508766174316,-6.557967662811279,-2.36968731880188
1766054135395830300,-0.881169677734375,6.896056175231934,-6.557476043701172,-2.3694546222686768
1766054135405809700,-0.8711904296875,6.892293453216553,-6.560818672180176,-2.371148109436035
1766054135415819300,-0.8611806640625,6.888925552368164,-6.564107418060303,-2.3718314170837402
1766054135425798700,-0.851201416015625,6.884786605834961,-6.567927837371826,-2.373274564743042
1766054135435808300,-0.841191650390625,6.884367942810059,-6.568180084228516,-2.3737902641296387
1766054135455766800,-0.821233154296875,6.8898115158081055,-6.561921119689941,-2.3753066062927246
1766054135465807000,-0.81119287109375,6.892752170562744,-6.5590057373046875,-2.3748269081115723
1766054135475786500,-0.801213623046875,6.893160343170166,-6.55852746963501,-2.3749642372131348
1766054135485796000,-0.791203857421875,6.8915629386901855,-6.559963226318359,-2.375633716583252
1766054135495745000,-0.7812548828125,6.890057563781738,-6.56171989440918,-2.375145673751831
1766054135505724200,-0.77127587890625,6.887277603149414,-6.564233303070068,-2.3762645721435547
1766054135515734000,-0.761265869140625,6.885812759399414,-6.565383434295654,-2.377333641052246
1766054135525713200,-0.751286865234375,6.885425567626953,-6.5656819343566895,-2.3776297569274902
1766054135535753500,-0.74124658203125,6.885837554931641,-6.565058708190918,-2.3781580924987793
1766054135545732600,-0.731267333984375,6.887146949768066,-6.563576698303223,-2.378458261489868
1766054135565721600,-0.7112783203125,6.884751796722412,-6.565930366516113,-2.3788957595825195
1766054135575762000,-0.701238037109375,6.881528854370117,-6.569266319274902,-2.379011392593384
1766054135585741300,-0.6912587890625,6.8780059814453125,-6.57293176651001,-2.379072904586792
1766054135595751000,-0.6812490234375,6.8742218017578125,-6.576869010925293,-2.379129648208618
1766054135605730300,-0.671269775390625,6.867722988128662,-6.583134651184082,-2.380568742752075
1766054135615740000,-0.661260009765625,6.864776134490967,-6.585838794708252,-2.381592273712158
1766054135625749800,-0.651250244140625,6.862422943115234,-6.588280200958252,-2.381619691848755
1766054135635759600,-0.641240478515625,6.862741470336914,-6.58767557144165,-2.382373571395874
1766054135645738800,-0.63126123046875,6.8642377853393555,-6.586199760437012,-2.382140636444092
1766054135665758200,-0.61124169921875,6.864861488342285,-6.5858259201049805,-2.381380319595337
1766054135675768000,-0.60123193359375,6.861321449279785,-6.589695453643799,-2.380876302719116
1766054135685716700,-0.591283203125,6.856850624084473,-6.594165802001953,-2.381378173828125
1766054135695726600,-0.5812734375,6.854135990142822,-6.596756935119629,-2.38201904296875
1766054135705705700,-0.571294189453125,6.8537116050720215,-6.59695291519165,-2.3826987743377686
1766054135715685000,-0.56131494140625,6.854435920715332,-6.59634256362915,-2.3823046684265137
1766054135725664300,-0.551335693359375,6.854550838470459,-6.595885276794434,-2.3832356929779053
1766054135735674000,-0.541325927734375,6.854390621185303,-6.596175193786621,-2.3828940391540527
1766054135755693600,-0.521306396484375,6.8522491455078125,-6.5974836349487305,-2.385432481765747
1766054135795641000,-0.48135888671875,6.845241069793701,-6.602053165435791,-2.392897129058838
1766054135805651000,-0.47134912109375,6.846643924713135,-6.600569725036621,-2.3929758071899414
1766054135815630000,-0.461369873046875,6.848808765411377,-6.5982747077941895,-2.39311146736145
1766054135825609500,-0.451390625,6.850336074829102,-6.596277236938477,-2.3942465782165527
1766054135835588600,-0.441411376953125,6.850128650665283,-6.596607208251953,-2.3939311504364014
1766054135845568000,-0.431431884765625,6.847626686096191,-6.598602294921875,-2.395592212677002
1766054135855608000,-0.421391845703125,6.8450751304626465,-6.600809574127197,-2.3968007564544678
1766054135895586300,-0.38141357421875,6.847703456878662,-6.596632480621338,-2.400789737701416
1766054135905596000,-0.371404052734375,6.847787857055664,-6.5962677001953125,-2.4015519618988037
1766054135925585000,-0.3514150390625,6.847236633300781,-6.597219467163086,-2.4005064964294434
1766054136005663200,-0.271336669921875,6.829416275024414,-6.622028827667236,-2.3828964233398438
1766054136025621500,-0.25137841796875,6.826045989990234,-6.62459659576416,-2.3854150772094727
1766054136035631400,-0.24136865234375,6.822290420532227,-6.627514362335205,-2.3880515098571777
1766054136045580000,-0.231419921875,6.819454669952393,-6.6299614906311035,-2.38936185836792
1766054136055559400,-0.221440673828125,6.818397521972656,-6.630540370941162,-2.3907692432403564
1766054136065538600,-0.21146142578125,6.817718505859375,-6.630619525909424,-2.3924882411956787
1766054136085527600,-0.191472412109375,6.815240859985352,-6.632385730743408,-2.3946492671966553
1766054136115526400,-0.1614736328125,6.806524753570557,-6.63966703414917,-2.3992562294006348
1766054136125536300,-0.151463623046875,6.805843353271484,-6.6401753425598145,-2.399785280227661
1766054136135545900,-0.1414541015625,6.8046770095825195,-6.640944957733154,-2.4009594917297363
1766054136145525200,-0.131474853515625,6.803401947021484,-6.642166614532471,-2.4011940956115723
1766054136155534800,-0.121465087890625,6.796977519989014,-6.649215221405029,-2.399881362915039
1766054136165514200,-0.11148583984375,6.7922773361206055,-6.654096603393555,-2.3996574878692627
1766054136175554600,-0.101445556640625,6.79077672958374,-6.655237674713135,-2.400740385055542
1766054136205553200,-0.07144677734375,6.791402816772461,-6.653081893920898,-2.4049410820007324
1766054136225511700,-0.05148828125,6.789985179901123,-6.653590679168701,-2.407536029815674
1766054136235521500,-0.041478515625,6.788478851318359,-6.6541290283203125,-2.410292625427246
1766054136245500700,-0.031499267578125,6.786882400512695,-6.655437469482422,-2.411175012588501
1766054136255480000,-0.02152001953125,6.7863874435424805,-6.655973434448242,-2.4110891819000244
1766054136265489700,-0.01151025390625,6.78517484664917,-6.657301902770996,-2.4108352661132812
1766054136275469000,-0.001531005859375,6.781467437744141,-6.661742687225342,-2.408996343612671
1766054136285448200,0.0084482421875,6.777546405792236,-6.66663122177124,-2.406508445739746
1766054136295488500,0.018488525390625,6.774506092071533,-6.668960094451904,-2.408616781234741
1766054136305468000,0.028468017578125,6.772408485412598,-6.672083854675293,-2.4058618545532227
1766054136315416600,0.03841650390625,6.772891044616699,-6.671611309051514,-2.4058127403259277
1766054136325426200,0.04842626953125,6.773041725158691,-6.670920372009277,-2.407304525375366
1766054136335436000,0.05843603515625,6.773429870605469,-6.6703081130981445,-2.4079108238220215
1766054136345446000,0.06844580078125,6.77593469619751,-6.6669135093688965,-2.410261631011963
1766054136355425000,0.078425048828125,6.776399612426758,-6.666247367858887,-2.4108006954193115
1766054136365404400,0.088404296875,6.777692794799805,-6.664615631103516,-2.411675453186035
1766054136375414000,0.0984140625,6.777021884918213,-6.664543151855469,-2.4137585163116455
1766054136385393400,0.108393310546875,6.774758338928223,-6.666359901428223,-2.4150965213775635
1766054136435381200,0.15838134765625,6.773509502410889,-6.666609764099121,-2.4179084300994873
1766054136455339500,0.178339599609375,6.7720842361450195,-6.6673808097839355,-2.419771432876587
1766054136465379800,0.1883798828125,6.768691539764404,-6.670446872711182,-2.4208147525787354
1766054136475359200,0.198359130859375,6.768406867980957,-6.6703877449035645,-2.42177414894104
1766054136485338400,0.20833837890625,6.767851829528809,-6.670542240142822,-2.422900915145874
1766054136495348200,0.21834814453125,6.764368057250977,-6.674013614654541,-2.4230687618255615
1766054136505327400,0.228327392578125,6.763566017150879,-6.6741414070129395,-2.4249536991119385
1766054136515306800,0.238306640625,6.76458215713501,-6.673280715942383,-2.4244885444641113
1766054136525316400,0.24831640625,6.764301300048828,-6.673771858215332,-2.4239206314086914
1766054136535326200,0.258326171875,6.764451026916504,-6.673288822174072,-2.424830198287964
1766054136545336000,0.268336181640625,6.762724876403809,-6.674956798553467,-2.4250569343566895
1766054136555315200,0.278315185546875,6.762695789337158,-6.673852443695068,-2.428173303604126
1766054136565294300,0.28829443359375,6.760776519775391,-6.675077438354492,-2.4301514625549316
1766054136575273700,0.298273681640625,6.7572550773620605,-6.6795525550842285,-2.4276490211486816
1766054136595293200,0.318293212890625,6.747894763946533,-6.68769645690918,-2.4312584400177
1766054136615313000,0.33831298828125,6.742678642272949,-6.691568851470947,-2.435072898864746
1766054136635271200,0.358271240234375,6.739531517028809,-6.692359447479248,-2.4416024684906006
1766054136645250600,0.36825048828125,6.737649917602539,-6.693851947784424,-2.4427058696746826
1766054136655260200,0.37826025390625,6.739017963409424,-6.692099094390869,-2.4437332153320312
1766054136665270000,0.38827001953125,6.743499279022217,-6.687073707580566,-2.4451301097869873
1766054136675249400,0.39824951171875,6.748457431793213,-6.681865692138672,-2.4456892013549805
1766054136685228500,0.408228515625,6.752462387084961,-6.6793742179870605,-2.441434860229492
1766054136695238400,0.41823828125,6.751258373260498,-6.681868076324463,-2.437936305999756
1766054136705217500,0.428217529296875,6.74890661239624,-6.686377048492432,-2.432080030441284
1766054136725206500,0.44820654296875,6.739930152893066,-6.697760581970215,-2.4256393909454346
1766054136765123600,0.48812353515625,6.758964538574219,-6.6763200759887695,-2.4317750930786133
1766054136775164000,0.498163818359375,6.758425235748291,-6.675934314727783,-2.434333324432373
1766054136785143000,0.50814306640625,6.752915859222412,-6.6796770095825195,-2.4393510818481445
1766054136795122400,0.518122314453125,6.748630523681641,-6.683294296264648,-2.441303253173828
1766054136805101600,0.5281015625,6.746218681335449,-6.684753894805908,-2.443969249725342
1766054136815111400,0.538111328125,6.7439422607421875,-6.687011241912842,-2.444075584411621
1766054136845079600,0.56807958984375,6.775938987731934,-6.656533718109131,-2.438769578933716
1766054136855059000,0.578058837890625,6.784541130065918,-6.647167682647705,-2.440403461456299
1766054136865038000,0.5880380859375,6.787683010101318,-6.6434431076049805,-2.4418060779571533
1766054136875017500,0.598017578125,6.783954620361328,-6.645907402038574,-2.445457696914673
1766054136884996600,0.60799658203125,6.778128147125244,-6.650176525115967,-2.450007438659668
1766054136895037000,0.618036865234375,6.779129981994629,-6.6484808921813965,-2.451833724975586
1766054136905046800,0.628046875,6.782613277435303,-6.642859935760498,-2.457432270050049
1766054136915026000,0.63802587890625,6.800816059112549,-6.62069034576416,-2.466933488845825
1766054136945024800,0.668024658203125,6.874650478363037,-6.528003692626953,-2.5089328289031982
1766054136965013800,0.688013671875,6.910231113433838,-6.476467609405518,-2.5444958209991455
1766054136975054000,0.69805419921875,6.939355373382568,-6.4389729499816895,-2.5603444576263428
1766054136985063700,0.708063720703125,6.952725887298584,-6.414647579193115,-2.5850119590759277
1766054136995043000,0.71804296875,6.977956771850586,-6.37290620803833,-2.62003231048584
1766054137005022200,0.728022216796875,6.904110908508301,-6.432267189025879,-2.6701300144195557
1766054137015032000,0.738031982421875,6.855050086975098,-6.463101863861084,-2.721580743789673
1766054137025041700,0.748041748046875,6.79919958114624,-6.4920501708984375,-2.7918763160705566
1766054137065020000,0.78802001953125,6.473505020141602,-6.702187538146973,-3.056926727294922
1766054137074999000,0.7979990234375,6.311004638671875,-6.82503604888916,-3.124180793762207
1766054137084978200,0.807978271484375,6.1032023429870605,-6.983611583709717,-3.185981035232544
1766054137094988000,0.817988037109375,5.858132362365723,-7.172661304473877,-3.225773572921753
1766054137104967400,0.827967529296875,5.6965460777282715,-7.283550262451172,-3.266443967819214
1766054137114946600,0.837946533203125,5.386178970336914,-7.50335693359375,-3.295316457748413
1766054137124956400,0.847956298828125,4.951432228088379,-7.785538673400879,-3.3225157260894775
1766054137134935600,0.857935546875,4.783072471618652,-7.88539457321167,-3.333641290664673
1766054137154955000,0.877955078125,4.046164512634277,-8.266494750976562,-3.385852336883545
1766054137164934400,0.887934326171875,3.7393436431884766,-8.39957332611084,-3.4109947681427
1766054137174974700,0.897974609375,3.532358169555664,-8.48153305053711,-3.4287664890289307
1766054137184953900,0.907953857421875,3.194962978363037,-8.60617446899414,-3.449111223220825
1766054137194933200,0.917933349609375,2.7230224609375,-8.766230583190918,-3.4509024620056152
1766054137204912400,0.927912353515625,2.3559389114379883,-8.871866226196289,-3.4510746002197266
1766054137214922200,0.937922119140625,1.9416335821151733,-8.971979141235352,-3.450228691101074
1766054137224931800,0.947931884765625,1.689373254776001,-9.021976470947266,-3.452587604522705
1766054137234911200,0.9579111328125,1.2817258834838867,-9.09457015991211,-3.4374938011169434
1766054137244920800,0.9679208984375,0.680586040019989,-9.163777351379395,-3.4252562522888184
1766054137254869800,0.977869873046875,0.24345074594020844,-9.188140869140625,-3.4189510345458984
1766054137284899000,1.007899169921875,-0.7442778944969177,-9.173202514648438,-3.3865652084350586
1766054137294908700,1.01790869140625,-1.2627567052841187,-9.124412536621094,-3.364661455154419
1766054137304918500,1.02791845703125,-1.590576410293579,-9.078422546386719,-3.350029230117798
1766054137314897700,1.037897705078125,-1.894325852394104,-9.025605201721191,-3.334721803665161
1766054137324877000,1.047876953125,-2.0497019290924072,-8.994736671447754,-3.3262369632720947
1766054137334917400,1.05791748046875,-2.425516366958618,-8.911166191101074,-3.2982449531555176
1766054137344896500,1.067896484375,-2.554243326187134,-8.878813743591309,-3.2882986068725586
1766054137354906400,1.07790625,-2.8643765449523926,-8.795650482177734,-3.256112575531006
1766054137374925800,1.09792578125,-3.18851375579834,-8.696537017822266,-3.2208712100982666
1766054137384905000,1.107905029296875,-3.503981351852417,-8.59356689453125,-3.169084310531616
1766054137394884400,1.11788427734375,-3.7324283123016357,-8.513320922851562,-3.1245369911193848
1766054137404863500,1.127863525390625,-3.892683506011963,-8.457942962646484,-3.079049587249756
1766054137414903800,1.13790380859375,-3.9615116119384766,-8.43371295928955,-3.057661533355713
1766054137424913700,1.14791357421875,-4.0965986251831055,-8.388116836547852,-3.004624366760254
1766054137434862300,1.1578623046875,-4.178969383239746,-8.363862037658691,-2.958454132080078
1766054137444902700,1.167902587890625,-4.252175807952881,-8.339826583862305,-2.921755790710449
1766054137464922000,1.187922119140625,-4.349100589752197,-8.309382438659668,-2.865286350250244
1766054137474870800,1.197870849609375,-4.364938735961914,-8.304386138916016,-2.8556859493255615
1766054137484880600,1.207880615234375,-4.378190040588379,-8.299776077270508,-2.8487930297851562
1766054137494921000,1.2179208984375,-4.380176067352295,-8.29864501953125,-2.8490254878997803
1766054137504900000,1.227900146484375,-4.38322114944458,-8.295199394226074,-2.8543636798858643
1766054137514910000,1.237909912109375,-4.379208564758301,-8.294264793395996,-2.863239049911499
1766054137524889000,1.24788916015625,-4.388047695159912,-8.28396224975586,-2.8794798851013184
1766054137534868500,1.257868408203125,-4.349134922027588,-8.295099258422852,-2.9063267707824707
1766054137544878000,1.267878173828125,-4.27470588684082,-8.330622673034668,-2.9151360988616943
1766054137554888000,1.277887939453125,-4.270726680755615,-8.321935653686523,-2.945622444152832
1766054137594896400,1.317896484375,-4.160483360290527,-8.353211402893066,-3.0140655040740967
1766054137614855000,1.33785498046875,-4.021530628204346,-8.404295921325684,-3.0603017807006836
1766054137624864800,1.34786474609375,-3.9536495208740234,-8.424148559570312,-3.093986749649048
1766054137634844000,1.357843994140625,-3.8881561756134033,-8.441893577575684,-3.1284308433532715
1766054137644853800,1.367853759765625,-3.8650221824645996,-8.449313163757324,-3.137056589126587
1766054137654863600,1.377863525390625,-3.8191189765930176,-8.465421676635742,-3.1498231887817383
1766054137664842800,1.3878427734375,-3.8053152561187744,-8.470961570739746,-3.151630401611328
1766054137694811100,1.41781103515625,-3.568964958190918,-8.565805435180664,-3.1717309951782227
1766054137704851500,1.4278515625,-3.327199697494507,-8.663763999938965,-3.1684906482696533
1766054137714861000,1.437861083984375,-3.2326834201812744,-8.697010040283203,-3.1752429008483887
1766054137724840400,1.44784033203125,-3.0012574195861816,-8.78484058380127,-3.160611629486084
1766054137734880800,1.457880859375,-2.9431540966033936,-8.80879020690918,-3.1485652923583984
1766054137744890400,1.467890380859375,-2.830420970916748,-8.850701332092285,-3.1343636512756348
1766054137754869800,1.477869873046875,-2.723738193511963,-8.889516830444336,-3.119000196456909
1766054137764879400,1.48787939453125,-2.606698751449585,-8.928950309753418,-3.106339931488037
1766054137774858800,1.497858642578125,-2.3983731269836426,-8.992016792297363,-3.0922207832336426
1766054137794847700,1.51784765625,-2.1632297039031982,-9.0542573928833,-3.0840303897857666
1766054137804796400,1.52779638671875,-1.9685540199279785,-9.105417251586914,-3.0637481212615967
1766054137814806300,1.53780615234375,-1.9135990142822266,-9.115933418273926,-3.067293167114258
1766054137824785400,1.547785400390625,-1.8000459671020508,-9.146360397338867,-3.0453810691833496
1766054137834795300,1.557795166015625,-1.727421760559082,-9.165059089660645,-3.031193256378174
1766054137844804900,1.567804931640625,-1.6908888816833496,-9.172826766967773,-3.0282933712005615
1766054137854814700,1.577814697265625,-1.6011515855789185,-9.194711685180664,-3.010645866394043
1766054137864793900,1.5877939453125,-1.5420280694961548,-9.209711074829102,-2.9956214427948
1766054137874803700,1.5978037109375,-1.4987664222717285,-9.221817016601562,-2.980302333831787
1766054137894823200,1.6178232421875,-1.4424395561218262,-9.241767883300781,-2.946101188659668
1766054137904833000,1.6278330078125,-1.4340996742248535,-9.24648666381836,-2.9353504180908203
1766054137914812200,1.637812255859375,-1.384583592414856,-9.2546968460083,-2.9332401752471924
1766054137924822000,1.647822021484375,-1.3614511489868164,-9.25829029083252,-2.9327332973480225
1766054137934831900,1.657831787109375,-1.3228633403778076,-9.26391887664795,-2.9326071739196777
1766054137944811000,1.66781103515625,-1.3137469291687012,-9.266867637634277,-2.927393913269043
1766054137954820900,1.67782080078125,-1.3105202913284302,-9.26636791229248,-2.9304134845733643
1766054137964830700,1.687830810546875,-1.3224375247955322,-9.266519546508789,-2.9245870113372803
1766054137974840300,1.69784033203125,-1.3417302370071411,-9.263877868652344,-2.9241626262664795
1766054138004778000,1.727778076171875,-1.4669172763824463,-9.244741439819336,-2.9245998859405518
1766054138014818300,1.737818359375,-1.4985078573226929,-9.24074935913086,-2.9212048053741455
1766054138024797700,1.747797607421875,-1.545681357383728,-9.234026908874512,-2.917877674102783
1766054138034776800,1.75777685546875,-1.5881845951080322,-9.228875160217285,-2.9113411903381348
1766054138044786700,1.76778662109375,-1.6505776643753052,-9.220847129821777,-2.9020681381225586
1766054138054827000,1.777826904296875,-1.658809781074524,-9.218805313110352,-2.903857946395874
1766054138064836600,1.787836669921875,-1.6636615991592407,-9.21970272064209,-2.898221969604492
1766054138074846500,1.797846435546875,-1.6594395637512207,-9.222221374511719,-2.8926265239715576
1766054138094866000,1.817865966796875,-1.65668785572052,-9.235366821289062,-2.8519809246063232
1766054138104875800,1.827875732421875,-1.664090871810913,-9.239506721496582,-2.834207534790039
1766054138114824400,1.837824462890625,-1.6747069358825684,-9.240245819091797,-2.8255279064178467
1766054138124803800,1.847803955078125,-1.689145803451538,-9.243659019470215,-2.8056986331939697
1766054138134813400,1.8578134765625,-1.6970535516738892,-9.244965553283691,-2.7966113090515137
1766054138144823300,1.8678232421875,-1.7063827514648438,-9.24481201171875,-2.7914352416992188
1766054138154772000,1.87777197265625,-1.7060706615447998,-9.245509147644043,-2.7893192768096924
1766054138164781800,1.88778173828125,-1.705302357673645,-9.246618270874023,-2.7861108779907227
1766054138174791400,1.89779150390625,-1.7018427848815918,-9.247815132141113,-2.7842519283294678
1766054138184801300,1.90780126953125,-1.6960326433181763,-9.24907112121582,-2.7836289405822754
1766054138194750000,1.91775,-1.6983304023742676,-9.248246192932129,-2.784960985183716
1766054138224779300,1.947779296875,-1.6871604919433594,-9.25344181060791,-2.774470090866089
1766054138234758700,1.957758544921875,-1.6758394241333008,-9.255836486816406,-2.773343324661255
1766054138244799000,1.967799072265625,-1.672852635383606,-9.256219863891602,-2.7738699913024902
1766054138254778000,1.977778076171875,-1.6608597040176392,-9.259950637817383,-2.768625497817993
1766054138264818400,1.987818359375,-1.6554069519042969,-9.261750221252441,-2.76586651802063
1766054138274828000,1.997828125,-1.6510671377182007,-9.262372016906738,-2.7663776874542236
1766054138284807400,2.007807373046875,-1.6441943645477295,-9.263339042663574,-2.7672266960144043
1766054138294847700,2.01784765625,-1.6350804567337036,-9.265068054199219,-2.7668421268463135
1766054138314836700,2.037836669921875,-1.6220070123672485,-9.269529342651367,-2.759580612182617
1766054138324846300,2.047846435546875,-1.6170454025268555,-9.270944595336914,-2.7577457427978516
1766054138334856200,2.057856201171875,-1.6108394861221313,-9.273127555847168,-2.7540299892425537
1766054138344835600,2.067835693359375,-1.6082006692886353,-9.27354621887207,-2.7541608810424805
1766054138354845200,2.07784521484375,-1.5995944738388062,-9.274282455444336,-2.7566912174224854
1766054138364824600,2.087824462890625,-1.5919386148452759,-9.27618408203125,-2.754733085632324
1766054138374865000,2.097864990234375,-1.5914257764816284,-9.27674674987793,-2.7531371116638184
1766054138384844000,2.107843994140625,-1.6010750532150269,-9.275056838989258,-2.7532243728637695
1766054138394854000,2.11785400390625,-1.6075208187103271,-9.272908210754395,-2.756709337234497
1766054138424852500,2.1478525390625,-1.6449276208877563,-9.264348983764648,-2.7634143829345703
1766054138434832000,2.157831787109375,-1.667641520500183,-9.259336471557617,-2.7665939331054688
1766054138444811000,2.16781103515625,-1.686099886894226,-9.256726264953613,-2.7641444206237793
1766054138454851300,2.177851318359375,-1.7084511518478394,-9.253311157226562,-2.7618520259857178
1766054138464830700,2.187830810546875,-1.730918049812317,-9.24919605255127,-2.7616443634033203
1766054138484789000,2.2077890625,-1.7655211687088013,-9.245634078979492,-2.7516605854034424
1766054138494798800,2.217798828125,-1.7746471166610718,-9.245498657226562,-2.746234655380249
1766054138504778000,2.227778076171875,-1.7768065929412842,-9.246895790100098,-2.740126609802246
1766054138554796300,2.27779638671875,-1.7544506788253784,-9.25566577911377,-2.724879741668701
1766054138564775700,2.287775634765625,-1.7634257078170776,-9.254712104797363,-2.722317695617676
1766054138574816000,2.29781591796875,-1.779506802558899,-9.253318786621094,-2.716590642929077
1766054138584825600,2.30782568359375,-1.7994071245193481,-9.251289367675781,-2.710378885269165
1766054138594835500,2.31783544921875,-1.8142176866531372,-9.24914836883545,-2.7078161239624023
1766054138604814800,2.32781494140625,-1.8259440660476685,-9.247252464294434,-2.7064106464385986
1766054138634844000,2.357843994140625,-1.8196625709533691,-9.24528694152832,-2.717332124710083
1766054138644792800,2.367792724609375,-1.8129315376281738,-9.246600151062012,-2.7173683643341064
1766054138654833200,2.377833251953125,-1.8067975044250488,-9.24855899810791,-2.7147791385650635
1766054138664842800,2.3878427734375,-1.7959911823272705,-9.251731872558594,-2.7111408710479736
1766054138674822100,2.397822265625,-1.7891242504119873,-9.253870964050293,-2.7083778381347656
1766054138684801300,2.40780126953125,-1.789800763130188,-9.254351615905762,-2.7062854766845703
1766054138694811100,2.41781103515625,-1.789197325706482,-9.254743576049805,-2.705353260040283
1766054138704790300,2.427790283203125,-1.783408522605896,-9.25433349609375,-2.710566520690918
1766054138714769700,2.437769775390625,-1.776039719581604,-9.254271507263184,-2.715609550476074
1766054138744768300,2.467768310546875,-1.7682185173034668,-9.255545616149902,-2.7163710594177246
1766054138754717200,2.47771728515625,-1.7706608772277832,-9.255003929138184,-2.716623306274414
1766054138764696300,2.4876962890625,-1.7690385580062866,-9.25413703918457,-2.7206404209136963
1766054138774706200,2.4977060546875,-1.766545057296753,-9.253947257995605,-2.722898244857788
1766054138784685300,2.507685302734375,-1.766958236694336,-9.253809928894043,-2.7230985164642334
1766054138794695200,2.517695068359375,-1.7602251768112183,-9.253861427307129,-2.727277994155884
1766054138804704800,2.527704833984375,-1.7616119384765625,-9.254348754882812,-2.724730968475342
1766054138814714600,2.537714599609375,-1.7528241872787476,-9.252281188964844,-2.737394094467163
1766054138824724500,2.547724365234375,-1.7485638856887817,-9.251898765563965,-2.741399049758911
1766054138834703600,2.55770361328125,-1.7287676334381104,-9.254655838012695,-2.744647741317749
1766054138864702500,2.587702392578125,-1.6594445705413818,-9.266599655151367,-2.747134208679199
1766054138874712000,2.597712158203125,-1.6449759006500244,-9.2681884765625,-2.7504754066467285
1766054138884691500,2.60769140625,-1.6288036108016968,-9.27000617980957,-2.7539737224578857
1766054138894731800,2.617731689453125,-1.616341233253479,-9.270176887512207,-2.7607338428497314
1766054138904711000,2.6277109375,-1.6054764986038208,-9.26832389831543,-2.773261785507202
1766054138914720800,2.637720703125,-1.5908145904541016,-9.269062995910645,-2.7792389392852783
1766054138924730400,2.64773046875,-1.5400199890136719,-9.276056289672852,-2.7845160961151123
1766054138944719600,2.6677197265625,-1.4953227043151855,-9.28520679473877,-2.778372287750244
1766054138964708600,2.68770849609375,-1.4541329145431519,-9.291409492492676,-2.7794926166534424
1766054138984697600,2.707697509765625,-1.4185677766799927,-9.295231819152832,-2.7850914001464844
1766054138994707200,2.717707275390625,-1.3802318572998047,-9.29709243774414,-2.798109531402588
1766054139004717000,2.727717041015625,-1.3562734127044678,-9.2975492477417,-2.808291435241699
1766054139014727000,2.737726806640625,-1.329829454421997,-9.297018051147461,-2.8226568698883057
1766054139024706000,2.7477060546875,-1.2838377952575684,-9.299357414245605,-2.836217164993286
1766054139034716000,2.7577158203125,-1.2587732076644897,-9.299810409545898,-2.845944881439209
1766054139064714800,2.78771484375,-1.1481772661209106,-9.309171676635742,-2.862067699432373
1766054139074694000,2.79769384765625,-1.0955071449279785,-9.315032958984375,-2.8636317253112793
1766054139084703700,2.807703857421875,-1.0585726499557495,-9.318050384521484,-2.86771297454834
1766054139094683000,2.817682861328125,-1.020505428314209,-9.322484970092773,-2.8670969009399414
1766054139104662000,2.827662109375,-0.9822902083396912,-9.327729225158691,-2.8633811473846436
1766054139114671900,2.837671875,-0.9453586935997009,-9.332442283630371,-2.860457181930542
1766054139124651300,2.8476513671875,-0.9380568265914917,-9.334193229675293,-2.8571407794952393
1766054139134691300,2.85769140625,-0.8860475420951843,-9.341461181640625,-2.849984884262085
1766054139174669600,2.897669677734375,-0.7408472895622253,-9.357732772827148,-2.838026285171509
1766054139184679200,2.90767919921875,-0.6826549172401428,-9.361210823059082,-2.841146230697632
1766054139194719500,2.917719482421875,-0.6247519254684448,-9.36630630493164,-2.8376760482788086
1766054139204699000,2.927698974609375,-0.5859700441360474,-9.36946964263916,-2.8355050086975098
1766054139214739000,2.937739013671875,-0.5568512082099915,-9.375061988830566,-2.82285737991333
1766054139224748800,2.947748779296875,-0.5388146042823792,-9.37717342376709,-2.8193435668945312
1766054139234728000,2.95772802734375,-0.5256377458572388,-9.377304077148438,-2.8213908672332764
1766054139274706200,2.9977060546875,-0.48218438029289246,-9.371950149536133,-2.846832036972046
1766054139284715800,3.0077158203125,-0.46137893199920654,-9.373309135437012,-2.8458032608032227
1766054139294695200,3.017695068359375,-0.45754680037498474,-9.374824523925781,-2.8414299488067627
1766054139304674300,3.02767431640625,-0.4566141963005066,-9.37619686126709,-2.8370471000671387
1766054139314684200,3.03768408203125,-0.4594055712223053,-9.376192092895508,-2.836611032485962
1766054139324663300,3.047663330078125,-0.46356678009033203,-9.375509262084961,-2.838196039199829
1766054139334673200,3.057673095703125,-0.46839258074760437,-9.37567138671875,-2.836860418319702
1766054139344652300,3.06765234375,-0.47817426919937134,-9.374863624572754,-2.8378994464874268
1766054139384661000,3.107660888671875,-0.5086082816123962,-9.375617980957031,-2.8301024436950684
1766054139394609700,3.117609619140625,-0.5175079107284546,-9.376676559448242,-2.824979543685913
1766054139404619500,3.12761962890625,-0.5213450193405151,-9.378191947937012,-2.8192365169525146
1766054139414568200,3.137568115234375,-0.5234463810920715,-9.379301071166992,-2.8151588439941406
1766054139424577800,3.147577880859375,-0.5231128931045532,-9.380241394042969,-2.8120839595794678
1766054139434587600,3.157587646484375,-0.5130178928375244,-9.379920959472656,-2.815014123916626
1766054139444628000,3.1676279296875,-0.4972212016582489,-9.378345489501953,-2.8230865001678467
1766054139454576600,3.17757666015625,-0.4778653681278229,-9.378132820129395,-2.82712721824646
1766054139484606000,3.20760595703125,-0.42004767060279846,-9.377176284790039,-2.839465379714966
1766054139494554600,3.2175546875,-0.4187330901622772,-9.375393867492676,-2.8455324172973633
1766054139504534000,3.227533935546875,-0.41431087255477905,-9.374116897583008,-2.8503847122192383
1766054139514543600,3.237543701171875,-0.3993120491504669,-9.368158340454102,-2.8720226287841797
1766054139524523000,3.24752294921875,-0.3832522928714752,-9.364418029785156,-2.886380434036255
1766054139534532900,3.257532958984375,-0.3651566803455353,-9.362935066223145,-2.8935301303863525
1766054139544512000,3.267511962890625,-0.35269758105278015,-9.361964225769043,-2.8982129096984863
1766054139554521900,3.27752197265625,-0.3526882529258728,-9.362387657165527,-2.8968417644500732
1766054139584551200,3.30755126953125,-0.4170645475387573,-9.363239288330078,-2.8855183124542236
1766054139594499800,3.317499755859375,-0.44120678305625916,-9.364241600036621,-2.878666639328003
1766054139614488800,3.33748876953125,-0.5270242094993591,-9.366578102111816,-2.8565456867218018
1766054139624498700,3.347498779296875,-0.5627496242523193,-9.368146896362305,-2.8445634841918945
1766054139634477800,3.357477783203125,-0.5903054475784302,-9.370368003845215,-2.8316330909729004
1766054139644487700,3.36748779296875,-0.5998799204826355,-9.372563362121582,-2.8223373889923096
1766054139654497300,3.377497314453125,-0.6037629246711731,-9.375527381896973,-2.811647415161133
1766054139664476700,3.3874765625,-0.5978045463562012,-9.37975788116455,-2.7987828254699707
1766054139674455800,3.397455810546875,-0.5936524271965027,-9.382457733154297,-2.7906062602996826
1766054139704515600,3.427515625,-0.5815978050231934,-9.39482593536377,-2.7512593269348145
1766054139724596200,3.44759619140625,-0.5690449476242065,-9.395110130310059,-2.7529044151306152
1766054139734545000,3.457544921875,-0.5544973611831665,-9.395045280456543,-2.7560887336730957
1766054139744524300,3.467524169921875,-0.5496633648872375,-9.395003318786621,-2.757204294204712
1766054139754534000,3.477533935546875,-0.5476958751678467,-9.395330429077148,-2.756481170654297
1766054139764574200,3.48757421875,-0.5450085401535034,-9.395346641540527,-2.756960153579712
1766054139774553600,3.4975537109375,-0.5470864772796631,-9.39405632019043,-2.7609426975250244
1766054139784532700,3.50753271484375,-0.5454948544502258,-9.394216537475586,-2.7607083320617676
1766054139814501000,3.537501220703125,-0.5097156763076782,-9.394556045532227,-2.766380548477173
1766054139834520600,3.5575205078125,-0.45605918765068054,-9.394639015197754,-2.77544903755188
1766054139844561000,3.567560791015625,-0.4459770619869232,-9.392696380615234,-2.783653736114502
1766054139854509600,3.577509521484375,-0.44631490111351013,-9.3932466506958,-2.7817490100860596
1766054139864488700,3.58748876953125,-0.4670981764793396,-9.393305778503418,-2.7781271934509277
1766054139874468000,3.597468017578125,-0.47875821590423584,-9.393031120300293,-2.7770771980285645
1766054139884477700,3.607477783203125,-0.4754667580127716,-9.392123222351074,-2.7807116508483887
1766054139924425200,3.64742529296875,-0.5127522349357605,-9.382795333862305,-2.8054633140563965
1766054139934435000,3.65743505859375,-0.5673196911811829,-9.379725456237793,-2.8052308559417725
1766054139944445000,3.66744482421875,-0.6008034348487854,-9.378389358520508,-2.8027169704437256
1766054139954393600,3.6773935546875,-0.6186801791191101,-9.377678871154785,-2.801203727722168
1766054139964372700,3.687372802734375,-0.6336764097213745,-9.377542495727539,-2.798309803009033
1766054139974382600,3.697382568359375,-0.6420891284942627,-9.37706184387207,-2.7980034351348877
1766054139994402000,3.717402099609375,-0.6479875445365906,-9.377410888671875,-2.795473098754883
1766054140014421800,3.737421875,-0.713387668132782,-9.37391185760498,-2.7912845611572266
1766054140034410800,3.75741064453125,-0.7758423686027527,-9.367551803588867,-2.795966148376465
1766054140044420400,3.76742041015625,-0.7846353054046631,-9.368147850036621,-2.7915165424346924
1766054140054430200,3.77743017578125,-0.7901967167854309,-9.368814468383789,-2.787710666656494
1766054140064409300,3.787409423828125,-0.7927706837654114,-9.369268417358398,-2.7854461669921875
1766054140074388700,3.797388671875,-0.7887953519821167,-9.370641708374023,-2.7819600105285645
1766054140084398600,3.807398681640625,-0.7904363870620728,-9.369999885559082,-2.7836549282073975
1766054140094408200,3.817408203125,-0.7886953949928284,-9.36945629119873,-2.785973310470581
1766054140114366700,3.83736669921875,-0.7959408164024353,-9.362787246704102,-2.806260585784912
1766054140144365600,3.867365478515625,-0.8109475374221802,-9.355636596679688,-2.825741767883301
1766054140154344700,3.8773447265625,-0.8147571682929993,-9.356062889099121,-2.82323956489563
1766054140164324000,3.887323974609375,-0.8182266354560852,-9.355225563049316,-2.825004816055298
1766054140174333700,3.897333740234375,-0.8194546699523926,-9.355428695678711,-2.8239808082580566
1766054140184313000,3.90731298828125,-0.8253779411315918,-9.353507041931152,-2.8286213874816895
1766054140194322700,3.91732275390625,-0.8308575749397278,-9.352875709533691,-2.8290927410125732
1766054140204332500,3.92733251953125,-0.8347235918045044,-9.352435111999512,-2.8294129371643066
1766054140244249600,3.96724951171875,-0.8734937310218811,-9.350273132324219,-2.824860095977783
1766054140254228700,3.977228759765625,-0.8710270524024963,-9.35041332244873,-2.825150728225708
1766054140264238600,3.987238525390625,-0.8643009662628174,-9.350854873657227,-2.8257575035095215
1766054140274217700,3.9972177734375,-0.8599272966384888,-9.351113319396973,-2.826232433319092
1766054140284197000,4.007197021484375,-0.859623908996582,-9.351787567138672,-2.8240952491760254
1766054140294237400,4.017237548828125,-0.8713847994804382,-9.350406646728516,-2.825063943862915
1766054140304216600,4.027216552734375,-0.8711471557617188,-9.349687576293945,-2.8275182247161865
1766054140334215400,4.05721533203125,-0.9273852109909058,-9.342644691467285,-2.8329029083251953
1766054140344194600,4.067194580078125,-0.9560440182685852,-9.338516235351562,-2.8369898796081543
1766054140354143200,4.077143310546875,-0.984127938747406,-9.333946228027344,-2.842418670654297
1766054140364122600,4.08712255859375,-0.9932152032852173,-9.332301139831543,-2.8446602821350098
1766054140374132200,4.09713232421875,-1.0056359767913818,-9.330132484436035,-2.8474061489105225
1766054140384111600,4.107111572265625,-1.0244371891021729,-9.328070640563965,-2.847459316253662
1766054140394060300,4.117060302734375,-1.0305150747299194,-9.32778263092041,-2.8462066650390625
1766054140404070100,4.127070068359375,-1.0678706169128418,-9.32242202758789,-2.849994659423828
1766054140414079700,4.137079833984375,-1.0849416255950928,-9.320810317993164,-2.848823070526123
1766054140434038300,4.157038330078125,-1.1527762413024902,-9.309236526489258,-2.8599977493286133
1766054140444017700,4.167017578125,-1.1739447116851807,-9.305501937866211,-2.8635385036468506
1766054140453996800,4.176996826171875,-1.1853928565979004,-9.302997589111328,-2.8669650554656982
1766054140464037000,4.187037109375,-1.1906992197036743,-9.303067207336426,-2.8645424842834473
1766054140473985800,4.19698583984375,-1.190201997756958,-9.30334758758545,-2.863832950592041
1766054140483995600,4.20699560546875,-1.1965315341949463,-9.303236961364746,-2.8615520000457764
1766054140493974800,4.216974853515625,-1.2116148471832275,-9.30161190032959,-2.860492467880249
1766054140503984600,4.226984619140625,-1.2313593626022339,-9.298508644104004,-2.862147331237793
1766054140553972500,4.276972412109375,-1.3029735088348389,-9.285455703735352,-2.8728013038635254
1766054140563951600,4.28695166015625,-1.3127528429031372,-9.283195495605469,-2.8756484985351562
1766054140573931000,4.296930908203125,-1.325244665145874,-9.280679702758789,-2.878040313720703
1766054140583940600,4.306940673828125,-1.3389991521835327,-9.276763916015625,-2.8842923641204834
1766054140593889500,4.3168896484375,-1.3423551321029663,-9.275901794433594,-2.885502338409424
1766054140603868700,4.32686865234375,-1.3572536706924438,-9.273365020751953,-2.886685848236084
1766054140613847800,4.336847900390625,-1.370857834815979,-9.271505355834961,-2.8862314224243164
1766054140673753900,4.39675390625,-1.4581176042556763,-9.259212493896484,-2.8829333782196045
1766054140683763700,4.406763671875,-1.4593658447265625,-9.258257865905762,-2.885363817214966
1766054140693742800,4.416742919921875,-1.4633970260620117,-9.257512092590332,-2.8857104778289795
1766054140703752700,4.426752685546875,-1.4669798612594604,-9.257040977478027,-2.885408878326416
1766054140713731800,4.43673193359375,-1.4838745594024658,-9.254703521728516,-2.8842642307281494
1766054140733690400,4.4566904296875,-1.5287158489227295,-9.25023365020752,-2.875162124633789
1766054140743669800,4.466669677734375,-1.5367860794067383,-9.249265670776367,-2.873981475830078
1766054140753618400,4.476618408203125,-1.5498337745666504,-9.246698379516602,-2.8752403259277344
1766054140763658800,4.48665869140625,-1.5584713220596313,-9.244474411010742,-2.8777217864990234
1766054140773638000,4.496637939453125,-1.559599757194519,-9.243638038635254,-2.879798412322998
1766054140783647700,4.506647705078125,-1.5599734783172607,-9.242963790893555,-2.8817532062530518
1766054140793657600,4.51665771484375,-1.5538208484649658,-9.240517616271973,-2.892904043197632
1766054140803636700,4.52663671875,-1.5483084917068481,-9.240225791931152,-2.8967859745025635
1766054140813646600,4.536646484375,-1.5394474267959595,-9.239192008972168,-2.9047932624816895
1766054140823625700,4.546625732421875,-1.5341975688934326,-9.236383438110352,-2.916482448577881
1766054140873613600,4.596613525390625,-1.5468965768814087,-9.22071647644043,-2.9590349197387695
1766054140893602600,4.6166025390625,-1.5442752838134766,-9.214804649353027,-2.978755235671997
1766054140903581700,4.626581787109375,-1.5348215103149414,-9.209579467773438,-2.9997220039367676
1766054140913591600,4.636591552734375,-1.5291186571121216,-9.204266548156738,-3.0188889503479004
1766054140923631900,4.6466318359375,-1.5111974477767944,-9.202080726623535,-3.0345380306243896
1766054140933611000,4.656611083984375,-1.499257206916809,-9.199353218078613,-3.048696756362915
1766054140943620900,4.666620849609375,-1.4994237422943115,-9.19483470916748,-3.062209129333496
1766054140983598800,4.706598876953125,-1.4782912731170654,-9.18332290649414,-3.1067054271698
1766054140993578200,4.716578125,-1.4525866508483887,-9.174816131591797,-3.1437439918518066
1766054141003587800,4.726587890625,-1.4420067071914673,-9.175172805786133,-3.1475720405578613
1766054141013567200,4.736567138671875,-1.4375971555709839,-9.170548439025879,-3.163031578063965
1766054141023546400,4.74654638671875,-1.4335325956344604,-9.166913032531738,-3.17539119720459
1766054141033495000,4.7564951171875,-1.4338337182998657,-9.161735534667969,-3.190162420272827
1766054141053484000,4.776484130859375,-1.4206048250198364,-9.161514282226562,-3.1967122554779053
1766054141083483000,4.80648291015625,-1.3968439102172852,-9.166913986206055,-3.1916937828063965
1766054141093492700,4.81649267578125,-1.401213526725769,-9.169157028198242,-3.1833279132843018
1766054141103502600,4.826502685546875,-1.4153709411621094,-9.170797348022461,-3.1723194122314453
1766054141113481700,4.836481689453125,-1.4358528852462769,-9.173226356506348,-3.156053304672241
1766054141123491600,4.84649169921875,-1.456269383430481,-9.176690101623535,-3.1365678310394287
1766054141133501200,4.856501220703125,-1.467139482498169,-9.180167198181152,-3.121279239654541
1766054141143511000,4.866510986328125,-1.4724503755569458,-9.183672904968262,-3.1084399223327637
1766054141173510000,4.896510009765625,-1.4599756002426147,-9.191550254821777,-3.090999126434326
1766054141193499000,4.916498779296875,-1.4275561571121216,-9.198685646057129,-3.084908962249756
1766054141203508500,4.926508544921875,-1.415930986404419,-9.200181007385254,-3.0858116149902344
1766054141213518300,4.936518310546875,-1.406715989112854,-9.20108413696289,-3.0873324871063232
1766054141223528200,4.946528076171875,-1.398689866065979,-9.200763702392578,-3.091928005218506
1766054141233507300,4.95650732421875,-1.390642523765564,-9.200085639953613,-3.097565174102783
1766054141243517200,4.96651708984375,-1.3888181447982788,-9.199251174926758,-3.100860595703125
1766054141253496300,4.976496337890625,-1.388427972793579,-9.199165344238281,-3.1012961864471436
1766054141273485300,4.9964853515625,-1.3964587450027466,-9.200034141540527,-3.0951106548309326
1766054141283495200,5.0064951171875,-1.4047280550003052,-9.200540542602539,-3.089850664138794
1766054141293474300,5.016474365234375,-1.416943073272705,-9.200428009033203,-3.084604263305664
1766054141303514600,5.0265146484375,-1.4300346374511719,-9.200872421264648,-3.077232599258423
1766054141313494000,5.036493896484375,-1.439019799232483,-9.200757026672363,-3.0733847618103027
1766054141323473200,5.04647314453125,-1.4373658895492554,-9.20241928100586,-3.0691778659820557
1766054141333483000,5.05648291015625,-1.4285171031951904,-9.204536437988281,-3.0669686794281006
1766054141343492600,5.06649267578125,-1.4188172817230225,-9.206796646118164,-3.0646872520446777
1766054141353441500,5.076441650390625,-1.4129334688186646,-9.207865715026855,-3.0641865730285645
1766054141363481600,5.086481689453125,-1.4018237590789795,-9.209664344787598,-3.063887357711792
1766054141383501300,5.106501220703125,-1.3850170373916626,-9.213265419006348,-3.0606980323791504
1766054141393480400,5.11648046875,-1.3790712356567383,-9.21550178527832,-3.0566444396972656
1766054141403490300,5.126490234375,-1.3741261959075928,-9.21728515625,-3.0534961223602295
1766054141413469400,5.136469482421875,-1.373666524887085,-9.218609809875488,-3.0496950149536133
1766054141423448800,5.14644873046875,-1.367849349975586,-9.22109317779541,-3.0448079109191895
1766054141433428000,5.156427978515625,-1.3569111824035645,-9.222308158874512,-3.0460145473480225
1766054141443437800,5.166437744140625,-1.3574515581130981,-9.222862243652344,-3.0440990924835205
1766054141453417000,5.1764169921875,-1.3540881872177124,-9.224475860595703,-3.040705919265747
1766054141463426800,5.1864267578125,-1.3591370582580566,-9.224114418029785,-3.039548635482788
1766054141493395000,5.21639501953125,-1.3564482927322388,-9.22775936126709,-3.029675245285034
1766054141503404800,5.22640478515625,-1.3532459735870361,-9.228621482849121,-3.0284793376922607
1766054141513384000,5.236384033203125,-1.346108317375183,-9.231225967407227,-3.0237154960632324
1766054141523363300,5.24636328125,-1.3364572525024414,-9.23379898071289,-3.0201358795166016
1766054141533373200,5.256373291015625,-1.3191828727722168,-9.238187789916992,-3.0143051147460938
1766054141543382800,5.2663828125,-1.2955056428909302,-9.242754936218262,-3.010573625564575
1766054141553362200,5.276362060546875,-1.2710391283035278,-9.246484756469727,-3.009547710418701
1766054141563402500,5.286402587890625,-1.2431459426879883,-9.251033782958984,-3.007214307785034
1766054141573381600,5.296381591796875,-1.216701626777649,-9.257057189941406,-2.9994866847991943
1766054141593340200,5.316340087890625,-1.1921461820602417,-9.263607025146484,-2.989107131958008
1766054141603380500,5.32638037109375,-1.1907684803009033,-9.264171600341797,-2.9879047870635986
1766054141613390000,5.33639013671875,-1.1871254444122314,-9.264399528503418,-2.9886481761932373
1766054141623400000,5.34639990234375,-1.1856275796890259,-9.26496696472168,-2.9874818325042725
1766054141633409800,5.356409912109375,-1.1825758218765259,-9.26451587677002,-2.9900965690612793
1766054141643419400,5.36641943359375,-1.1769378185272217,-9.264513969421387,-2.992323875427246
1766054141653429200,5.37642919921875,-1.175183892250061,-9.264376640319824,-2.9934442043304443
1766054141663439000,5.386439208984375,-1.1569660902023315,-9.264203071594238,-3.0010592937469482
1766054141693437700,5.416437744140625,-1.1289616823196411,-9.2718505859375,-2.9880807399749756
1766054141703417000,5.4264169921875,-1.11581289768219,-9.275531768798828,-2.9815895557403564
1766054141713396200,5.436396240234375,-1.0982298851013184,-9.278494834899902,-2.9788949489593506
1766054141743395000,5.46639501953125,-1.0727791786193848,-9.283609390258789,-2.9722325801849365
1766054141763323100,5.4863232421875,-1.0601736307144165,-9.284903526306152,-2.972710609436035
1766054141773302300,5.49630224609375,-1.0603495836257935,-9.284749984741211,-2.973130941390991
1766054141783281400,5.506281494140625,-1.0615758895874023,-9.285277366638184,-2.971043586730957
1766054141813249800,5.536249755859375,-1.0653902292251587,-9.283529281616211,-2.975131034851074
1766054141823229000,5.54622900390625,-1.064475417137146,-9.281045913696289,-2.9831981658935547
1766054141833208300,5.556208251953125,-1.065091848373413,-9.27807331085205,-2.99221134185791
1766054141843248600,5.56624853515625,-1.0716253519058228,-9.27688217163086,-2.993575096130371
1766054141853258200,5.57625830078125,-1.072242021560669,-9.277015686035156,-2.992936849594116
1766054141863268000,5.58626806640625,-1.0755647420883179,-9.27725887298584,-2.9909894466400146
1766054141873247200,5.596247314453125,-1.0804882049560547,-9.276725769042969,-2.99086856842041
1766054141883257000,5.606257080078125,-1.082039713859558,-9.276718139648438,-2.990330457687378
1766054141903246000,5.62624609375,-1.0896531343460083,-9.2771577835083,-2.9862048625946045
1766054141913225500,5.6362255859375,-1.0885539054870605,-9.277527809143066,-2.9854516983032227
1766054141923265500,5.646265625,-1.0887000560760498,-9.277688026428223,-2.984902858734131
1766054141933275400,5.656275390625,-1.0861536264419556,-9.277779579162598,-2.985550880432129
1766054141943285200,5.66628515625,-1.0831395387649536,-9.278631210327148,-2.983991861343384
1766054141953264400,5.676264404296875,-1.0798641443252563,-9.278900146484375,-2.9843437671661377
1766054141963274200,5.686274169921875,-1.0815528631210327,-9.279069900512695,-2.9832074642181396
1766054141973253400,5.69625341796875,-1.0825474262237549,-9.27854061126709,-2.984490394592285
1766054141983263200,5.70626318359375,-1.0857775211334229,-9.278453826904297,-2.9835855960845947
1766054142023241200,5.7462412109375,-1.0984177589416504,-9.280203819274902,-2.9734983444213867
1766054142033190000,5.75618994140625,-1.1011310815811157,-9.280184745788574,-2.9725518226623535
1766054142043230200,5.766230224609375,-1.0994040966033936,-9.28016471862793,-2.973252534866333
1766054142053240000,5.776239990234375,-1.096688151359558,-9.279792785644531,-2.9754176139831543
1766054142063249700,5.786249755859375,-1.0923168659210205,-9.277554512023926,-2.9839954376220703
1766054142073198600,5.796198486328125,-1.0859782695770264,-9.276396751403809,-2.989903688430786
1766054142083239000,5.806239013671875,-1.0843664407730103,-9.276479721069336,-2.9902334213256836
1766054142113237500,5.836237548828125,-1.0888526439666748,-9.276561737060547,-2.988344430923462
1766054142123217000,5.846216796875,-1.0849562883377075,-9.277389526367188,-2.987189292907715
1766054142133196000,5.856196044921875,-1.0761635303497314,-9.27755355834961,-2.9898598194122314
1766054142143206000,5.866205810546875,-1.0700103044509888,-9.279212951660156,-2.9869163036346436
1766054142153215500,5.876215576171875,-1.0683342218399048,-9.27978515625,-2.985736608505249
1766054142163195000,5.88619482421875,-1.0672885179519653,-9.280481338500977,-2.983950138092041
1766054142173235200,5.896235107421875,-1.0645649433135986,-9.279693603515625,-2.9873716831207275
1766054142183244800,5.906244873046875,-1.0628349781036377,-9.279541969299316,-2.9884581565856934
1766054142193224200,5.91622412109375,-1.0608850717544556,-9.279533386230469,-2.989175796508789
1766054142243150800,5.96615087890625,-1.0648442506790161,-9.279816627502441,-2.9868850708007812
1766054142253099500,5.976099609375,-1.0624538660049438,-9.281147956848145,-2.983595609664917
1766054142263079000,5.986078857421875,-1.0609374046325684,-9.281926155090332,-2.981721878051758
1766054142273027600,5.996027587890625,-1.0599843263626099,-9.281689643859863,-2.982792377471924
1766054142283037400,6.006037353515625,-1.0576304197311401,-9.280454635620117,-2.987471580505371
1766054142293047000,6.016047119140625,-1.055750846862793,-9.280050277709961,-2.9893906116485596
1766054142323015400,6.046015380859375,-1.0608450174331665,-9.281185150146484,-2.984062671661377
1766054142332964000,6.055964111328125,-1.0607242584228516,-9.282469749450684,-2.9801011085510254
1766054142342943500,6.065943603515625,-1.0625959634780884,-9.283193588256836,-2.977186918258667
1766054142352953000,6.075953125,-1.0645744800567627,-9.282893180847168,-2.9774110317230225
1766054142362963000,6.085962890625,-1.0641063451766968,-9.282855033874512,-2.977699041366577
1766054142382952000,6.105951904296875,-1.0672364234924316,-9.281288146972656,-2.9814538955688477
1766054142392961800,6.1159619140625,-1.0665642023086548,-9.28190803527832,-2.979764699935913
1766054142402971400,6.125971435546875,-1.0659908056259155,-9.282036781311035,-2.97957444190979
1766054142422899500,6.1458994140625,-1.0656769275665283,-9.283886909484863,-2.9739177227020264
1766054142432848100,6.15584814453125,-1.0642668008804321,-9.284801483154297,-2.9715631008148193
1766054142442827500,6.16582763671875,-1.0642694234848022,-9.284912109375,-2.971214771270752
1766054142452806700,6.175806640625,-1.0634467601776123,-9.28530502319336,-2.970280170440674
1766054142462785800,6.185785888671875,-1.0646092891693115,-9.284842491149902,-2.971315860748291
1766054142472765200,6.19576513671875,-1.0658015012741089,-9.284985542297363,-2.970444917678833
1766054142482775000,6.205775146484375,-1.0671532154083252,-9.284321784973145,-2.9720284938812256
1766054142492723700,6.2157236328125,-1.0632541179656982,-9.284008026123047,-2.9744017124176025
1766054142502764000,6.225763916015625,-1.0609054565429688,-9.28563117980957,-2.9701738357543945
1766054142512743200,6.2357431640625,-1.0593845844268799,-9.287177085876465,-2.9658782482147217
1766054142542772500,6.2657724609375,-1.0676608085632324,-9.288830757141113,-2.9577224254608154
1766054142552721200,6.27572119140625,-1.071674108505249,-9.288714408874512,-2.956641912460327
1766054142562731000,6.28573095703125,-1.0699784755706787,-9.288536071777344,-2.957813024520874
1766054142572679700,6.2956796875,-1.0695444345474243,-9.287765502929688,-2.960388422012329
1766054142582720000,6.305719970703125,-1.0684680938720703,-9.288046836853027,-2.959893226623535
1766054142592668700,6.315668701171875,-1.0639084577560425,-9.28892993927002,-2.958756685256958
1766054142602678500,6.325678466796875,-1.0591846704483032,-9.290711402893066,-2.9548628330230713
1766054142612688400,6.3356884765625,-1.0554723739624023,-9.291749000549316,-2.952927827835083
1766054142642687000,6.36568701171875,-1.058487057685852,-9.292045593261719,-2.9509119987487793
1766054142652666400,6.375666259765625,-1.054337501525879,-9.292007446289062,-2.952516555786133
1766054142662676000,6.385676025390625,-1.0558063983917236,-9.29224967956543,-2.9512317180633545
1766054142672655400,6.3956552734375,-1.0535615682601929,-9.29178524017334,-2.953498601913452
1766054142682695700,6.40569580078125,-1.0543094873428345,-9.29250717163086,-2.950950860977173
1766054142692644400,6.415644287109375,-1.060295581817627,-9.292551040649414,-2.9486703872680664
1766054142702654000,6.425654052734375,-1.0637518167495728,-9.29342269897461,-2.9446792602539062
1766054142712633300,6.43563330078125,-1.0655138492584229,-9.294877052307129,-2.9394454956054688
1766054142722643200,6.445643310546875,-1.0684014558792114,-9.294849395751953,-2.9384870529174805
1766054142742632200,6.465632080078125,-1.0706465244293213,-9.294305801391602,-2.9393844604492188
1766054142752611300,6.475611328125,-1.0690999031066895,-9.294957160949707,-2.937892436981201
1766054142762590700,6.4855908203125,-1.0702283382415771,-9.295480728149414,-2.935821533203125
1766054142772600300,6.495600341796875,-1.0698308944702148,-9.296284675598145,-2.9334208965301514
1766054142782579700,6.505579833984375,-1.0708552598953247,-9.296671867370605,-2.9318151473999023
1766054142792589300,6.51558935546875,-1.0714882612228394,-9.296324729919434,-2.9326820373535156
1766054142802599200,6.52559912109375,-1.070860505104065,-9.295716285705566,-2.9348464012145996
1766054142812609000,6.535609130859375,-1.0702672004699707,-9.295158386230469,-2.936828851699829
1766054142822588200,6.545588134765625,-1.0718661546707153,-9.293344497680664,-2.9419798851013184
1766054142852556500,6.575556640625,-1.0633368492126465,-9.295207977294922,-2.9391908645629883
1766054142862566100,6.585566162109375,-1.0630944967269897,-9.29644775390625,-2.9353456497192383
1766054142872545500,6.595545654296875,-1.0647189617156982,-9.297393798828125,-2.931763172149658
1766054142882555100,6.60555517578125,-1.0653197765350342,-9.297276496887207,-2.9319190979003906
1766054142892565000,6.61556494140625,-1.063133716583252,-9.297234535217285,-2.9328386783599854
1766054142902574800,6.625574951171875,-1.0634145736694336,-9.296512603759766,-2.935032367706299
1766054142912554000,6.635553955078125,-1.0635011196136475,-9.297019004821777,-2.933396339416504
1766054142922563800,6.645563720703125,-1.065008282661438,-9.297202110290527,-2.932269334793091
1766054142932573400,6.655573486328125,-1.068253755569458,-9.29739761352539,-2.930464506149292
1766054142962572300,6.685572265625,-1.0685796737670898,-9.295868873596191,-2.935192823410034
1766054142972582100,6.69558203125,-1.072296380996704,-9.295458793640137,-2.93513822555542
1766054142982561300,6.705561279296875,-1.0738011598587036,-9.295988082885742,-2.932905673980713
1766054142992571100,6.715571044921875,-1.0694026947021484,-9.296789169311523,-2.9319798946380615
1766054143002580700,6.725580810546875,-1.0688912868499756,-9.296723365783691,-2.9323716163635254
1766054143012590600,6.735590576171875,-1.070470929145813,-9.297006607055664,-2.9308974742889404
1766054143022600400,6.745600341796875,-1.0728514194488525,-9.297499656677246,-2.9284629821777344
1766054143032579600,6.75557958984375,-1.0743869543075562,-9.298140525817871,-2.925863742828369
1766054143042559000,6.76555908203125,-1.0767439603805542,-9.298171997070312,-2.924891710281372
1766054143062548000,6.7855478515625,-1.0813006162643433,-9.29688549041748,-2.9273037910461426
1766054143072527000,6.795527099609375,-1.0823925733566284,-9.297303199768066,-2.925567865371704
1766054143082537000,6.805536865234375,-1.0787608623504639,-9.297330856323242,-2.9268290996551514
1766054143092546600,6.815546630859375,-1.0768401622772217,-9.296917915344238,-2.928846597671509
1766054143102556400,6.825556396484375,-1.0767582654953003,-9.296858787536621,-2.929068088531494
1766054143112535600,6.83553564453125,-1.0762994289398193,-9.297019958496094,-2.9287188053131104
1766054143122515000,6.845514892578125,-1.0800495147705078,-9.295988082885742,-2.93061900138855
1766054143132494000,6.855494140625,-1.0810060501098633,-9.295073509216309,-2.9331600666046143
1766054143142473500,6.865473388671875,-1.0821598768234253,-9.293941497802734,-2.9363174438476562
1766054143172502800,6.895502685546875,-1.0853575468063354,-9.293532371520996,-2.9364354610443115
1766054143182482000,6.90548193359375,-1.0853835344314575,-9.294395446777344,-2.933694839477539
1766054143192461300,6.91546142578125,-1.0839076042175293,-9.29541015625,-2.9310309886932373
1766054143202471000,6.925470947265625,-1.081085205078125,-9.296045303344727,-2.9300537109375
1766054143212450300,6.9354501953125,-1.0758262872695923,-9.296456336975098,-2.930680513381958
1766054143222429400,6.945429443359375,-1.0711804628372192,-9.296651840209961,-2.9317612648010254
1766054143232439300,6.955439208984375,-1.0681103467941284,-9.297659873962402,-2.929684638977051
1766054143242449000,6.965448974609375,-1.0718226432800293,-9.298377990722656,-2.926051139831543
1766054143252397800,6.975397705078125,-1.0775567293167114,-9.29765796661377,-2.9262266159057617
1766054143272386800,6.99538671875,-1.0863213539123535,-9.296462059020996,-2.926788806915283
1766054143282396400,7.005396484375,-1.0840917825698853,-9.297552108764648,-2.9241538047790527
1766054143292375800,7.015375732421875,-1.0865375995635986,-9.297253608703613,-2.924196720123291
1766054143302355000,7.02535498046875,-1.087903380393982,-9.29741096496582,-2.923189878463745
1766054143312334300,7.035334228515625,-1.0897732973098755,-9.297762870788574,-2.921370029449463
1766054143322313500,7.0453134765625,-1.0943140983581543,-9.296597480773926,-2.9233858585357666
1766054143332292900,7.05529296875,-1.0942095518112183,-9.295665740966797,-2.9263756275177
1766054143342272000,7.06527197265625,-1.0931562185287476,-9.295883178710938,-2.9260833263397217
1766054143352220700,7.075220703125,-1.0961644649505615,-9.29514217376709,-2.927309274673462
1766054143372209700,7.095209716796875,-1.0965601205825806,-9.295251846313477,-2.926821231842041
1766054143382189000,7.10518896484375,-1.0984423160552979,-9.293663024902344,-2.9311540126800537
1766054143392198700,7.11519873046875,-1.1005711555480957,-9.29377269744873,-2.9300012588500977
1766054143402208500,7.12520849609375,-1.1030796766281128,-9.294160842895508,-2.9278292655944824
1766054143412157200,7.1351572265625,-1.1011652946472168,-9.294532775878906,-2.9273674488067627
1766054143422167000,7.1451669921875,-1.1012989282608032,-9.294205665588379,-2.9283556938171387
1766054143432177000,7.155177001953125,-1.1013339757919312,-9.294386863708496,-2.9277663230895996
1766054143442186500,7.1651865234375,-1.1022151708602905,-9.29346752166748,-2.9303596019744873
1766054143452196400,7.1751962890625,-1.10262930393219,-9.293045043945312,-2.931532144546509
1766054143472185300,7.195185302734375,-1.1007152795791626,-9.29382610321045,-2.929783821105957
1766054143482164500,7.20516455078125,-1.1048262119293213,-9.293783187866211,-2.9283688068389893
1766054143492143900,7.215143798828125,-1.1144505739212036,-9.293794631958008,-2.924678325653076
1766054143502123000,7.225123046875,-1.1232290267944336,-9.292948722839355,-2.9240195751190186
1766054143512132900,7.2351328125,-1.1350321769714355,-9.2913236618042,-2.9246201515197754
1766054143522142700,7.245142822265625,-1.1426985263824463,-9.292060852050781,-2.9192895889282227
1766054143532182800,7.255182861328125,-1.1409910917282104,-9.29257583618164,-2.918318033218384
1766054143542192600,7.265192626953125,-1.1329326629638672,-9.293523788452148,-2.9184389114379883
1766054143552141300,7.275141357421875,-1.1194772720336914,-9.295449256896973,-2.917494058609009
1766054143562120700,7.28512060546875,-1.102811336517334,-9.29578971862793,-2.9227511882781982
1766054143592028000,7.31502783203125,-1.0757216215133667,-9.295324325561523,-2.9343085289001465
1766054143602007000,7.325007080078125,-1.0691206455230713,-9.294816017150879,-2.9383323192596436
1766054143612017000,7.335016845703125,-1.0658841133117676,-9.294075012207031,-2.9418447017669678
1766054143622026800,7.34502685546875,-1.0641512870788574,-9.292838096618652,-2.9463720321655273
1766054143632036400,7.355036376953125,-1.0650380849838257,-9.291891098022461,-2.94903564453125
1766054143642046200,7.365046142578125,-1.069398045539856,-9.291971206665039,-2.947206735610962
1766054143652025300,7.375025390625,-1.0741320848464966,-9.290752410888672,-2.9493303298950195
1766054143662035200,7.38503515625,-1.0802009105682373,-9.290228843688965,-2.9487674236297607
1766054143671953400,7.394953369140625,-1.092646837234497,-9.289393424987793,-2.946810483932495
1766054143711961900,7.4349619140625,-1.1148346662521362,-9.288628578186035,-2.9409070014953613
1766054143721971700,7.4449716796875,-1.1111232042312622,-9.2881498336792,-2.943819761276245
1766054143731981600,7.454981689453125,-1.107169508934021,-9.288131713867188,-2.945370674133301
1766054143741991200,7.4649912109375,-1.1073782444000244,-9.287771224975586,-2.946422815322876
1766054143752001000,7.4750009765625,-1.1031798124313354,-9.286439895629883,-2.952192783355713
1766054143762011000,7.485010986328125,-1.0996583700180054,-9.285067558288574,-2.957812547683716
1766054143771959600,7.49495947265625,-1.0986933708190918,-9.28492546081543,-2.958620071411133
1766054143781938700,7.504938720703125,-1.0993787050247192,-9.283880233764648,-2.9616403579711914
1766054143821855700,7.544855712890625,-1.1053332090377808,-9.281026840209961,-2.9683635234832764
1766054143831865600,7.554865478515625,-1.1047533750534058,-9.280828475952148,-2.969200611114502
1766054143841844700,7.5648447265625,-1.1059975624084473,-9.2814359664917,-2.96683669090271
1766054143851824000,7.57482421875,-1.1074784994125366,-9.281641960144043,-2.9656429290771484
1766054143861803300,7.58480322265625,-1.105756402015686,-9.281721115112305,-2.9660305976867676
1766054143871782400,7.594782470703125,-1.1040785312652588,-9.28292465209961,-2.962890386581421
1766054143881761800,7.60476171875,-1.1000672578811646,-9.283957481384277,-2.9611470699310303
1766054143911699500,7.634699462890625,-1.0869184732437134,-9.287139892578125,-2.956019878387451
1766054143921709300,7.644709228515625,-1.0804320573806763,-9.287803649902344,-2.9563148021698
1766054143931688400,7.6546884765625,-1.078171730041504,-9.28913688659668,-2.95294451713562
1766054143941667800,7.664667724609375,-1.078027367591858,-9.289522171020508,-2.9517831802368164
1766054143951647000,7.67464697265625,-1.0810261964797974,-9.289872169494629,-2.949582576751709
1766054143961687300,7.684687255859375,-1.084477186203003,-9.289493560791016,-2.949512481689453
1766054143971666400,7.69466650390625,-1.0851365327835083,-9.288504600524902,-2.952381134033203
1766054143981706800,7.704706787109375,-1.0853779315948486,-9.287827491760254,-2.95442795753479
1766054143991686100,7.71468603515625,-1.089178204536438,-9.286745071411133,-2.9564290046691895
1766054144031603000,7.75460302734375,-1.115570306777954,-9.28703784942627,-2.9456422328948975
1766054144051531000,7.774531005859375,-1.1227573156356812,-9.288880348205566,-2.9370956420898438
1766054144061571300,7.7845712890625,-1.1238032579421997,-9.288853645324707,-2.9367756843566895
1766054144071520000,7.79452001953125,-1.121590256690979,-9.289660453796387,-2.935072183609009
1766054144081529900,7.80452978515625,-1.1227335929870605,-9.291586875915527,-2.928530216217041
1766054144091509000,7.814509033203125,-1.1207233667373657,-9.292919158935547,-2.925065279006958
1766054144101488400,7.82448828125,-1.1240557432174683,-9.293818473815918,-2.9209253787994385
1766054144121477400,7.844477294921875,-1.129467248916626,-9.29471206665039,-2.9159929752349854
1766054144131487000,7.854487060546875,-1.132436990737915,-9.294520378112793,-2.9154586791992188
1766054144141466400,7.86446630859375,-1.130724310874939,-9.295454025268555,-2.9131436347961426
1766054144151415000,7.8744150390625,-1.1279115676879883,-9.296059608459473,-2.9123003482818604
1766054144161425000,7.8844248046875,-1.1294798851013184,-9.295147895812988,-2.914602041244507
1766054144171404000,7.894404052734375,-1.134259819984436,-9.2938814163208,-2.91678524017334
1766054144181383400,7.904383544921875,-1.1370792388916016,-9.292943000793457,-2.918675661087036
1766054144191362600,7.914362548828125,-1.1380615234375,-9.292862892150879,-2.918546676635742
1766054144201372400,7.924372314453125,-1.1379045248031616,-9.291985511779785,-2.9213976860046387
1766054144241380900,7.964380859375,-1.1637238264083862,-9.2841157913208,-2.9362142086029053
1766054144251360300,7.9743603515625,-1.170981764793396,-9.282341957092285,-2.9389309883117676
1766054144261369900,7.984369873046875,-1.1751981973648071,-9.28175163269043,-2.939117670059204
1766054144271318500,7.994318603515625,-1.176648736000061,-9.280851364135742,-2.941375970840454
1766054144281358800,8.00435888671875,-1.1789350509643555,-9.280150413513184,-2.942666530609131
1766054144291338200,8.014338134765625,-1.1803940534591675,-9.280789375305176,-2.940068006515503
1766054144301317400,8.0243173828125,-1.1740937232971191,-9.278436660766602,-2.9499990940093994
1766054144311296800,8.034296875,-1.1689493656158447,-9.27763843536377,-2.954558849334717
1766054144321276000,8.04427587890625,-1.1537261009216309,-9.277070999145508,-2.9623091220855713
1766054144341204000,8.064203857421875,-1.1433075666427612,-9.276275634765625,-2.9688262939453125
1766054144351213600,8.074213623046875,-1.1325263977050781,-9.275177955627441,-2.9763805866241455
1766054144361193000,8.08419287109375,-1.1293524503707886,-9.274758338928223,-2.978895425796509
1766054144371202600,8.09420263671875,-1.1167881488800049,-9.274672508239746,-2.9838974475860596
1766054144381151500,8.1041513671875,-1.1018223762512207,-9.274419784545898,-2.99023699760437
1766054144391161000,8.1141611328125,-1.0796648263931274,-9.27444839477539,-2.9982197284698486
1766054144401140500,8.124140380859375,-1.078151822090149,-9.272871971130371,-3.003634452819824
1766054144411150000,8.134150146484375,-1.0639547109603882,-9.271181106567383,-3.013902187347412
1766054144441118500,8.164118408203125,-0.9815090298652649,-9.277924537658691,-3.0211174488067627
1766054144461138000,8.184137939453125,-0.9448139071464539,-9.283535957336426,-3.0155739784240723
1766054144471117300,8.194117431640626,-0.9305252432823181,-9.285833358764648,-3.01294207572937
1766054144481127000,8.204126953125,-0.9097586274147034,-9.28913688659668,-3.0091018676757812
1766054144491136800,8.21413671875,-0.8906897902488708,-9.290190696716309,-3.011549234390259
1766054144501116000,8.224115966796875,-0.8551830053329468,-9.288349151611328,-3.027480125427246
1766054144511095300,8.23409521484375,-0.8291448950767517,-9.288419723510742,-3.0344972610473633
1766054144521074400,8.244074462890625,-0.7756243348121643,-9.290607452392578,-3.041947603225708
1766054144541033000,8.264032958984375,-0.715103805065155,-9.29400634765625,-3.0463852882385254
1766054144550981600,8.273981689453125,-0.6978598237037659,-9.296810150146484,-3.041821241378784
1766054144561022000,8.28402197265625,-0.6839718818664551,-9.300358772277832,-3.034121036529541
1766054144571001300,8.29400146484375,-0.6837544441223145,-9.302774429321289,-3.0267555713653564
1766054144581041400,8.30404150390625,-0.6585664749145508,-9.309056282043457,-3.0129990577697754
1766054144590990300,8.313990234375,-0.6294876933097839,-9.313372611999512,-3.0058653354644775
1766054144600969500,8.323969482421875,-0.5652899742126465,-9.321966171264648,-2.991957426071167
1766054144610979300,8.333979248046875,-0.5653036832809448,-9.325119018554688,-2.982114315032959
1766054144620958500,8.34395849609375,-0.4904220700263977,-9.332279205322266,-2.9729530811309814
1766054144640917000,8.3639169921875,-0.40914809703826904,-9.335320472717285,-2.975691318511963
1766054144650926800,8.3739267578125,-0.3803986608982086,-9.334674835205078,-2.9815359115600586
1766054144660936400,8.3839365234375,-0.3157823979854584,-9.332243919372559,-2.9966511726379395
1766054144670915800,8.393915771484375,-0.23783084750175476,-9.327241897583008,-3.019334316253662
1766054144680925400,8.403925537109375,-0.22923195362091064,-9.325840950012207,-3.0243265628814697
1766054144690935300,8.413935302734375,-0.16386574506759644,-9.319000244140625,-3.049556016921997
1766054144710893800,8.433893798828125,-0.07353460788726807,-9.309721946716309,-3.081242322921753
1766054144720903700,8.443903564453125,0.004861760884523392,-9.300944328308105,-3.1085093021392822
1766054144730913300,8.453913330078125,0.0973898246884346,-9.289322853088379,-3.141559362411499
1766054144760881700,8.483881591796875,0.40149903297424316,-9.246308326721191,-3.2426841259002686
1766054144790911000,8.513910888671875,0.5667702555656433,-9.215224266052246,-3.3058741092681885
1766054144800920600,8.523920654296875,0.6019435524940491,-9.20799446105957,-3.319777488708496
1766054144810930400,8.533930419921875,0.6786705255508423,-9.194732666015625,-3.3416666984558105
1766054144830919400,8.55391943359375,0.8156412839889526,-9.170914649963379,-3.3763046264648438
1766054144850908400,8.573908447265625,0.9634870290756226,-9.151078224182129,-3.3911476135253906
1766054144870897400,8.5938974609375,1.0939502716064453,-9.134742736816406,-3.3956046104431152
1766054144880907300,8.6039072265625,1.127213954925537,-9.129203796386719,-3.399620771408081
1766054144890917000,8.613917236328126,1.1170088052749634,-9.130125999450684,-3.400515079498291
1766054144900896300,8.623896240234375,1.0315256118774414,-9.143509864807129,-3.391547679901123
1766054144910875400,8.63387548828125,0.9260215163230896,-9.164915084838867,-3.364100456237793
1766054144920885200,8.64388525390625,0.8555378317832947,-9.177582740783691,-3.3481969833374023
1766054144930864600,8.65386474609375,0.666456401348114,-9.208348274230957,-3.3064448833465576
1766054144940874200,8.663874267578125,0.5411863327026367,-9.227192878723145,-3.276649236679077
1766054144950853600,8.673853515625,0.4731462299823761,-9.237866401672363,-3.2570457458496094
1766054144960832800,8.683832763671875,0.32882747054100037,-9.25956916809082,-3.2128913402557373
1766054144970842600,8.693842529296875,0.24467356503009796,-9.273031234741211,-3.1814208030700684
1766054144980852200,8.703852294921875,0.18231646716594696,-9.285029411315918,-3.1504528522491455
1766054144990831600,8.71383154296875,0.14179010689258575,-9.29444408416748,-3.1246750354766846
1766054145000810800,8.723810791015625,0.11283347755670547,-9.302274703979492,-3.1024744510650635
1766054145010790100,8.7337900390625,0.08182546496391296,-9.308988571166992,-3.083253860473633
1766054145020769300,8.743769287109375,0.04608136788010597,-9.315463066101074,-3.064377784729004
1766054145030718000,8.753718017578125,0.003431143471971154,-9.322056770324707,-3.0446088314056396
1766054145040697300,8.763697265625,-0.040486034005880356,-9.326565742492676,-3.030500888824463
1766054145070665500,8.79366552734375,-0.24258682131767273,-9.335674285888672,-2.992784261703491
1766054145110613000,8.833613037109375,-0.3454439640045166,-9.331110954284668,-2.9969050884246826
1766054145120622800,8.843622802734375,-0.3462812900543213,-9.330787658691406,-2.9978115558624268
1766054145130632700,8.8536328125,-0.336758553981781,-9.330995559692383,-2.99825119972229
1766054145140611800,8.86361181640625,-0.3192576766014099,-9.332538604736328,-2.9953620433807373
1766054145150591000,8.873591064453125,-0.3167673349380493,-9.333169937133789,-2.993659257888794
1766054145170580200,8.893580322265626,-0.3092600107192993,-9.335345268249512,-2.987652063369751
1766054145180559400,8.903559326171875,-0.2873784303665161,-9.335741996765137,-2.9886035919189453
1766054145190569200,8.9135693359375,-0.26239362359046936,-9.336939811706543,-2.9871654510498047
1766054145200548400,8.92354833984375,-0.23537380993366241,-9.339689254760742,-2.9808084964752197
1766054145210588700,8.933588623046875,-0.19428835809230804,-9.341753005981445,-2.9772939682006836
1766054145220598500,8.9435986328125,-0.16788287460803986,-9.340426445007324,-2.983058214187622
1766054145230577700,8.95357763671875,-0.02204553596675396,-9.330667495727539,-3.0180392265319824
1766054145280535000,9.00353515625,0.32427841424942017,-9.287490844726562,-3.1317403316497803
1766054145290575000,9.0135751953125,0.41555124521255493,-9.273904800415039,-3.161078691482544
1766054145300554500,9.023554443359375,0.5114026069641113,-9.257880210876465,-3.1938316822052
1766054145310533600,9.03353369140625,0.6144546866416931,-9.239457130432129,-3.228816509246826
1766054145320513000,9.043512939453125,0.7210837602615356,-9.217896461486816,-3.268150806427002
1766054145330492200,9.0534921875,0.8177917003631592,-9.198857307434082,-3.298884630203247
1766054145340502000,9.063501953125,0.9246037602424622,-9.172196388244629,-3.3446004390716553
1766054145350511900,9.073511962890626,0.9693851470947266,-9.161720275878906,-3.3605897426605225
1766054145380510500,9.103510498046875,1.1276359558105469,-9.099470138549805,-3.478285551071167
1766054145390489900,9.11348974609375,1.1361486911773682,-9.094367980957031,-3.4888432025909424
1766054145400499500,9.12349951171875,1.1347841024398804,-9.087848663330078,-3.5062332153320312
1766054145410478800,9.133478759765625,1.1365443468093872,-9.081513404846191,-3.522040843963623
1766054145420458000,9.1434580078125,1.1516296863555908,-9.069060325622559,-3.549123525619507
1766054145430406700,9.15340673828125,1.1734633445739746,-9.059325218200684,-3.566797971725464
1766054145440386000,9.163385986328125,1.1910264492034912,-9.056573867797852,-3.5679550170898438
1766054145450365200,9.173365234375,1.206032633781433,-9.053808212280273,-3.5699355602264404
1766054145490374000,9.213373779296875,1.2265260219573975,-9.054801940917969,-3.5604217052459717
1766054145500383500,9.223383544921875,1.1660133600234985,-9.069612503051758,-3.543015241622925
1766054145510363000,9.23336279296875,1.1370420455932617,-9.07774543762207,-3.5315845012664795
1766054145520342000,9.243342041015625,1.0389636754989624,-9.097410202026367,-3.5111334323883057
1766054145530321400,9.2533212890625,0.8768044710159302,-9.127176284790039,-3.4779646396636963
1766054145540331000,9.2633310546875,0.7682140469551086,-9.145648002624512,-3.4550528526306152
1766054145550280000,9.273280029296876,0.6738865375518799,-9.163331985473633,-3.4277729988098145
1766054145560259000,9.283259033203125,0.5945703983306885,-9.177152633666992,-3.4054014682769775
1766054145620195600,9.343195556640625,0.1559104025363922,-9.26314640045166,-3.21561861038208
1766054145630205400,9.353205322265625,0.1047176793217659,-9.270174980163574,-3.1973886489868164
1766054145640184600,9.3631845703125,-0.04221183434128761,-9.285640716552734,-3.1536552906036377
1766054145650194400,9.3731943359375,-0.12356004118919373,-9.294730186462402,-3.1245977878570557
1766054145660173600,9.383173583984375,-0.20080052316188812,-9.302404403686523,-3.09763503074646
1766054145670153000,9.393153076171876,-0.28044602274894714,-9.309255599975586,-3.070744276046753
1766054145700121000,9.42312109375,-0.5430725812911987,-9.331521987915039,-2.9661664962768555
1766054145710100500,9.4331005859375,-0.6372185945510864,-9.332770347595215,-2.9434220790863037
1766054145720110000,9.443110107421875,-0.7181059122085571,-9.336206436157227,-2.913756847381592
1766054145730120000,9.453119873046875,-0.8466030955314636,-9.336973190307617,-2.8765664100646973
1766054145740129800,9.4631298828125,-0.9853575229644775,-9.337967872619629,-2.8287456035614014
1766054145750109000,9.47310888671875,-1.0811846256256104,-9.336153030395508,-2.799592971801758
1766054145760088000,9.483088134765625,-1.1489713191986084,-9.335113525390625,-2.775951862335205
1766054145770067500,9.4930673828125,-1.199825644493103,-9.333256721496582,-2.7606451511383057
1766054145780107800,9.503107666015625,-1.2671502828598022,-9.333191871643066,-2.730621814727783
1766054145810137000,9.53313720703125,-1.266937494277954,-9.322528839111328,-2.766892671585083
1766054145820146700,9.543146728515625,-1.2392781972885132,-9.319650650024414,-2.7890286445617676
1766054145830126000,9.5531259765625,-1.2058730125427246,-9.318314552307129,-2.8080756664276123
1766054145840135700,9.5631357421875,-1.1892162561416626,-9.315443992614746,-2.8246521949768066
1766054145860124700,9.583124755859375,-1.1800427436828613,-9.308963775634766,-2.8497488498687744
1766054145870104000,9.59310400390625,-1.1770079135894775,-9.30048656463623,-2.878542423248291
1766054145880083200,9.603083251953125,-1.1766932010650635,-9.287397384643555,-2.9206228256225586
1766054145900072200,9.623072265625,-1.1735332012176514,-9.269987106323242,-2.9766619205474854
1766054145910051600,9.633051513671875,-1.167035698890686,-9.263382911682129,-2.9996914863586426
1766054145920092000,9.643091796875,-1.1600120067596436,-9.260621070861816,-3.010925769805908
1766054145930071000,9.653071044921875,-1.1282026767730713,-9.253890037536621,-3.043520450592041
1766054145940111400,9.663111328125,-1.0914932489395142,-9.250714302062988,-3.066484212875366
1766054145950090500,9.673090576171875,-1.035546064376831,-9.238625526428223,-3.121835947036743
1766054145960070000,9.68306982421875,-0.9851844906806946,-9.23117446899414,-3.159945249557495
1766054145970110200,9.693110107421875,-0.9514394402503967,-9.224224090576172,-3.190429449081421
1766054146010027000,9.733027099609375,-0.8680006861686707,-9.194514274597168,-3.2981674671173096
1766054146020036900,9.743036865234375,-0.8729416728019714,-9.1918363571167,-3.3043198585510254
1766054146029985500,9.752985595703125,-0.8773162364959717,-9.192235946655273,-3.302048444747925
1766054146039995400,9.762995361328125,-0.8843308091163635,-9.194189071655273,-3.2947285175323486
1766054146049974500,9.772974609375,-0.8862959146499634,-9.196403503417969,-3.2880117893218994
1766054146069933000,9.79293310546875,-0.8771236538887024,-9.202615737915039,-3.273057222366333
1766054146079943000,9.80294287109375,-0.8628212809562683,-9.211610794067383,-3.251481294631958
1766054146109880600,9.832880615234375,-0.8762120604515076,-9.227153778076172,-3.2034833431243896
1766054146119890400,9.842890380859375,-0.8954574465751648,-9.2327241897583,-3.182037830352783
1766054146129839000,9.852839111328125,-0.9143310785293579,-9.235756874084473,-3.167830467224121
1766054146139818500,9.862818603515626,-0.9380430579185486,-9.238213539123535,-3.1537115573883057
1766054146149797600,9.872797607421875,-0.9492732286453247,-9.240095138549805,-3.1448214054107666
1766054146159776800,9.88277685546875,-0.9606330990791321,-9.243435859680176,-3.131532907485962
1766054146169786600,9.89278662109375,-0.9691171646118164,-9.244521141052246,-3.1257104873657227
1766054146179796500,9.90279638671875,-0.9771239161491394,-9.245588302612305,-3.1200497150421143
1766054146189745200,9.9127451171875,-0.9855930805206299,-9.24831485748291,-3.1092910766601562
1766054146209734100,9.932734130859375,-1.006881594657898,-9.25212287902832,-3.0910892486572266
1766054146239733000,9.96273291015625,-1.0140365362167358,-9.259963989257812,-3.0651633739471436
1766054146249773300,9.972773193359375,-1.0168755054473877,-9.261611938476562,-3.059230089187622
1766054146259752400,9.98275244140625,-1.0170637369155884,-9.264678001403809,-3.0498709678649902
1766054146269701000,9.992701171875,-1.023069143295288,-9.267060279846191,-3.04061222076416
1766054146279680500,10.002680419921875,-1.0296695232391357,-9.268647193908691,-3.0335371494293213
1766054146289659600,10.01265966796875,-1.0127426385879517,-9.25946044921875,-3.067100763320923
1766054146319658500,10.042658447265625,-1.0038628578186035,-9.256546974182129,-3.0787901878356934
1766054146339708400,10.06270849609375,-1.0242708921432495,-9.249755859375,-3.092456579208374
1766054146349687800,10.072687744140625,-1.010189414024353,-9.248761177062988,-3.1000559329986572
1766054146359697400,10.082697509765625,-0.9757330417633057,-9.25078296661377,-3.105050563812256
1766054146369707300,10.092707275390625,-0.9245888590812683,-9.257058143615723,-3.1020023822784424
1766054146379656000,10.102656005859375,-0.8841601014137268,-9.262332916259766,-3.0980422496795654
1766054146389665800,10.112665771484375,-0.8470391631126404,-9.265960693359375,-3.097569465637207
1766054146429613300,10.15261328125,-0.7512073516845703,-9.274768829345703,-3.0959243774414062
1766054146439623200,10.162623046875,-0.7391036748886108,-9.275361061096191,-3.0970606803894043
1766054146449632800,10.1726328125,-0.7381287217140198,-9.274372100830078,-3.10025691986084
1766054146459612200,10.182612060546875,-0.7302201390266418,-9.273808479309082,-3.103814125061035
1766054146469621800,10.192621826171875,-0.7113646268844604,-9.273406028747559,-3.109388828277588
1766054146479601200,10.20260107421875,-0.6868056058883667,-9.275032997131348,-3.110058307647705
1766054146489610800,10.21261083984375,-0.6543412804603577,-9.278254508972168,-3.107449531555176
1766054146499590100,10.222590087890625,-0.642933189868927,-9.279102325439453,-3.107300043106079
1766054146529589000,10.252589111328126,-0.5753864049911499,-9.280452728271484,-3.116492986679077
1766054146539568000,10.262568115234375,-0.5384595394134521,-9.280750274658203,-3.1222023963928223
1766054146549578000,10.272577880859375,-0.5133183598518372,-9.277724266052246,-3.1353976726531982
1766054146559557000,10.28255712890625,-0.48624566197395325,-9.277192115783691,-3.1412909030914307
1766054146569536500,10.29253662109375,-0.46929773688316345,-9.276158332824707,-3.1469099521636963
1766054146579546000,10.302546142578125,-0.4383352994918823,-9.276430130004883,-3.150571346282959
1766054146589494800,10.312494873046875,-0.42248979210853577,-9.274870872497559,-3.1573240756988525
1766054146599504600,10.322504638671875,-0.40251609683036804,-9.273174285888672,-3.164903402328491
1766054146609514500,10.332514404296875,-0.390671044588089,-9.274206161499023,-3.1633641719818115
1766054146629503500,10.35250341796875,-0.35931816697120667,-9.276405334472656,-3.1606338024139404
1766054146639513000,10.36251318359375,-0.3527858555316925,-9.27883529663086,-3.154231071472168
1766054146649523000,10.37252294921875,-0.35399317741394043,-9.281621932983398,-3.145885467529297
1766054146659502300,10.38250244140625,-0.3608972728252411,-9.283293724060059,-3.1401615142822266
1766054146669481500,10.3924814453125,-0.3776245415210724,-9.288398742675781,-3.1230552196502686
1766054146679460600,10.402460693359375,-0.39781859517097473,-9.292617797851562,-3.107952833175659
1766054146689440000,10.41243994140625,-0.41557490825653076,-9.29763412475586,-3.090575933456421
1766054146699449900,10.422449951171876,-0.4283829629421234,-9.303007125854492,-3.072603464126587
1766054146709429000,10.432428955078125,-0.4319537878036499,-9.307023048400879,-3.0599210262298584
1766054146719408000,10.442408203125,-0.430374413728714,-9.309972763061523,-3.0511624813079834
1766054146759447300,10.482447265625,-0.4717988967895508,-9.3261079788208,-2.9952430725097656
1766054146769426400,10.492426513671875,-0.49168404936790466,-9.329292297363281,-2.982109546661377
1766054146779405800,10.50240576171875,-0.5179135799407959,-9.331265449523926,-2.971470355987549
1766054146789385000,10.512385009765625,-0.5376681089401245,-9.332856178283691,-2.9629578590393066
1766054146799364400,10.5223642578125,-0.5916352272033691,-9.333404541015625,-2.9509263038635254
1766054146809374000,10.5323740234375,-0.6241676807403564,-9.33305835723877,-2.9453115463256836
1766054146819353300,10.542353271484375,-0.6598536372184753,-9.33212947845459,-2.94046688079834
1766054146829332500,10.55233251953125,-0.7031208276748657,-9.331364631652832,-2.9328606128692627
1766054146849291000,10.572291015625,-0.8026677966117859,-9.329455375671387,-2.913311719894409
1766054146859300900,10.58230078125,-0.9155401587486267,-9.323216438293457,-2.899974822998047
1766054146869310500,10.592310546875,-0.9890180826187134,-9.318592071533203,-2.8906943798065186
1766054146879289900,10.602289794921875,-1.0301181077957153,-9.316871643066406,-2.8818633556365967
1766054146889299700,10.6122998046875,-1.1128089427947998,-9.311076164245605,-2.869825601577759
1766054146899278800,10.62227880859375,-1.144415259361267,-9.308858871459961,-2.8645851612091064
1766054146909258000,10.632258056640625,-1.19258713722229,-9.302409172058105,-2.8658883571624756
1766054146919267800,10.642267822265625,-1.20487642288208,-9.300395011901855,-2.867288112640381
1766054146929216500,10.652216552734375,-1.200290322303772,-9.299860000610352,-2.8709473609924316
1766054146949205500,10.67220556640625,-1.202066421508789,-9.300165176391602,-2.8692057132720947
1766054146979204400,10.702204345703125,-1.257735013961792,-9.295340538024902,-2.8609654903411865
1766054146989214200,10.712214111328125,-1.2648112773895264,-9.294205665588379,-2.8615331649780273
1766054146999223800,10.722223876953125,-1.2734885215759277,-9.291715621948242,-2.865769386291504
1766054147009203200,10.732203125,-1.2808949947357178,-9.290384292602539,-2.8667867183685303
1766054147019182300,10.742182373046875,-1.2882345914840698,-9.286436080932617,-2.8762712478637695
1766054147039140900,10.762140869140625,-1.3009110689163208,-9.281749725341797,-2.885685920715332
1766054147049150700,10.772150634765625,-1.3108456134796143,-9.280122756958008,-2.8864150047302246
1766054147059160300,10.782160400390625,-1.3325906991958618,-9.275074005126953,-2.8926730155944824
1766054147069139700,10.7921396484375,-1.340743064880371,-9.274703979492188,-2.8900997638702393
1766054147079118800,10.802118896484375,-1.3566288948059082,-9.272178649902344,-2.8907933235168457
1766054147089098200,10.81209814453125,-1.3841112852096558,-9.264788627624512,-2.9014370441436768
1766054147099107800,10.82210791015625,-1.399696707725525,-9.261083602905273,-2.9057886600494385
1766054147109056800,10.832056884765626,-1.4147765636444092,-9.255857467651367,-2.915114402770996
1766054147119096800,10.842096923828125,-1.428892731666565,-9.250932693481445,-2.923856019973755
1766054147129076200,10.852076171875,-1.4377467632293701,-9.246542930603027,-2.9333815574645996
1766054147159044400,10.88204443359375,-1.4731860160827637,-9.238837242126465,-2.940065383911133
1766054147179064000,10.90206396484375,-1.4795678853988647,-9.235943794250488,-2.945955991744995
1766054147189012700,10.9120126953125,-1.4754893779754639,-9.235538482666016,-2.949262857437134
1766054147199053000,10.922052978515625,-1.4737672805786133,-9.234458923339844,-2.9535040855407715
1766054147209032200,10.9320322265625,-1.4727809429168701,-9.234131813049316,-2.9550204277038574
1766054147219011600,10.942011474609375,-1.4767241477966309,-9.232316970825195,-2.958716869354248
1766054147228990700,10.95199072265625,-1.4849904775619507,-9.23342514038086,-2.9511187076568604
1766054147238970000,10.96197021484375,-1.4869900941848755,-9.23387622833252,-2.9486966133117676
1766054147248979700,10.971979736328125,-1.480635166168213,-9.234926223754883,-2.9486000537872314
1766054147268968700,10.99196875,-1.45978844165802,-9.237662315368652,-2.9504218101501465
1766054147278948000,11.001947998046875,-1.4426350593566895,-9.240778923034668,-2.9491000175476074
1766054147288927200,11.01192724609375,-1.4216042757034302,-9.244698524475098,-2.9470279216766357
1766054147298906600,11.02190673828125,-1.4246546030044556,-9.24592399597168,-2.94171404838562
1766054147308885800,11.0318857421875,-1.4325182437896729,-9.245321273803711,-2.9397881031036377
1766054147318865000,11.041864990234375,-1.4396470785140991,-9.244966506958008,-2.9374189376831055
1766054147328844300,11.05184423828125,-1.4471298456192017,-9.244341850280762,-2.935704469680786
1766054147338854100,11.061854248046876,-1.4493626356124878,-9.245426177978516,-2.9311866760253906
1766054147348833300,11.071833251953125,-1.4605615139007568,-9.24427604675293,-2.929255485534668
1766054147378862600,11.101862548828125,-1.4352025985717773,-9.242666244506836,-2.9468109607696533
1766054147388841700,11.111841796875,-1.4290741682052612,-9.242169380187988,-2.951347827911377
1766054147398821000,11.121821044921875,-1.418786883354187,-9.241493225097656,-2.958414077758789
1766054147408830700,11.131830810546875,-1.4215245246887207,-9.240166664123535,-2.961251735687256
1766054147418840600,11.141840576171875,-1.4309154748916626,-9.23681640625,-2.967164993286133
1766054147428820000,11.151820068359376,-1.4510239362716675,-9.233509063720703,-2.967696189880371
1766054147438799000,11.161799072265625,-1.466686725616455,-9.22860336303711,-2.9752461910247803
1766054147448809000,11.17180908203125,-1.4789882898330688,-9.225513458251953,-2.9787447452545166
1766054147488695300,11.2116953125,-1.5387717485427856,-9.210505485534668,-2.9948570728302
1766054147498674700,11.2216748046875,-1.5428937673568726,-9.209076881408691,-2.997126579284668
1766054147508684300,11.231684326171875,-1.542470932006836,-9.208478927612305,-2.999183416366577
1766054147518694100,11.241694091796875,-1.5369515419006348,-9.208887100219727,-3.000764846801758
1766054147528704000,11.2517041015625,-1.5281466245651245,-9.211175918579102,-2.9982378482818604
1766054147538683100,11.26168310546875,-1.5193521976470947,-9.212787628173828,-2.9977450370788574
1766054147548662300,11.271662353515625,-1.5141887664794922,-9.214133262634277,-2.996225357055664
1766054147558672100,11.281672119140625,-1.5002511739730835,-9.217260360717773,-2.9936258792877197
1766054147578661000,11.3016611328125,-1.5003067255020142,-9.218998908996582,-2.9882330894470215
1766054147598650000,11.321650146484375,-1.5201857089996338,-9.217864990234375,-2.9816746711730957
1766054147608660000,11.331659912109375,-1.5162032842636108,-9.218794822692871,-2.9808309078216553
1766054147618669800,11.341669921875,-1.5050325393676758,-9.221085548400879,-2.9794116020202637
1766054147628649000,11.35164892578125,-1.4990397691726685,-9.221833229064941,-2.980109214782715
1766054147638628000,11.361628173828125,-1.4949074983596802,-9.223063468933105,-2.978381633758545
1766054147648638000,11.371637939453125,-1.4869248867034912,-9.22446060180664,-2.9780540466308594
1766054147658647800,11.381647705078125,-1.4772332906723022,-9.224477767944336,-2.982818126678467
1766054147688616000,11.411615966796875,-1.4679186344146729,-9.226372718811035,-2.981548547744751
1766054147698595300,11.42159521484375,-1.4690394401550293,-9.226195335388184,-2.9815545082092285
1766054147708574500,11.431574462890625,-1.4681737422943115,-9.225310325622559,-2.9847168922424316
1766054147718584300,11.441584228515625,-1.467451572418213,-9.224648475646973,-2.987114906311035
1766054147728563500,11.4515634765625,-1.464800238609314,-9.224571228027344,-2.9886529445648193
1766054147738542800,11.46154296875,-1.4614672660827637,-9.224156379699707,-2.991565227508545
1766054147748491500,11.471491455078125,-1.4573819637298584,-9.224047660827637,-2.9938879013061523
1766054147758501000,11.481501220703125,-1.439203143119812,-9.226143836975098,-2.996222734451294
1766054147768511000,11.491510986328125,-1.417975902557373,-9.22925090789795,-2.9967846870422363
1766054147788469500,11.511469482421875,-1.4025394916534424,-9.232446670532227,-2.994197368621826
1766054147798479400,11.521479248046875,-1.402612566947937,-9.232706069946289,-2.993360996246338
1766054147808458500,11.53145849609375,-1.4025696516036987,-9.232603073120117,-2.993701696395874
1766054147818468400,11.54146826171875,-1.4051295518875122,-9.232748985290527,-2.9920482635498047
1766054147828447500,11.551447509765625,-1.4089523553848267,-9.234347343444824,-2.9853100776672363
1766054147838457300,11.561457275390625,-1.415671706199646,-9.235615730285645,-2.9782021045684814
1766054147848181800,11.571181640625,-1.419395089149475,-9.237618446350098,-2.9702048301696777
1766054147857560800,11.580560791015625,-1.419313907623291,-9.240193367004395,-2.962223768234253
1766054147866940200,11.589940185546874,-1.422590970993042,-9.241537094116211,-2.9564530849456787
1766054147876380400,11.59938037109375,-1.4188591241836548,-9.243142127990723,-2.9532310962677
1766054147895230500,11.61823046875,-1.4158142805099487,-9.245991706848145,-2.945765256881714
1766054147904709600,11.627709716796875,-1.4190622568130493,-9.246160507202148,-2.943668842315674
1766054147914389000,11.637388916015626,-1.419556736946106,-9.243844032287598,-2.950700044631958
1766054147924068400,11.647068359375,-1.4125438928604126,-9.24194622039795,-2.9599955081939697
1766054147933878000,11.6568779296875,-1.399841070175171,-9.240568161010742,-2.970313787460327
1766054147953667000,11.6766669921875,-1.3683053255081177,-9.241145133972168,-2.9831788539886475
1766054147963646200,11.686646240234374,-1.3645552396774292,-9.241003036499023,-2.985337972640991
1766054147973625600,11.69662548828125,-1.3606617450714111,-9.241422653198242,-2.9858219623565674
1766054147983604700,11.706604736328124,-1.357714056968689,-9.241781234741211,-2.9860517978668213
1766054148003563300,11.726563232421874,-1.3538330793380737,-9.244161605834961,-2.980438232421875
1766054148023582700,11.746582763671874,-1.3466709852218628,-9.249095916748047,-2.9683496952056885
1766054148033592600,11.756592529296874,-1.3499665260314941,-9.250555038452148,-2.9623026847839355
1766054148043541200,11.766541259765624,-1.3600267171859741,-9.25158977508545,-2.9544591903686523
1766054148053520600,11.776520751953125,-1.3611475229263306,-9.25180721282959,-2.9532594680786133
1766054148063530200,11.7865302734375,-1.3590794801712036,-9.25164794921875,-2.9547150135040283
1766054148073540000,11.7965400390625,-1.3545433282852173,-9.252949714660645,-2.952711582183838
1766054148083488800,11.80648876953125,-1.347764015197754,-9.253593444824219,-2.953808069229126
1766054148093529000,11.816529052734374,-1.3450278043746948,-9.25405216217041,-2.953606367111206
1766054148103508200,11.82650830078125,-1.3459157943725586,-9.255125999450684,-2.949845314025879
1766054148133537500,11.85653759765625,-1.3680387735366821,-9.24972152709961,-2.9566104412078857
1766054148143517000,11.866516845703124,-1.381627082824707,-9.246210098266602,-2.9612691402435303
1766054148153496000,11.87649609375,-1.3893685340881348,-9.244494438171387,-2.963003396987915
1766054148163506000,11.886505859375,-1.3934482336044312,-9.243188858032227,-2.9651548862457275
1766054148173515800,11.896515869140625,-1.3991897106170654,-9.242552757263184,-2.9644393920898438
1766054148183495000,11.906494873046874,-1.3985583782196045,-9.241081237792969,-2.969320774078369
1766054148193504800,11.9165048828125,-1.399156093597412,-9.240912437438965,-2.9695634841918945
1766054148223442400,11.9464423828125,-1.4105010032653809,-9.235467910766602,-2.9811127185821533
1766054148243462000,11.9664619140625,-1.4258456230163574,-9.231121063232422,-2.987274646759033
1766054148253441300,11.976441162109374,-1.42897367477417,-9.228986740112305,-2.992363691329956
1766054148263390000,11.986389892578124,-1.4480314254760742,-9.2258882522583,-2.9927539825439453
1766054148273399800,11.99639990234375,-1.4699033498764038,-9.221671104431152,-2.9950873851776123
1766054148283379000,12.00637890625,-1.479614019393921,-9.22041130065918,-2.9941840171813965
1766054148293358000,12.016358154296874,-1.4882181882858276,-9.218464851379395,-2.995922803878784
1766054148303368000,12.026367919921874,-1.49014151096344,-9.218555450439453,-2.9946842193603516
1766054148333305600,12.0563056640625,-1.510988473892212,-9.216058731079102,-2.9919207096099854
1766054148353233700,12.076233642578124,-1.5198200941085815,-9.216060638427734,-2.987433910369873
1766054148363212800,12.086212890625,-1.5212366580963135,-9.2156343460083,-2.988032102584839
1766054148373222700,12.09622265625,-1.5212322473526,-9.216543197631836,-2.9852261543273926
1766054148383171300,12.10617138671875,-1.511765956878662,-9.217775344848633,-2.9862306118011475
1766054148393150700,12.116150634765624,-1.5080840587615967,-9.219218254089355,-2.9836368560791016
1766054148403160300,12.126160400390624,-1.511235237121582,-9.219038009643555,-2.9825992584228516
1766054148413139700,12.1361396484375,-1.5101567506790161,-9.219308853149414,-2.982309579849243
1766054148433128700,12.156128662109374,-1.5062471628189087,-9.21968936920166,-2.98310923576355
1766054148473076200,12.196076171875,-1.4954630136489868,-9.220108985900879,-2.9872334003448486
1766054148483086000,12.206086181640625,-1.4883143901824951,-9.220309257507324,-2.990185022354126
1766054148493095700,12.216095703125,-1.4853178262710571,-9.219234466552734,-2.9949841499328613
1766054148503044400,12.22604443359375,-1.4853941202163696,-9.21747875213623,-3.00034761428833
1766054148513054200,12.23605419921875,-1.4837881326675415,-9.215970039367676,-3.005772113800049
1766054148523033600,12.24603369140625,-1.4848183393478394,-9.214466094970703,-3.009876251220703
1766054148543022600,12.266022705078125,-1.4815852642059326,-9.215206146240234,-3.009197950363159
1766054148583000600,12.30600048828125,-1.4468153715133667,-9.224658966064453,-2.9971346855163574
1766054148593010200,12.31601025390625,-1.4261623620986938,-9.228357315063477,-2.9956443309783936
1766054148602989600,12.325989501953124,-1.4034671783447266,-9.231571197509766,-2.9964613914489746
1766054148612968700,12.33596875,-1.3936892747879028,-9.232998847961426,-2.996626377105713
1766054148622978600,12.345978515625,-1.392067551612854,-9.23255729675293,-2.9987332820892334
1766054148632988400,12.355988525390625,-1.3947736024856567,-9.232400894165039,-2.9979631900787354
1766054148662987000,12.385987060546874,-1.4293322563171387,-9.226611137390137,-2.999499797821045
1766054148672966400,12.39596630859375,-1.4407179355621338,-9.22443675994873,-3.0007483959198
1766054148682945500,12.405945556640624,-1.4530404806137085,-9.22186279296875,-3.0027194023132324
1766054148692925000,12.415925048828125,-1.4642109870910645,-9.218647956848145,-3.0071628093719482
1766054148702904000,12.425904052734374,-1.4733333587646484,-9.216653823852539,-3.008819818496704
1766054148712914000,12.435913818359374,-1.4847917556762695,-9.213422775268555,-3.0130765438079834
1766054148722893000,12.44589306640625,-1.4939683675765991,-9.210692405700684,-3.016885280609131
1766054148732872400,12.45587255859375,-1.4999310970306396,-9.209540367126465,-3.0174455642700195
1766054148752830700,12.475830810546874,-1.513196587562561,-9.204137802124023,-3.0272834300994873
1766054148762840600,12.485840576171874,-1.5216835737228394,-9.20245361328125,-3.028153657913208
1766054148782799000,12.505799072265624,-1.5444419384002686,-9.199124336242676,-3.026745080947876
1766054148792809000,12.51580908203125,-1.5611802339553833,-9.195838928222656,-3.028141975402832
1766054148802757600,12.525757568359374,-1.5663988590240479,-9.193987846374512,-3.0310630798339844
1766054148812767200,12.535767333984374,-1.573940396308899,-9.191719055175781,-3.0340428352355957
1766054148822777000,12.545777099609374,-1.5771421194076538,-9.190022468566895,-3.037520170211792
1766054148832787000,12.555786865234374,-1.5865423679351807,-9.186922073364258,-3.0419983863830566
1766054148852745500,12.575745361328124,-1.5950124263763428,-9.184154510498047,-3.0459187030792236
1766054148872704000,12.5957041015625,-1.6150321960449219,-9.17866039276123,-3.051931381225586
1766054148912743000,12.635742919921874,-1.6315730810165405,-9.17409610748291,-3.0568525791168213
1766054148922722300,12.645722412109375,-1.6321771144866943,-9.173704147338867,-3.057705879211426
1766054148942680600,12.6656806640625,-1.6268620491027832,-9.172845840454102,-3.0631020069122314
1766054148972679400,12.695679443359374,-1.606799602508545,-9.172463417053223,-3.0748140811920166
1766054148992668400,12.71566845703125,-1.5930358171463013,-9.173076629638672,-3.0801472663879395
1766054149012627000,12.735626953125,-1.590472936630249,-9.173978805541992,-3.0787856578826904
1766054149032646400,12.755646484375,-1.5799989700317383,-9.174506187438965,-3.0826048851013184
1766054149102623200,12.825623291015624,-1.577214002609253,-9.186347007751465,-3.0485787391662598
1766054149112602600,12.8356025390625,-1.575906753540039,-9.187064170837402,-3.0470871925354004
1766054149122612200,12.8456123046875,-1.5757588148117065,-9.187847137451172,-3.0448057651519775
1766054149132591600,12.855591552734374,-1.5755653381347656,-9.187317848205566,-3.046499729156494
1766054149142601200,12.865601318359374,-1.572616696357727,-9.185967445373535,-3.0520949363708496
1766054149152580600,12.87558056640625,-1.567270040512085,-9.184524536132812,-3.0591771602630615
1766054149162559700,12.885559814453124,-1.5666078329086304,-9.183638572692871,-3.0621707439422607
1766054149172569600,12.895569580078124,-1.5673086643218994,-9.183000564575195,-3.0637264251708984
1766054149202538000,12.9255380859375,-1.5526076555252075,-9.187193870544434,-3.0586400032043457
1766054149212547600,12.935547607421874,-1.5479440689086914,-9.189071655273438,-3.055359125137329
1766054149222527000,12.94552685546875,-1.5400900840759277,-9.192142486572266,-3.0500919818878174
1766054149232506000,12.955506103515624,-1.536633849143982,-9.194478988647461,-3.0447888374328613
1766054149242454800,12.965454833984374,-1.5166022777557373,-9.201441764831543,-3.0337722301483154
1766054149252495000,12.9754951171875,-1.4953925609588623,-9.208056449890137,-3.024219036102295
1766054149262474500,12.985474609375,-1.4696803092956543,-9.216083526611328,-3.0123417377471924
1766054149272453600,12.99545361328125,-1.4446227550506592,-9.22445011138916,-2.9988269805908203
1766054149282432800,13.005432861328124,-1.4119787216186523,-9.23263168334961,-2.9891862869262695
1766054149312431600,13.035431640625,-1.343976616859436,-9.248993873596191,-2.9698824882507324
1766054149342400000,13.06539990234375,-1.3364371061325073,-9.252302169799805,-2.962982654571533
1766054149352409600,13.07540966796875,-1.3343515396118164,-9.251084327697754,-2.967714786529541
1766054149362358500,13.085358642578125,-1.3311208486557007,-9.249547958374023,-2.973951816558838
1766054149372368100,13.0953681640625,-1.329276442527771,-9.248242378234863,-2.9788296222686768
1766054149382316800,13.10531689453125,-1.3306500911712646,-9.248038291931152,-2.978849172592163
1766054149392357000,13.115357177734374,-1.3290096521377563,-9.247678756713867,-2.9807016849517822
1766054149412346000,13.13534619140625,-1.3118778467178345,-9.250051498413086,-2.980928421020508
1766054149432335000,13.155335205078124,-1.2885106801986694,-9.250829696655273,-2.9886929988861084
1766054149442314500,13.165314453125,-1.2570117712020874,-9.255355834960938,-2.988093852996826
1766054149452293600,13.175293701171874,-1.2412153482437134,-9.25600814819336,-2.992678165435791
1766054149462303500,13.185303466796874,-1.2293152809143066,-9.25629997253418,-2.996685266494751
1766054149472282600,13.19528271484375,-1.219482183456421,-9.253405570983887,-3.009610652923584
1766054149482231600,13.2052314453125,-1.1996066570281982,-9.25568962097168,-3.0105783939361572
1766054149492271900,13.21527197265625,-1.1910706758499146,-9.255245208740234,-3.0153210163116455
1766054149502251000,13.2252509765625,-1.1628797054290771,-9.255678176879883,-3.024984359741211
1766054149512260900,13.2352607421875,-1.1435048580169678,-9.25574779510498,-3.0321524143218994
1766054149572197400,13.295197265625,-1.0442630052566528,-9.283674240112305,-2.9821646213531494
1766054149582176500,13.305176513671874,-1.0231432914733887,-9.288554191589355,-2.974283456802368
1766054149592186400,13.315186279296874,-0.9968249201774597,-9.294858932495117,-2.963501214981079
1766054149602165500,13.32516552734375,-0.9690803289413452,-9.302095413208008,-2.949965476989746
1766054246594517000,110.31751708984375,9.744673728942871,-0.459473192691803,-1.0003069639205933
1766054246604326700,110.32732666015625,9.742754936218262,-0.5047183632850647,-0.9971845746040344
1766054246614106000,110.33710620117188,9.744362831115723,-0.46208736300468445,-1.0021222829818726
1766054246624146200,110.34714624023438,9.74451732635498,-0.43731725215911865,-1.0116976499557495
1766054246664063200,110.38706323242188,9.740682601928711,-0.3207715153694153,-1.0893151760101318
1766054246684021800,110.40702172851563,9.73828125,-0.27614879608154297,-1.1225032806396484
1766054246723999700,110.44699975585938,9.731782913208008,-0.1611468642950058,-1.1986769437789917
1766054246793915600,110.51691552734376,9.717321395874023,-0.02195468358695507,-1.3204478025436401
1766054246803925200,110.52692529296876,9.714369773864746,0.007103635463863611,-1.3421469926834106
1766054246863831300,110.58683129882813,9.69977855682373,0.136118084192276,-1.4374140501022339
1766054246883759400,110.60675927734376,9.69446086883545,0.17784333229064941,-1.4683969020843506
1766054246943696000,110.66669580078126,9.679369926452637,0.3030390441417694,-1.5454307794570923
1766054246973633500,110.69663354492188,9.673233985900879,0.3246895372867584,-1.5790873765945435
1766054247003632400,110.72663232421876,9.670865058898926,0.33245334029197693,-1.591925024986267
1766054247013611500,110.73661157226563,9.670157432556152,0.3310125470161438,-1.59651780128479
1766054247023591000,110.7465908203125,9.670153617858887,0.3292258083820343,-1.5969088077545166
1766054247033600800,110.75660083007813,9.66997241973877,0.3221226632595062,-1.5994528532028198
1766054247043610400,110.7666103515625,9.669736862182617,0.3181038200855255,-1.6016855239868164
1766054247053589800,110.77658984375,9.669673919677734,0.310663640499115,-1.6035192012786865
1766054247063569000,110.78656884765626,9.669593811035156,0.30648481845855713,-1.6048107147216797
1766054247073548000,110.79654809570313,9.669393539428711,0.3057326078414917,-1.6061558723449707
1766054247093537300,110.81653735351563,9.668854713439941,0.3073386549949646,-1.609094500541687
1766054247113556700,110.836556640625,9.668180465698242,0.30862072110176086,-1.6128945350646973
1766054247123566300,110.84656640625,9.667560577392578,0.3096539378166199,-1.616410255432129
1766054247133545700,110.85654565429688,9.66723918914795,0.31008103489875793,-1.6182481050491333
1766054247143524900,110.86652490234376,9.66651725769043,0.3159641921520233,-1.6214200258255005
1766054247153534700,110.87653466796876,9.665369033813477,0.3299598693847656,-1.6254712343215942
1766054247163544600,110.88654467773438,9.664427757263184,0.338864803314209,-1.629228949546814
1766054247173523700,110.89652368164063,9.663335800170898,0.34647780656814575,-1.634101390838623
1766054247183564000,110.90656396484376,9.662527084350586,0.35193508863449097,-1.6377131938934326
1766054247213563000,110.93656298828125,9.657489776611328,0.37384334206581116,-1.662381887435913
1766054247223572500,110.94657250976563,9.65593433380127,0.3811453878879547,-1.669745683670044
1766054247233552000,110.9565517578125,9.655045509338379,0.3850872218608856,-1.6739751100540161
1766054247243561500,110.9665615234375,9.653521537780762,0.39041605591773987,-1.6815145015716553
1766054247253540900,110.97654077148438,9.652478218078613,0.39456868171691895,-1.6865241527557373
1766054247263520000,110.98652001953126,9.651199340820312,0.40140947699546814,-1.6922208070755005
1766054247273529900,110.99652978515626,9.650694847106934,0.40433797240257263,-1.6944001913070679
1766054247283448000,111.00644799804688,9.649765968322754,0.4068162143230438,-1.699089527130127
1766054247303467500,111.02646752929688,9.64862060546875,0.4046940207481384,-1.706086277961731
1766054247313477400,111.03647729492188,9.64818000793457,0.39983174204826355,-1.7097193002700806
1766054247323487200,111.0464873046875,9.647682189941406,0.3947436511516571,-1.7137054204940796
1766054247333466400,111.05646630859376,9.64752197265625,0.3914719223976135,-1.715356707572937
1766054247343445500,111.06644555664063,9.647485733032227,0.3860263228416443,-1.716797947883606
1766054247353455400,111.07645532226563,9.64709186553955,0.3830197751522064,-1.7196826934814453
1766054247363465200,111.08646533203125,9.646819114685059,0.3812870979309082,-1.7215936183929443
1766054247373474800,111.09647485351563,9.646513938903809,0.38229721784591675,-1.7230809926986694
1766054247383454200,111.1064541015625,9.646812438964844,0.3722077012062073,-1.7236157655715942
1766054247413453000,111.136453125,9.647553443908691,0.34273460507392883,-1.7255864143371582
1766054247423432200,111.14643212890626,9.650588989257812,0.2993970215320587,-1.7166469097137451
1766054247433411300,111.15641137695313,9.651674270629883,0.28141292929649353,-1.713585615158081
1766054247443421200,111.16642114257813,9.655431747436523,0.22815626859664917,-1.7002869844436646
1766054247453400300,111.176400390625,9.66403579711914,0.09754133969545364,-1.6635140180587769
1766054247463379700,111.18637963867188,9.670412063598633,-0.030452145263552666,-1.628676176071167
1766054247473358800,111.19635888671876,9.676288604736328,-0.2023550570011139,-1.5807816982269287
1766054247483368700,111.20636865234376,9.679062843322754,-0.42625749111175537,-1.5180363655090332
1766054247493317400,111.2163173828125,9.674179077148438,-0.7103614211082458,-1.4408490657806396
1766054247513245400,111.23624536132813,9.63742446899414,-1.2638651132583618,-1.3011873960494995
1766054247523255300,111.24625537109375,9.533442497253418,-2.001971960067749,-1.129589319229126
1766054247533265000,111.25626489257813,9.48072338104248,-2.267712116241455,-1.0694656372070312
1766054247543244300,111.26624438476563,9.248685836791992,-3.141608476638794,-0.8732153177261353
1766054247553223400,111.27622338867188,9.147685050964355,-3.4410336017608643,-0.8059412837028503
1766054247563233300,111.2862333984375,8.911075592041016,-4.040111064910889,-0.6637894511222839
1766054247573243000,111.29624291992188,8.477985382080078,-4.909268379211426,-0.4395821690559387
1766054247583252700,111.30625268554688,8.130809783935547,-5.475065231323242,-0.28977659344673157
1766054247593232000,111.31623193359376,7.938248157501221,-5.753973007202148,-0.21541601419448853
1766054247603241700,111.32624169921876,7.523199081420898,-6.290255069732666,-0.06750939041376114
1766054247623230700,111.34623071289063,6.325296878814697,-7.489160060882568,0.27107730507850647
1766054247633240600,111.35624047851563,6.071861743927002,-7.693694591522217,0.3316045105457306
1766054247643219700,111.3662197265625,5.3888139724731445,-8.179430961608887,0.4774666726589203
1766054247653260000,111.37626000976563,5.1584086418151855,-8.323834419250488,0.5244001150131226
1766054247663239400,111.38623950195313,4.561453342437744,-8.657781600952148,0.6374593377113342
1766054247673249000,111.3962490234375,4.181427478790283,-8.842780113220215,0.7009164094924927
1766054247693268700,111.41626879882813,3.613295555114746,-9.083678245544434,0.7754247784614563
1766054247703217400,111.42621752929688,3.0284934043884277,-9.292169570922852,0.8088117241859436
1766054247733216000,111.45621606445313,2.1197397708892822,-9.537571907043457,0.8436876535415649
1766054247743225900,111.46622583007813,1.9065407514572144,-9.57817554473877,0.8911022543907166
1766054247753205200,111.47620532226563,1.8543208837509155,-9.586688041687012,0.9095674157142639
1766054247763214800,111.48621484375,1.660751223564148,-9.61659049987793,0.9661797285079956
1766054247773194200,111.4961943359375,1.5218493938446045,-9.636276245117188,0.9982777237892151
1766054247783173400,111.50617333984376,1.4522126913070679,-9.64571762084961,1.0107260942459106
1766054247793152800,111.51615283203125,1.259928584098816,-9.670230865478516,1.0342209339141846
1766054247803101400,111.52610131835938,1.1502474546432495,-9.683164596557617,1.0409845113754272
1766054247813080600,111.53608056640626,1.0767298936843872,-9.69191837310791,1.0381484031677246
1766054247843049000,111.56604907226563,1.0722947120666504,-9.698370933532715,0.9809079766273499
1766054247853028000,111.57602807617188,1.1176643371582031,-9.696710586547852,0.9460722208023071
1766054247873017000,111.59601708984376,1.2621192932128906,-9.68753433227539,0.8538903594017029
1766054247893006000,111.61600610351563,1.3390140533447266,-9.687150955200195,0.7324855923652649
1766054247903016000,111.62601586914063,1.3352857828140259,-9.690044403076172,0.7003186345100403
1766055126198856200,989.9218562011719,9.488730430603027,-0.30117180943489075,-2.458387851715088
1766055126208835600,989.9318356933594,9.497127532958984,-0.30169883370399475,-2.425682544708252
1766055126218845200,989.9418452148437,9.502833366394043,-0.300732284784317,-2.403355360031128
1766055126228793900,989.9517939453125,9.50830364227295,-0.29941338300704956,-2.381786346435547
1766055126238773200,989.9617731933594,9.511101722717285,-0.29852890968322754,-2.3706979751586914
1766055126248722000,989.9717219238281,9.51906967163086,-0.28796684741973877,-2.339824676513672
1766055126258731800,989.9817316894531,9.522089958190918,-0.28204190731048584,-2.32822847366333
1766055126268680400,989.9916804199219,9.528095245361328,-0.2629363238811493,-2.3057830333709717
1766055126278659600,990.0016596679687,9.534358024597168,-0.23861119151115417,-2.282425880432129
1766055126288608500,990.0116083984375,9.544114112854004,-0.19117297232151031,-2.2458229064941406
1766055126328586500,990.0515864257812,9.567109107971191,-0.03435877338051796,-2.153979539871216
1766055126448398300,990.1713984375,9.617898941040039,0.36954447627067566,-1.8787848949432373
1766055126478305800,990.2013059082032,9.625701904296875,0.3741900324821472,-1.837455153465271
1766055126518161700,990.2411616210937,9.64257526397705,0.2925006151199341,-1.7622648477554321
1766055126548129800,990.2711298828125,9.655854225158691,0.18412452936172485,-1.7032243013381958
1766055126558109200,990.2811091308594,9.660937309265137,0.13067276775836945,-1.679162621498108
1766055126568057900,990.2910578613281,9.669028282165527,0.07366291433572769,-1.635495662689209
1766055126588077300,990.3110773925781,9.679614067077637,0.051104456186294556,-1.5725271701812744
