time,seconds_elapsed,z,y,x
1766054134476122000,-1.8008779296875,7.046135425567627,-6.746860504150391,-2.4588451385498047
1766054134506151400,-1.7708486328125,6.938396453857422,-6.646304130554199,-2.3271639347076416
1766054134516161300,-1.760838623046875,7.010222434997559,-6.617573261260986,-2.3750481605529785
1766054134526140400,-1.750859619140625,6.5912370681762695,-6.607996463775635,-2.276885747909546
1766054134566148900,-1.71085107421875,7.259219646453857,-6.665457725524902,-2.4899697303771973
1766054134576128300,-1.700871826171875,7.072471618652344,-6.72531270980835,-2.5761611461639404
1766054134636064800,-1.640935302734375,7.2137298583984375,-6.687005519866943,-2.250549554824829
1766054134646105000,-1.63089501953125,7.2113356590271,-6.773196697235107,-2.346317768096924
1766054134656114700,-1.62088525390625,7.144298076629639,-6.7923502922058105,-2.3798365592956543
1766054134666124500,-1.61087548828125,7.15387487411499,-6.507440090179443,-2.231395959854126
1766054134676073200,-1.6009267578125,7.184999465942383,-6.44279670715332,-2.233790159225464
1766054134686052600,-1.590947509765625,7.060500621795654,-6.466738700866699,-2.252943754196167
1766054134696092700,-1.5809072265625,7.022193431854248,-6.5912370681762695,-2.315192937850952
1766054134706102500,-1.5708974609375,6.871358871459961,-6.7277069091796875,-2.1954829692840576
1766054134726091500,-1.550908447265625,6.754043102264404,-6.845022678375244,-2.2242133617401123
1766054134736131800,-1.5408681640625,6.7061591148376465,-6.773196697235107,-2.296039342880249
1766054134756090400,-1.52090966796875,6.734889507293701,-6.646304130554199,-2.3535003662109375
1766054134766100200,-1.510899658203125,6.835445880889893,-6.67982292175293,-2.360682964324951
1766054134776109800,-1.50089013671875,6.687005519866943,-6.756437301635742,-2.3989901542663574
1766054134786089200,-1.490910888671875,6.794744491577148,-6.703764915466309,-2.432508945465088
1766054134826097700,-1.45090234375,6.947973251342773,-6.797138690948486,-2.4468741416931152
1766054134836107500,-1.440892578125,7.01979923248291,-6.871358871459961,-2.4157495498657227
1766054134846086700,-1.430913330078125,6.952761650085449,-6.907271862030029,-2.4444799423217773
1766054134856096500,-1.420903564453125,6.979097843170166,-6.797138690948486,-2.3487119674682617
1766054134866106000,-1.410893798828125,7.060500621795654,-6.562506675720215,-2.298433542251587
1766054134876085500,-1.40091455078125,7.079654216766357,-6.512228488922119,-2.346317768096924
1766054134886095400,-1.390904541015625,7.141903877258301,-6.509834289550781,-2.31758713722229
1766054134896105000,-1.38089501953125,7.12035608291626,-6.481103897094727,-2.279279947280884
1766054134916124400,-1.36087548828125,7.024587631225586,-6.694188117980957,-2.387019157409668
1766054134936113700,-1.34088623046875,7.026981830596924,-6.761225700378418,-2.3918075561523438
1766054134946123300,-1.330876708984375,7.072471618652344,-6.718130111694336,-2.4157495498657227
1766054134956102700,-1.3208974609375,7.072471618652344,-6.718130111694336,-2.4157495498657227
1766054134966112300,-1.3108876953125,7.129932880401611,-6.641515731811523,-2.33913516998291
1766054134976091600,-1.300908447265625,7.108384609222412,-6.6391215324401855,-2.3726539611816406
1766054134986101200,-1.290898681640625,7.132327079772949,-6.813898086547852,-2.3535003662109375
1766054134996111000,-1.280888916015625,7.103596210479736,-6.8378400802612305,-2.3343467712402344
1766054135006090200,-1.27090966796875,7.072471618652344,-6.806715488433838,-2.3295583724975586
1766054135026140400,-1.250859619140625,6.912060260772705,-6.825869083404541,-2.3127987384796143
1766054135036119600,-1.24088037109375,6.890512466430664,-6.665457725524902,-2.3918075561523438
1766054135046099000,-1.230901123046875,6.868964672088623,-6.651092529296875,-2.2816741466522217
1766054135056139300,-1.22086083984375,6.89530086517334,-6.552929878234863,-2.293645143508911
1766054135066118400,-1.210881591796875,6.885724067687988,-6.552929878234863,-2.365471363067627
1766054135076067000,-1.200932861328125,6.89530086517334,-6.737283706665039,-2.346317768096924
1766054135086107400,-1.190892578125,6.943184852600098,-6.75883150100708,-2.3774423599243164
1766054135096086800,-1.180913330078125,6.84981107711792,-6.730101108551025,-2.434903144836426
1766054135106035500,-1.170964599609375,6.885724067687988,-6.641515731811523,-2.4803929328918457
1766054135115984100,-1.161015869140625,6.926425457000732,-6.694188117980957,-2.4396915435791016
1766054135136003600,-1.140996337890625,7.038952827453613,-6.531382083892822,-2.33913516998291
1766054135145983000,-1.13101708984375,7.024587631225586,-6.63433313369751,-2.477998733520508
1766054135155962000,-1.121037841796875,7.0126166343688965,-6.730101108551025,-2.408566951751709
1766054135165972000,-1.111028076171875,6.9695210456848145,-6.801927089691162,-2.4205379486083984
1766054135176012300,-1.10098779296875,6.952761650085449,-6.761225700378418,-2.5234885215759277
1766054135185991400,-1.091008544921875,6.943184852600098,-6.708553314208984,-2.33913516998291
1766054135195970800,-1.081029296875,6.976703643798828,-6.629544734954834,-2.3032219409942627
1766054135205980400,-1.07101953125,7.043741226196289,-6.567295074462891,-2.2601263523101807
1766054135215959800,-1.061040283203125,7.01979923248291,-6.7061591148376465,-2.298433542251587
1766054135225969400,-1.051030517578125,6.962338447570801,-6.653486728668213,-2.3271639347076416
1766054135245928000,-1.031072021484375,7.0772600173950195,-6.775590896606445,-2.365471363067627
1766054135255937800,-1.021062255859375,7.079654216766357,-6.7708024978637695,-2.4181437492370605
1766054135265917000,-1.0110830078125,7.048529624938965,-6.694188117980957,-2.3511061668395996
1766054135275835100,-1.001164794921875,7.01979923248291,-6.7061591148376465,-2.3319525718688965
1766054135285845000,-0.991155029296875,7.041347026824951,-6.57926607131958,-2.3104045391082764
1766054135295824100,-0.98117578125,7.0126166343688965,-6.619967937469482,-2.3558945655822754
1766054135305834000,-0.971166015625,7.070077419281006,-6.603208065032959,-2.33913516998291
1766054135315843800,-0.96115625,7.046135425567627,-6.631938934326172,-2.382230758666992
1766054135325823000,-0.951177001953125,6.981492042541504,-6.8162922859191895,-2.408566951751709
1766054135355852300,-0.921147705078125,6.888118267059326,-6.7277069091796875,-2.3989901542663574
1766054135375780400,-0.9012197265625,6.950367450714111,-6.399701118469238,-2.403778553009033
1766054135385820700,-0.891179443359375,7.026981830596924,-6.490680694580078,-2.3295583724975586
1766054135395830300,-0.881169677734375,7.010222434997559,-6.574477672576904,-2.3487119674682617
1766054135405809700,-0.8711904296875,7.043741226196289,-6.744466304779053,-2.456450939178467
1766054135415819300,-0.8611806640625,6.888118267059326,-6.892906665802002,-2.4396915435791016
1766054135425798700,-0.851201416015625,6.8809356689453125,-6.842628479003906,-2.389413356781006
1766054135435808300,-0.841191650390625,6.959944248199463,-6.823474884033203,-2.3750481605529785
1766054135445787600,-0.83121240234375,6.98628044128418,-6.670246124267578,-2.403778553009033
1766054135455766800,-0.821233154296875,7.003039836883545,-6.531382083892822,-2.3726539611816406
1766054135465807000,-0.81119287109375,7.0126166343688965,-6.567295074462891,-2.3080103397369385
1766054135475786500,-0.801213623046875,7.022193431854248,-6.691793918609619,-2.3271639347076416
1766054135485796000,-0.791203857421875,6.967126846313477,-6.715735912322998,-2.341529369354248
1766054135495745000,-0.7812548828125,6.9695210456848145,-6.780379295349121,-2.3127987384796143
1766054135505724200,-0.77127587890625,6.955155849456787,-6.821080684661865,-2.3750481605529785
1766054135515734000,-0.761265869140625,7.024587631225586,-6.7492547035217285,-2.3295583724975586
1766054135525713200,-0.751286865234375,6.981492042541504,-6.708553314208984,-2.3918075561523438
1766054135535753500,-0.74124658203125,7.0126166343688965,-6.67982292175293,-2.3989901542663574
1766054135545732600,-0.731267333984375,7.091625213623047,-6.615179061889648,-2.3965959548950195
1766054135565721600,-0.7112783203125,7.024587631225586,-6.672640323638916,-2.3750481605529785
1766054135575762000,-0.701238037109375,6.995857238769531,-6.754043102264404,-2.3535003662109375
1766054135585741300,-0.6912587890625,6.995857238769531,-6.754043102264404,-2.3535003662109375
1766054135595751000,-0.6812490234375,6.830657482147217,-6.871358871459961,-2.387019157409668
1766054135605730300,-0.671269775390625,6.955155849456787,-6.789956092834473,-2.4372973442077637
1766054135615740000,-0.661260009765625,6.888118267059326,-6.799532890319824,-2.4660277366638184
1766054135625749800,-0.651250244140625,6.938396453857422,-6.754043102264404,-2.363077163696289
1766054135635759600,-0.641240478515625,7.050923824310303,-6.615179061889648,-2.4229321479797363
1766054135645738800,-0.63126123046875,7.048529624938965,-6.62236213684082,-2.367865562438965
1766054135665758200,-0.61124169921875,6.8809356689453125,-6.730101108551025,-2.410961151123047
1766054135675768000,-0.60123193359375,6.780379295349121,-6.787561893463135,-2.365471363067627
1766054135685716700,-0.591283203125,6.823474884033203,-6.876147270202637,-2.432508945465088
1766054135695726600,-0.5812734375,6.821080684661865,-6.823474884033203,-2.434903144836426
1766054135705705700,-0.571294189453125,6.952761650085449,-6.734889507293701,-2.4420857429504395
1766054135715685000,-0.56131494140625,6.971915245056152,-6.641515731811523,-2.367865562438965
1766054135725664300,-0.551335693359375,6.914454460144043,-6.694188117980957,-2.389413356781006
1766054135735674000,-0.541325927734375,6.904877662658691,-6.677428722381592,-2.3535003662109375
1766054135745684000,-0.53131591796875,6.876147270202637,-6.598419666290283,-2.389413356781006
1766054135755693600,-0.521306396484375,6.916848659515381,-6.773196697235107,-2.38462495803833
1766054135795641000,-0.48135888671875,7.005434036254883,-6.641515731811523,-2.4157495498657227
1766054135805651000,-0.47134912109375,6.9695210456848145,-6.653486728668213,-2.33913516998291
1766054135815630000,-0.461369873046875,7.017405033111572,-6.543353080749512,-2.387019157409668
1766054135825609500,-0.451390625,6.962338447570801,-6.588842868804932,-2.3989901542663574
1766054135835588600,-0.441411376953125,6.962338447570801,-6.739677906036377,-2.3774423599243164
1766054135845568000,-0.431431884765625,6.9695210456848145,-6.742072105407715,-2.403778553009033
1766054135855608000,-0.421391845703125,6.8809356689453125,-6.833051681518555,-2.4133553504943848
1766054135865618000,-0.411382080078125,6.900089263916016,-6.787561893463135,-2.492363929748535
1766054135895586300,-0.38141357421875,7.015010833740234,-6.734889507293701,-2.4181437492370605
1766054135905596000,-0.371404052734375,6.950367450714111,-6.651092529296875,-2.406172752380371
1766054135925585000,-0.3514150390625,6.890512466430664,-6.734889507293701,-2.360682964324951
1766054136005663200,-0.271336669921875,6.981492042541504,-6.75883150100708,-2.408566951751709
1766054136025621500,-0.25137841796875,6.878541469573975,-6.821080684661865,-2.360682964324951
1766054136035631400,-0.24136865234375,6.866570472717285,-6.821080684661865,-2.4899697303771973
1766054136045580000,-0.231419921875,6.845022678375244,-6.821080684661865,-2.3965959548950195
1766054136055559400,-0.221440673828125,6.921637058258057,-6.619967937469482,-2.403778553009033
1766054136065538600,-0.21146142578125,6.988674640655518,-6.658275127410889,-2.456450939178467
1766054136075548400,-0.20145166015625,6.955155849456787,-6.732495307922363,-2.432508945465088
1766054136085527600,-0.191472412109375,6.955155849456787,-6.744466304779053,-2.451662540435791
1766054136115526400,-0.1614736328125,6.955155849456787,-6.775590896606445,-2.406172752380371
1766054136135545900,-0.1414541015625,6.876147270202637,-6.691793918609619,-2.4157495498657227
1766054136145525200,-0.131474853515625,6.878541469573975,-6.763619899749756,-2.4157495498657227
1766054136155534800,-0.121465087890625,6.773196697235107,-6.892906665802002,-2.3032219409942627
1766054136165514200,-0.11148583984375,6.823474884033203,-6.885724067687988,-2.3726539611816406
1766054136175554600,-0.101445556640625,6.936002254486084,-6.75883150100708,-2.4205379486083984
1766054136185564200,-0.091435791015625,6.9024834632873535,-6.780379295349121,-2.293645143508911
1766054136205553200,-0.07144677734375,6.957550048828125,-6.754043102264404,-2.434903144836426
1766054136225511700,-0.05148828125,6.914454460144043,-6.7708024978637695,-2.456450939178467
1766054136235521500,-0.041478515625,6.921637058258057,-6.813898086547852,-2.537853717803955
1766054136245500700,-0.031499267578125,6.94079065322876,-6.871358871459961,-2.477998733520508
1766054136255480000,-0.02152001953125,6.959944248199463,-6.809109687805176,-2.4396915435791016
1766054136265489700,-0.01151025390625,6.847416877746582,-6.768408298492432,-2.425326347351074
1766054136275469000,-0.001531005859375,6.763619899749756,-6.75883150100708,-2.3726539611816406
1766054136285448200,0.0084482421875,6.7708024978637695,-6.878541469573975,-2.365471363067627
1766054136295488500,0.018488525390625,6.787561893463135,-6.763619899749756,-2.4684219360351562
1766054136305468000,0.028468017578125,6.809109687805176,-6.847416877746582,-2.3535003662109375
1766054136315416600,0.03841650390625,6.854599475860596,-6.718130111694336,-2.408566951751709
1766054136325426200,0.04842626953125,6.833051681518555,-6.7277069091796875,-2.434903144836426
1766054136335436000,0.05843603515625,6.845022678375244,-6.782773494720459,-2.389413356781006
1766054136345446000,0.06844580078125,6.916848659515381,-6.689399719238281,-2.454056739807129
1766054136355425000,0.078425048828125,6.861782073974609,-6.744466304779053,-2.403778553009033
1766054136365404400,0.088404296875,6.897695064544678,-6.710947513580322,-2.4396915435791016
1766054136375414000,0.0984140625,6.947973251342773,-6.780379295349121,-2.434903144836426
1766054136385393400,0.108393310546875,6.892906665802002,-6.88332986831665,-2.4875755310058594
1766054136395372500,0.11837255859375,6.890512466430664,-6.84981107711792,-2.494758129119873
1766054136445360400,0.1683603515625,6.861782073974609,-6.739677906036377,-2.4396915435791016
1766054136455339500,0.178339599609375,6.823474884033203,-6.720524311065674,-2.451662540435791
1766054136465379800,0.1883798828125,6.8043212890625,-6.818686485290527,-2.4612393379211426
1766054136475359200,0.198359130859375,6.904877662658691,-6.75883150100708,-2.4660277366638184
1766054136485338400,0.20833837890625,6.92881965637207,-6.823474884033203,-2.5019407272338867
1766054136495348200,0.21834814453125,6.818686485290527,-6.847416877746582,-2.434903144836426
1766054136505327400,0.228327392578125,6.888118267059326,-6.801927089691162,-2.516305923461914
1766054136515306800,0.238306640625,6.933608055114746,-6.780379295349121,-2.425326347351074
1766054136525316400,0.24831640625,6.861782073974609,-6.789956092834473,-2.4372973442077637
1766054136535326200,0.258326171875,6.897695064544678,-6.787561893463135,-2.4636335372924805
1766054136545336000,0.268336181640625,6.789956092834473,-6.777985095977783,-2.4372973442077637
1766054136555315200,0.278315185546875,6.806715488433838,-6.694188117980957,-2.4875755310058594
1766054136565294300,0.28829443359375,6.823474884033203,-6.775590896606445,-2.4875755310058594
1766054136575273700,0.298273681640625,6.775590896606445,-6.797138690948486,-2.3726539611816406
1766054136595293200,0.318293212890625,6.806715488433838,-6.888118267059326,-2.5115175247192383
1766054136605272600,0.3282724609375,6.8162922859191895,-6.847416877746582,-2.5306711196899414
1766054136615313000,0.33831298828125,6.7923502922058105,-6.854599475860596,-2.4612393379211426
1766054136625292000,0.3482919921875,6.823474884033203,-6.773196697235107,-2.47560453414917
1766054136635271200,0.358271240234375,6.780379295349121,-6.8593878746032715,-2.540247917175293
1766054136645250600,0.36825048828125,6.813898086547852,-6.873753070831299,-2.497152328491211
1766054136655260200,0.37826025390625,6.885724067687988,-6.856993675231934,-2.456450939178467
1766054136665270000,0.38827001953125,6.9695210456848145,-6.698976516723633,-2.5067291259765625
1766054136675249400,0.39824951171875,6.962338447570801,-6.687005519866943,-2.454056739807129
1766054136685228500,0.408228515625,6.88332986831665,-6.67982292175293,-2.367865562438965
1766054136695238400,0.41823828125,6.866570472717285,-6.818686485290527,-2.365471363067627
1766054136705217500,0.428217529296875,6.84981107711792,-6.828263282775879,-2.296039342880249
1766054136715197000,0.438197021484375,6.854599475860596,-6.938396453857422,-2.3247697353363037
1766054136725206500,0.44820654296875,6.794744491577148,-6.8809356689453125,-2.343923568725586
1766054136765123600,0.48812353515625,6.914454460144043,-6.605602264404297,-2.319981336593628
1766054136775164000,0.498163818359375,6.943184852600098,-6.888118267059326,-2.542642116546631
1766054136785143000,0.50814306640625,6.866570472717285,-7.086836814880371,-2.6216509342193604
1766054136795122400,0.518122314453125,6.813898086547852,-6.981492042541504,-2.542642116546631
1766054136805101600,0.5281015625,6.825869083404541,-7.058106422424316,-2.5665841102600098
1766054136815111400,0.538111328125,6.787561893463135,-6.92881965637207,-2.492363929748535
1766054136825090600,0.548090576171875,6.885724067687988,-6.710947513580322,-2.43011474609375
1766054136845079600,0.56807958984375,6.933608055114746,-6.588842868804932,-2.473210334777832
1766054136855059000,0.578058837890625,6.873753070831299,-6.4595561027526855,-2.4899697303771973
1766054136865038000,0.5880380859375,6.888118267059326,-6.57926607131958,-2.5019407272338867
1766054136875017500,0.598017578125,6.7708024978637695,-6.732495307922363,-2.5522189140319824
1766054136884996600,0.60799658203125,6.794744491577148,-6.66785192489624,-2.5665841102600098
1766054136895037000,0.618036865234375,6.830657482147217,-6.564900875091553,-2.47560453414917
1766054136905046800,0.628046875,7.003039836883545,-6.540958881378174,-2.607285737991333
1766054136915026000,0.63802587890625,7.1706342697143555,-6.215347766876221,-2.6240451335906982
1766054136925035800,0.648035888671875,7.386112213134766,-5.406107425689697,-2.6192567348480225
1766054136945024800,0.668024658203125,7.99184513092041,-3.928884983062744,-3.0190882682800293
1766054136965013800,0.688013671875,8.271966934204102,-3.1699230670928955,-2.82515811920166
1766054136975054000,0.69805419921875,8.401253700256348,-2.8227639198303223,-2.8443117141723633
1766054136985063700,0.708063720703125,8.413225173950195,-3.6152446269989014,-2.829946517944336
1766054136995043000,0.71804296875,8.358158111572266,-4.302380561828613,-2.940079689025879
1766054137005022200,0.728022216796875,8.118738174438477,-4.6950297355651855,-3.287238836288452
1766054137015032000,0.738031982421875,7.8960771560668945,-4.903325080871582,-3.552995204925537
1766054137025041700,0.748041748046875,7.575253963470459,-5.0876784324646,-3.7612907886505127
1766054137035021000,0.75802099609375,7.745242595672607,-4.953603267669678,-3.8522706031799316
1766054137065020000,0.78802001953125,7.240066051483154,-5.214571475982666,-4.3191399574279785
1766054137074999000,0.7979990234375,6.593631267547607,-5.966350555419922,-4.4077253341674805
1766054137084978200,0.807978271484375,5.729324817657471,-6.514622688293457,-4.326322555541992
1766054137094988000,0.817988037109375,4.7620673179626465,-7.161057472229004,-4.1156325340271
1766054137104967400,0.827967529296875,3.912125587463379,-7.623138427734375,-4.213795185089111
1766054137114946600,0.837946533203125,2.937685489654541,-8.975862503051758,-3.892971992492676
1766054137124956400,0.847956298828125,2.255337953567505,-9.835380554199219,-3.9169139862060547
1766054137134935600,0.857935546875,1.7477672100067139,-10.369287490844727,-3.780444383621216
1766054137144945400,0.8679453125,1.4724340438842773,-9.691728591918945,-3.8570590019226074
1766054137154955000,0.877955078125,1.5131354331970215,-9.591172218322754,-4.077325344085693
1766054137164934400,0.887934326171875,1.0438719987869263,-9.378087997436523,-4.1395745277404785
1766054137174974700,0.897974609375,0.33279404044151306,-9.457097053527832,-3.861847400665283
1766054137184953900,0.907953857421875,-0.2561795711517334,-8.734047889709473,-3.7397429943084717
1766054137194933200,0.917933349609375,-0.5841852426528931,-9.545681953430176,-3.624821424484253
1766054137204912400,0.927912353515625,-0.8523358106613159,-9.524134635925293,-3.5625722408294678
1766054137214922200,0.937922119140625,-1.6639702320098877,-9.334992408752441,-3.5027170181274414
1766054137224931800,0.947931884765625,-2.3989901542663574,-9.363722801208496,-3.5721490383148193
1766054137234911200,0.9579111328125,-2.6575639247894287,-9.473855972290039,-3.2585084438323975
1766054137244920800,0.9679208984375,-2.473210334777832,-9.148244857788086,-3.6798880100250244
1766054137254869800,0.977869873046875,-2.8371291160583496,-9.059659004211426,-3.6511576175689697
1766054137284899000,1.007899169921875,-3.756502389907837,-9.849745750427246,-3.6559460163116455
1766054137294908700,1.01790869140625,-4.338293552398682,-10.041281700134277,-3.6128504276275635
1766054137304918500,1.02791845703125,-4.180276393890381,-10.584765434265137,-3.6080620288848877
1766054137314897700,1.037897705078125,-4.165910720825195,-10.41956615447998,-3.622427225112915
1766054137324877000,1.047876953125,-4.367023944854736,-10.15141487121582,-3.6607344150543213
1766054137334917400,1.05791748046875,-4.577713489532471,-10.38604736328125,-3.4979286193847656
1766054137344896500,1.067896484375,-4.271255970001221,-9.710882186889648,-3.622427225112915
1766054137354906400,1.07790625,-4.517858505249023,-9.026140213012695,-3.44765043258667
1766054137364885500,1.087885498046875,-4.853046894073486,-8.607154846191406,-3.4189200401306152
1766054137374925800,1.09792578125,-4.67827033996582,-7.41484260559082,-2.913743495941162
1766054137384905000,1.107905029296875,-5.331887245178223,-7.814674377441406,-2.9544448852539062
1766054137394884400,1.11788427734375,-5.413290023803711,-7.773972988128662,-2.853888511657715
1766054137404863500,1.127863525390625,-5.200206279754639,-8.109161376953125,-2.698265314102173
1766054137414903800,1.13790380859375,-5.07570743560791,-8.604761123657227,-2.8586769104003906
1766054137424913700,1.14791357421875,-4.76924991607666,-8.643068313598633,-2.427720546722412
1766054137434862300,1.1578623046875,-4.855441093444824,-8.10437297821045,-2.3798365592956543
1766054137444902700,1.167902587890625,-4.838681697845459,-7.824251174926758,-2.0638017654418945
1766054137454881800,1.1778818359375,-4.728548526763916,-7.826645374298096,-2.231395959854126
1766054137464922000,1.187922119140625,-4.338293552398682,-8.042123794555664,-2.3080103397369385
1766054137484880600,1.207880615234375,-4.0078935623168945,-7.936778545379639,-2.3918075561523438
1766054137494921000,1.2179208984375,-3.667917013168335,-7.7643961906433105,-2.6384103298187256
1766054137504900000,1.227900146484375,-3.9193081855773926,-8.068459510803223,-2.782062292098999
1766054137514910000,1.237909912109375,-4.05817174911499,-8.286332130432129,-2.8395233154296875
1766054137524889000,1.24788916015625,-4.015076160430908,-6.842628479003906,-2.4660277366638184
1766054137534868500,1.257868408203125,-3.423708438873291,-8.487444877624512,-3.07415509223938
1766054137544878000,1.267878173828125,-3.160346269607544,-8.889671325683594,-2.889801502227783
1766054137554888000,1.277887939453125,-3.3494882583618164,-9.404424667358398,-3.023876667022705
1766054137564897800,1.287897705078125,-3.600879430770874,-10.034099578857422,-3.112462282180786
1766054137594896400,1.317896484375,-2.8155810832977295,-9.306262016296387,-3.134010076522827
1766054137614855000,1.33785498046875,-3.177105665206909,-8.956708908081055,-3.201047658920288
1766054137624864800,1.34786474609375,-3.4332852363586426,-8.650250434875488,-3.399766445159912
1766054137634844000,1.357843994140625,-3.73016619682312,-8.580819129943848,-3.514688014984131
1766054137644853800,1.367853759765625,-3.8163576126098633,-8.851364135742188,-3.361459255218506
1766054137654863600,1.377863525390625,-4.201824188232422,-9.5624418258667,-3.404554843902588
1766054137664842800,1.3878427734375,-4.72376012802124,-10.290278434753418,-3.4548330307006836
1766054137674822100,1.397822265625,-4.541800498962402,-10.409989356994629,-3.5027170181274414
1766054137694811100,1.41781103515625,-3.270479440689087,-8.925583839416504,-3.687070608139038
1766054137704851500,1.4278515625,-2.4803929328918457,-7.781155586242676,-3.5218706130981445
1766054137714861000,1.437861083984375,-2.7748796939849854,-8.257601737976074,-3.464409828186035
1766054137724840400,1.44784033203125,-3.023876667022705,-8.078036308288574,-3.3423056602478027
1766054137734880800,1.457880859375,-3.445256233215332,-9.026140213012695,-3.155557870864868
1766054137744890400,1.467890380859375,-3.5625722408294678,-9.461885452270508,-3.404554843902588
1766054137754869800,1.477869873046875,-3.028665065765381,-9.6989107131958,-3.287238836288452
1766054137764879400,1.48787939453125,-2.7126305103302,-9.655815124511719,-3.3686418533325195
1766054137774858800,1.497858642578125,-2.0254945755004883,-7.970297336578369,-3.1890766620635986
1766054137794847700,1.51784765625,-1.699883222579956,-8.389283180236816,-3.2178070545196533
1766054137804796400,1.52779638671875,-1.6519991159439087,-8.951920509338379,-3.1004912853240967
1766054137814806300,1.53780615234375,-1.8555063009262085,-9.172186851501465,-3.287238836288452
1766054137824785400,1.547785400390625,-1.525106430053711,-9.516951560974121,-3.1747114658355713
1766054137834795300,1.557795166015625,-1.2761094570159912,-9.653421401977539,-3.162740468978882
1766054137844804900,1.567804931640625,-1.3431471586227417,-8.87291145324707,-3.0310592651367188
1766054137854814700,1.577814697265625,-1.381454348564148,-8.391676902770996,-2.875436305999756
1766054137864793900,1.5877939453125,-1.4484920501708984,-8.853757858276367,-2.762908697128296
1766054137874803700,1.5978037109375,-1.580173134803772,-8.96389102935791,-2.7509377002716064
1766054137884813600,1.6078134765625,-1.5825673341751099,-9.466673851013184,-2.736572504043579
1766054137894823200,1.6178232421875,-1.5442601442337036,-9.892841339111328,-2.715024709701538
1766054137904833000,1.6278330078125,-1.4867992401123047,-9.387664794921875,-2.7988216876983643
1766054137914812200,1.637812255859375,-0.9050082564353943,-8.923190116882324,-2.626439332962036
1766054137924822000,1.647822021484375,-0.9026140570640564,-8.765172004699707,-2.6862943172454834
1766054137934831900,1.657831787109375,-0.9983820915222168,-8.56645393371582,-2.6455929279327393
1766054137944811000,1.66781103515625,-1.2761094570159912,-9.198522567749023,-2.808398485183716
1766054137954820900,1.67782080078125,-1.1971008777618408,-9.100360870361328,-2.9233202934265137
1766054137964830700,1.687830810546875,-1.3072341680526733,-9.457097053527832,-2.806004285812378
1766054137974840300,1.69784033203125,-1.3503297567367554,-9.550470352172852,-2.8778305053710938
1766054137984819700,1.70781982421875,-1.6304513216018677,-9.6989107131958,-2.8371291160583496
1766054138004778000,1.727778076171875,-2.1954829692840576,-9.770736694335938,-3.004723072052002
1766054138014818300,1.737818359375,-2.161964178085327,-9.622296333312988,-2.913743495941162
1766054138024797700,1.747797607421875,-2.2649147510528564,-9.734824180603027,-3.028665065765381
1766054138034776800,1.75777685546875,-2.2002713680267334,-10.38844108581543,-3.2130186557769775
1766054138044786700,1.76778662109375,-1.800439715385437,-9.605537414550781,-3.2154128551483154
1766054138054827000,1.777826904296875,-1.4915876388549805,-9.437943458557129,-3.1507694721221924
1766054138064836600,1.787836669921875,-1.4772224426269531,-9.41639518737793,-3.117250680923462
1766054138074846500,1.797846435546875,-1.5658079385757446,-9.191340446472168,-2.999934673309326
1766054138084825600,1.80782568359375,-1.7597382068634033,-9.105149269104004,-2.8634653091430664
1766054138094866000,1.817865966796875,-1.8195933103561401,-8.927978515625,-2.765302896499634
1766054138104875800,1.827875732421875,-1.941697597503662,-9.038111686706543,-2.7246015071868896
1766054138114824400,1.837824462890625,-1.946485996246338,-9.016563415527344,-2.734178304672241
1766054138124803800,1.847803955078125,-1.946485996246338,-9.016563415527344,-2.734178304672241
1766054138134813400,1.8578134765625,-1.8195933103561401,-9.124302864074707,-2.7078421115875244
1766054138144823300,1.8678232421875,-1.802833914756775,-9.287108421325684,-2.9281086921691895
1766054138154772000,1.87777197265625,-1.5849615335464478,-9.148244857788086,-2.9065608978271484
1766054138164781800,1.88778173828125,-1.5155296325683594,-8.927978515625,-2.873042106628418
1766054138174791400,1.89779150390625,-1.5466543436050415,-8.760383605957031,-2.889801502227783
1766054138184801300,1.90780126953125,-1.5969325304031372,-8.96149730682373,-2.873042106628418
1766054138194750000,1.91775,-1.7741034030914307,-9.229647636413574,-2.8658595085144043
1766054138204759800,1.927759765625,-1.7693150043487549,-9.425971984863281,-2.8347349166870117
1766054138224779300,1.947779296875,-1.7884687185287476,-9.105149269104004,-2.717418909072876
1766054138234758700,1.957758544921875,-1.6927006244659424,-9.030928611755371,-2.7102363109588623
1766054138244799000,1.967799072265625,-1.7262194156646729,-9.2033109664917,-2.779668092727661
1766054138254778000,1.977778076171875,-1.5825673341751099,-9.409213066101074,-2.695871114730835
1766054138264818400,1.987818359375,-1.5634137392044067,-9.521739959716797,-2.7269957065582275
1766054138274828000,1.997828125,-1.534683346748352,-9.478644371032715,-2.784456491470337
1766054138284807400,2.007807373046875,-1.5634137392044067,-9.349357604980469,-2.7461493015289307
1766054138294847700,2.01784765625,-1.558625340461731,-9.299078941345215,-2.741360902786255
1766054138314836700,2.037836669921875,-1.4772224426269531,-9.409213066101074,-2.652775526046753
1766054138324846300,2.047846435546875,-1.3982137441635132,-9.59596061706543,-2.719813108444214
1766054138334856200,2.057856201171875,-1.3503297567367554,-9.691728591918945,-2.6839001178741455
1766054138344835600,2.067835693359375,-1.3766659498214722,-9.550470352172852,-2.7676970958709717
1766054138354845200,2.07784521484375,-1.3766659498214722,-9.332598686218262,-2.7461493015289307
1766054138364824600,2.087824462890625,-1.436521053314209,-9.35654067993164,-2.7102363109588623
1766054138374865000,2.097864990234375,-1.4939818382263184,-9.404424667358398,-2.7006595134735107
1766054138384844000,2.107843994140625,-1.5490485429763794,-9.2033109664917,-2.693476915359497
1766054138394854000,2.11785400390625,-1.6400281190872192,-9.255983352661133,-2.7964274883270264
1766054138404833000,2.1278330078125,-1.6831238269805908,-9.437943458557129,-2.784456491470337
1766054138424852500,2.1478525390625,-1.6376339197158813,-9.253589630126953,-2.7772738933563232
1766054138434832000,2.157831787109375,-1.8507179021835327,-9.275136947631836,-2.801215887069702
1766054138444811000,2.16781103515625,-1.8722656965255737,-9.47146224975586,-2.674323320388794
1766054138454851300,2.177851318359375,-2.1092917919158936,-9.519346237182617,-2.6886885166168213
1766054138464830700,2.187830810546875,-2.145204782485962,-9.411606788635254,-2.7676970958709717
1766054138494798800,2.217798828125,-1.98958158493042,-9.461885452270508,-2.650381326675415
1766054138504778000,2.227778076171875,-1.824381709098816,-9.643844604492188,-2.609679937362671
1766054138564775700,2.287775634765625,-1.9129672050476074,-9.308655738830566,-2.7293899059295654
1766054138574816000,2.29781591796875,-2.030282974243164,-9.351752281188965,-2.6886885166168213
1766054138584825600,2.30782568359375,-2.1092917919158936,-9.488221168518066,-2.7126305103302
1766054138594835500,2.31783544921875,-2.1571757793426514,-9.533711433410645,-2.8107926845550537
1766054138604814800,2.32781494140625,-2.169146776199341,-9.497797966003418,-2.851494312286377
1766054138614824400,2.337824462890625,-1.900996208190918,-8.973467826843262,-2.9089550971984863
1766054138634844000,2.357843994140625,-1.7190368175506592,-8.858546257019043,-2.8443117141723633
1766054138644792800,2.367792724609375,-1.7262194156646729,-9.100360870361328,-2.7485435009002686
1766054138654833200,2.377833251953125,-1.6855180263519287,-9.148244857788086,-2.647987127304077
1766054138664842800,2.3878427734375,-1.659181833267212,-9.215282440185547,-2.6647465229034424
1766054138674822100,2.397822265625,-1.7741034030914307,-9.39245319366455,-2.715024709701538
1766054138684801300,2.40780126953125,-1.8794482946395874,-9.334992408752441,-2.693476915359497
1766054138694811100,2.41781103515625,-1.843535304069519,-9.296685218811035,-2.671929121017456
1766054138704790300,2.427790283203125,-1.745373010635376,-9.275136947631836,-2.7676970958709717
1766054138714769700,2.437769775390625,-1.5849615335464478,-9.033323287963867,-2.7102363109588623
1766054138724779300,2.447779296875,-1.7717092037200928,-9.318233489990234,-2.7078421115875244
1766054138744768300,2.467768310546875,-1.889025092124939,-9.435548782348633,-2.6647465229034424
1766054138754717200,2.47771728515625,-2.006340980529785,-9.533711433410645,-2.762908697128296
1766054138764696300,2.4876962890625,-2.006340980529785,-9.533711433410645,-2.762908697128296
1766054138774706200,2.4977060546875,-1.9153614044189453,-9.610325813293457,-2.7724854946136475
1766054138784685300,2.507685302734375,-1.9249382019042969,-9.576807022094727,-2.760514497756958
1766054138794695200,2.517695068359375,-1.8722656965255737,-9.579200744628906,-2.719813108444214
1766054138804704800,2.527704833984375,-1.9129672050476074,-9.459490776062012,-2.6408045291900635
1766054138814714600,2.537714599609375,-1.8818424940109253,-9.165003776550293,-2.801215887069702
1766054138824724500,2.547724365234375,-1.8076223134994507,-9.004592895507812,-2.7246015071868896
1766054138834703600,2.55770361328125,-1.7262194156646729,-9.17697525024414,-2.7126305103302
1766054138844683000,2.56768310546875,-1.6089035272598267,-9.423578262329102,-2.7317841053009033
1766054138864702500,2.587702392578125,-1.5155296325683594,-9.646238327026367,-2.846705913543701
1766054138874712000,2.597712158203125,-1.5753847360610962,-9.715670585632324,-2.940079689025879
1766054138884691500,2.60769140625,-1.5466543436050415,-9.674968719482422,-2.913743495941162
1766054138894731800,2.617731689453125,-1.6879122257232666,-9.32541561126709,-2.8586769104003906
1766054138904711000,2.6277109375,-1.7381904125213623,-9.184157371520996,-2.9017724990844727
1766054138914720800,2.637720703125,-1.414973258972168,-8.978256225585938,-2.8371291160583496
1766054138924730400,2.64773046875,-1.3958195447921753,-9.162610054016113,-2.80361008644104
1766054138934709800,2.657709716796875,-1.436521053314209,-9.174580574035645,-2.695871114730835
1766054138944719600,2.6677197265625,-1.501164436340332,-9.342175483703613,-2.7102363109588623
1766054138964708600,2.68770849609375,-1.3862427473068237,-9.57441234588623,-2.7509377002716064
1766054138984697600,2.707697509765625,-1.357512354850769,-9.945513725280762,-2.935291290283203
1766054138994707200,2.717707275390625,-0.993593692779541,-9.294290542602539,-2.894589900970459
1766054139004717000,2.727717041015625,-1.0414776802062988,-9.375694274902344,-2.96162748336792
1766054139014727000,2.737726806640625,-1.1492167711257935,-9.406818389892578,-3.026270866394043
1766054139024706000,2.7477060546875,-1.0773907899856567,-9.442731857299805,-2.980781078338623
1766054139034716000,2.7577158203125,-1.0414776802062988,-9.387664794921875,-3.023876667022705
1766054139044695000,2.767695068359375,-1.0749965906143188,-9.473855972290039,-3.021482467651367
1766054139064714800,2.78771484375,-1.4700398445129395,-9.737217903137207,-2.956839084625244
1766054139074694000,2.79769384765625,-1.4891934394836426,-9.428366661071777,-2.875436305999756
1766054139084703700,2.807703857421875,-1.4101848602294922,-9.002198219299316,-2.8850131034851074
1766054139094683000,2.817682861328125,-1.3311761617660522,-9.064447402954102,-2.7724854946136475
1766054139104662000,2.827662109375,-1.237802267074585,-9.033323287963867,-2.669534921646118
1766054139114671900,2.837671875,-1.113303780555725,-9.083600997924805,-2.734178304672241
1766054139124651300,2.8476513671875,-1.158793568611145,-9.275136947631836,-2.7988216876983643
1766054139134691300,2.85769140625,-0.9768342971801758,-9.536105155944824,-2.762908697128296
1766054139144701200,2.867701171875,-1.1204863786697388,-9.500192642211914,-2.6839001178741455
1766054139174669600,2.897669677734375,-0.5099649429321289,-9.129091262817383,-2.846705913543701
1766054139184679200,2.90767919921875,-0.42377370595932007,-8.769960403442383,-2.760514497756958
1766054139194719500,2.917719482421875,-0.4620809257030487,-9.105149269104004,-2.557007312774658
1766054139204699000,2.927698974609375,-0.6847416758537292,-9.17936897277832,-2.6791117191314697
1766054139214739000,2.937739013671875,-0.5363011956214905,-9.452308654785156,-2.6384103298187256
1766054139224748800,2.947748779296875,-0.47405192255973816,-9.531316757202148,-2.7317841053009033
1766054139234728000,2.95772802734375,-0.3711012601852417,-9.500192642211914,-2.832340717315674
1766054139244707300,2.967707275390625,-0.0933738648891449,-9.509769439697266,-3.002328872680664
1766054139274706200,2.9977060546875,-0.11971008777618408,-9.081207275390625,-2.9472622871398926
1766054139284715800,3.0077158203125,-0.20350714027881622,-9.301473617553711,-2.7748796939849854
1766054139294695200,3.017695068359375,-0.4620809257030487,-9.72285270690918,-2.782062292098999
1766054139304674300,3.02767431640625,-0.5770025849342346,-9.854534149169922,-2.8826189041137695
1766054139314684200,3.03768408203125,-0.608127236366272,-9.823410034179688,-2.9975404739379883
1766054139324663300,3.047663330078125,-0.6799532771110535,-9.6989107131958,-3.0885202884674072
1766054139334673200,3.057673095703125,-0.6560112833976746,-9.593565940856934,-2.9879636764526367
1766054139344652300,3.06765234375,-0.7254431247711182,-9.50498104095459,-2.983175277709961
1766054139354631700,3.077631591796875,-0.7493851184844971,-9.47146224975586,-2.8993782997131348
1766054139384661000,3.107660888671875,-0.545877993106842,-9.239224433898926,-2.7676970958709717
1766054139394609700,3.117609619140625,-0.667982280254364,-9.349357604980469,-2.717418909072876
1766054139404619500,3.12761962890625,-0.6033388376235962,-9.509769439697266,-2.7078421115875244
1766054139414568200,3.137568115234375,-0.6033388376235962,-9.509769439697266,-2.7078421115875244
1766054139424577800,3.147577880859375,-0.5339069962501526,-9.533711433410645,-2.760514497756958
1766054139434587600,3.157587646484375,-0.47644615173339844,-9.409213066101074,-2.8203697204589844
1766054139444628000,3.1676279296875,-0.3016694188117981,-9.17936897277832,-2.9017724990844727
1766054139454576600,3.17757666015625,-0.272938996553421,-9.5624418258667,-2.8586769104003906
1766054139484606000,3.20760595703125,-0.0694318488240242,-9.339780807495117,-2.8347349166870117
1766054139494554600,3.2175546875,-0.9696516990661621,-9.864110946655273,-3.0310592651367188
1766054139504534000,3.227533935546875,-0.0933738648891449,-8.13789176940918,-2.8658595085144043
1766054139514543600,3.237543701171875,-0.11971008777618408,-8.939949035644531,-3.2393548488616943
1766054139524523000,3.24752294921875,-0.08858546614646912,-9.150638580322266,-3.1196448802948
1766054139534532900,3.257532958984375,0.19632454216480255,-8.853757858276367,-3.0358476638793945
1766054139544512000,3.267511962890625,-0.18914192914962769,-9.102754592895508,-3.00711727142334
1766054139554521900,3.27752197265625,-0.4908113479614258,-9.543288230895996,-3.002328872680664
1766054139564592600,3.287592529296875,-0.7230489253997803,-9.708487510681152,-2.918531894683838
1766054139594499800,3.317499755859375,-0.8355764150619507,-10.189722061157227,-2.875436305999756
1766054139614488800,3.33748876953125,-0.6440402865409851,-9.904812812805176,-2.873042106628418
1766054139624498700,3.347498779296875,-0.5626373887062073,-9.713275909423828,-2.8179752826690674
1766054139634477800,3.357477783203125,-0.5147533416748047,-9.68694019317627,-2.7748796939849854
1766054139644487700,3.36748779296875,-0.5339069962501526,-9.521739959716797,-2.7509377002716064
1766054139654497300,3.377497314453125,-0.4668693244457245,-9.404424667358398,-2.779668092727661
1766054139664476700,3.3874765625,-0.4692635238170624,-9.27034854888916,-2.7317841053009033
1766054139674455800,3.397455810546875,-0.545877993106842,-9.232041358947754,-2.609679937362671
1766054139684496100,3.40749609375,-0.6392518281936646,-9.425971984863281,-2.5067291259765625
1766054139714525400,3.437525390625,-0.6129156351089478,-9.583989143371582,-2.7485435009002686
1766054139724596200,3.44759619140625,-0.5889736413955688,-9.430760383605957,-2.786850690841675
1766054139734545000,3.457544921875,-0.6057330369949341,-9.557653427124023,-2.8203697204589844
1766054139744524300,3.467524169921875,-0.569819986820221,-9.655815124511719,-2.8371291160583496
1766054139754534000,3.477533935546875,-0.730231523513794,-9.6989107131958,-2.7485435009002686
1766054139764574200,3.48757421875,-0.6536170840263367,-9.53849983215332,-2.734178304672241
1766054139774553600,3.4975537109375,-0.6033388376235962,-9.387664794921875,-2.80361008644104
1766054139784532700,3.50753271484375,-0.6224924325942993,-9.375694274902344,-2.7246015071868896
1766054139794512000,3.517511962890625,-0.545877993106842,-9.370905876159668,-2.80361008644104
1766054139824510700,3.5475107421875,-0.11252748221158981,-9.344569206237793,-2.8610711097717285
1766054139834520600,3.5575205078125,-0.11252748221158981,-9.160215377807617,-2.851494312286377
1766054139844561000,3.567560791015625,-0.21308395266532898,-9.387664794921875,-2.9281086921691895
1766054139854509600,3.577509521484375,-0.33279404044151306,-9.737217903137207,-2.80361008644104
1766054139864488700,3.58748876953125,-0.40462008118629456,-9.68694019317627,-2.7772738933563232
1766054139874468000,3.597468017578125,-0.3687070608139038,-9.701305389404297,-2.8826189041137695
1766054139884477700,3.607477783203125,-0.26815059781074524,-9.464279174804688,-2.9017724990844727
1766054139894487600,3.617487548828125,-0.08858546614646912,-9.210494041442871,-2.983175277709961
1766054139934435000,3.65743505859375,-0.9744400978088379,-9.617507934570312,-2.873042106628418
1766054139944445000,3.66744482421875,-0.9911994934082031,-9.478644371032715,-2.7748796939849854
1766054139954393600,3.6773935546875,-0.912190854549408,-9.514557838439941,-2.806004285812378
1766054139964372700,3.687372802734375,-0.7829039692878723,-9.485827445983887,-2.7676970958709717
1766054139974382600,3.697382568359375,-0.5913678407669067,-9.311050415039062,-2.7940332889556885
1766054139984361700,3.70736181640625,-0.47405192255973816,-9.306262016296387,-2.782062292098999
1766054139994402000,3.717402099609375,-0.5841852426528931,-9.560047149658203,-2.801215887069702
1766054140004412000,3.727411865234375,-0.9097966551780701,-9.672574996948242,-2.8203697204589844
1766054140024401000,3.74740087890625,-1.1013327836990356,-9.519346237182617,-2.9305028915405273
1766054140034410800,3.75741064453125,-1.0965443849563599,-9.35893440246582,-2.9017724990844727
1766054140044420400,3.76742041015625,-0.912190854549408,-9.330204010009766,-2.717418909072876
1766054140054430200,3.77743017578125,-0.912190854549408,-9.330204010009766,-2.717418909072876
1766054140064409300,3.787409423828125,-0.8595184087753296,-9.346963882446289,-2.7485435009002686
1766054140074388700,3.797388671875,-0.7230489253997803,-9.495404243469238,-2.736572504043579
1766054140084398600,3.807398681640625,-0.7852981686592102,-9.579200744628906,-2.8634653091430664
1766054140094408200,3.817408203125,-0.7374141216278076,-9.402029991149902,-2.82515811920166
1766054140104387600,3.8273876953125,-0.706289529800415,-9.409213066101074,-2.9017724990844727
1766054140114366700,3.83736669921875,-0.8164227604866028,-9.2033109664917,-2.9664158821105957
1766054140144365600,3.867365478515625,-0.7805097699165344,-9.23443603515625,-2.829946517944336
1766054140154344700,3.8773447265625,-0.8331822156906128,-9.481039047241211,-2.715024709701538
1766054140164324000,3.887323974609375,-0.7733271718025208,-9.660603523254395,-2.832340717315674
1766054140174333700,3.897333740234375,-0.7661445140838623,-9.749189376831055,-2.8131868839263916
1766054140184313000,3.90731298828125,-0.6703764796257019,-9.667786598205566,-2.9017724990844727
1766054140194322700,3.91732275390625,-0.7757213711738586,-9.653421401977539,-2.832340717315674
1766054140204332500,3.92733251953125,-0.8595184087753296,-9.708487510681152,-2.896984100341797
1766054140214311700,3.937311767578125,-0.950498104095459,-9.677363395690918,-2.8155810832977295
1766054140244249600,3.96724951171875,-0.7948749661445618,-8.939949035644531,-2.31758713722229
1766054140254228700,3.977228759765625,-0.8020575642585754,-9.215282440185547,-2.782062292098999
1766054140264238600,3.987238525390625,-0.7469909191131592,-9.287108421325684,-2.806004285812378
1766054140274217700,3.9972177734375,-0.7589619159698486,-9.342175483703613,-2.832340717315674
1766054140284197000,4.007197021484375,-0.751779317855835,-9.442731857299805,-2.80361008644104
1766054140294237400,4.017237548828125,-0.828393816947937,-9.41400146484375,-2.8395233154296875
1766054140304216600,4.027216552734375,-0.7829039692878723,-9.38048267364502,-2.8658595085144043
1766054140314195700,4.03719580078125,-0.9361328482627869,-9.50737476348877,-2.80361008644104
1766054140334215400,4.05721533203125,-1.1635819673538208,-9.354146003723145,-2.896984100341797
1766054140344194600,4.067194580078125,-1.2018892765045166,-9.289502143859863,-2.875436305999756
1766054140354143200,4.077143310546875,-1.1492167711257935,-9.227252960205078,-2.892195701599121
1766054140364122600,4.08712255859375,-1.0414776802062988,-9.119514465332031,-2.8347349166870117
1766054140374132200,4.09713232421875,-0.8954314589500427,-9.14345645904541,-2.8227639198303223
1766054140384111600,4.107111572265625,-0.8164227604866028,-9.437943458557129,-2.782062292098999
1766054140394060300,4.117060302734375,-0.8954314589500427,-9.639056205749512,-2.829946517944336
1766054140404070100,4.127070068359375,-1.0295066833496094,-9.622296333312988,-2.8610711097717285
1766054140414079700,4.137079833984375,-1.2713210582733154,-9.696516990661621,-2.832340717315674
1766054140434038300,4.157038330078125,-1.3718775510787964,-9.344569206237793,-2.940079689025879
1766054140444017700,4.167017578125,-1.3287819623947144,-9.311050415039062,-2.894589900970459
1766054140453996800,4.176996826171875,-1.2258312702178955,-9.26795482635498,-2.892195701599121
1766054140464037000,4.187037109375,-1.1252747774124146,-9.272743225097656,-2.7724854946136475
1766054140473985800,4.19698583984375,-1.1085153818130493,-9.294290542602539,-2.832340717315674
1766054140483995600,4.20699560546875,-1.1061211824417114,-9.370905876159668,-2.801215887069702
1766054140493974800,4.216974853515625,-1.1851298809051514,-9.533711433410645,-2.8371291160583496
1766054140503984600,4.226984619140625,-1.2234370708465576,-9.564835548400879,-2.940079689025879
1766054140513994500,4.236994384765625,-1.3287819623947144,-9.610325813293457,-2.9448680877685547
1766054140553972500,4.276972412109375,-1.3072341680526733,-9.090784072875977,-2.9927520751953125
1766054140563951600,4.28695166015625,-1.3527239561080933,-9.114726066589355,-2.9017724990844727
1766054140573931000,4.296930908203125,-1.335964560508728,-9.263166427612305,-2.9041666984558105
1766054140583940600,4.306940673828125,-1.3215993642807007,-9.205705642700195,-2.9759926795959473
1766054140593889500,4.3168896484375,-1.2258312702178955,-9.169792175292969,-2.868253707885742
1766054140603868700,4.32686865234375,-1.237802267074585,-9.334992408752441,-2.8802247047424316
1766054140613847800,4.336847900390625,-1.357512354850769,-9.425971984863281,-2.873042106628418
1766054140623827200,4.3468271484375,-1.4748282432556152,-9.586383819580078,-2.853888511657715
1766054140673753900,4.39675390625,-1.5658079385757446,-9.222464561462402,-2.964021682739258
1766054140683763700,4.406763671875,-1.3431471586227417,-9.133879661560059,-2.894589900970459
1766054140693742800,4.416742919921875,-1.381454348564148,-9.215282440185547,-2.8562827110290527
1766054140703752700,4.426752685546875,-1.45806884765625,-9.41400146484375,-2.9089550971984863
1766054140713731800,4.43673193359375,-1.556231141090393,-9.346963882446289,-2.8562827110290527
1766054140723711200,4.446711181640625,-1.5753847360610962,-9.308655738830566,-2.7485435009002686
1766054140743669800,4.466669677734375,-1.6280571222305298,-9.481039047241211,-2.873042106628418
1766054140753618400,4.476618408203125,-1.7094600200653076,-9.641449928283691,-2.920926094055176
1766054140773638000,4.496637939453125,-1.7860745191574097,-9.442731857299805,-2.956839084625244
1766054140783647700,4.506647705078125,-1.7094600200653076,-9.44991397857666,-2.985569477081299
1766054140793657600,4.51665771484375,-1.5658079385757446,-9.2033109664917,-2.9927520751953125
1766054140803636700,4.52663671875,-1.4748282432556152,-9.20091724395752,-2.9257144927978516
1766054140813646600,4.536646484375,-1.3766659498214722,-9.188945770263672,-2.875436305999756
1766054140823625700,4.546625732421875,-1.3862427473068237,-9.466673851013184,-3.3255462646484375
1766054140833635600,4.556635498046875,-1.3455413579940796,-9.162610054016113,-2.8850131034851074
1766054140883592700,4.6065927734375,-1.6663644313812256,-9.459490776062012,-2.959233283996582
1766054140893602600,4.6166025390625,-1.623268723487854,-9.521739959716797,-3.00711727142334
1766054140903581700,4.626581787109375,-1.6424223184585571,-9.339780807495117,-3.050212860107422
1766054140913591600,4.636591552734375,-1.599326729774475,-8.992621421813965,-3.0837318897247314
1766054140923631900,4.6466318359375,-1.192312479019165,-9.062053680419922,-2.983175277709961
1766054140933611000,4.656611083984375,-1.3742717504501343,-9.208099365234375,-3.028665065765381
1766054140943620900,4.666620849609375,-1.522712230682373,-9.459490776062012,-3.1292216777801514
1766054140983598800,4.706598876953125,-1.482010841369629,-9.315838813781738,-3.1316158771514893
1766054140993578200,4.716578125,-1.1659762859344482,-9.107542991638184,-3.6176388263702393
1766054141003587800,4.726587890625,-1.3670891523361206,-9.320627212524414,-3.0334534645080566
1766054141013567200,4.736567138671875,-1.2737152576446533,-8.662221908569336,-3.3662476539611816
1766054141023546400,4.74654638671875,-1.316810965538025,-8.987833023071289,-3.3446998596191406
1766054141033495000,4.7564951171875,-1.4628572463989258,-9.069235801696777,-3.3494882583618164
1766054141043505000,4.7665048828125,-1.3479355573654175,-8.887276649475098,-3.222595453262329
1766054141063494000,4.786493896484375,-1.4317326545715332,-9.318233489990234,-3.2848446369171143
1766054141083483000,4.80648291015625,-1.2018892765045166,-9.519346237182617,-3.268085241317749
1766054141093492700,4.81649267578125,-1.6089035272598267,-10.15141487121582,-3.1866824626922607
1766054141103502600,4.826502685546875,-1.8483237028121948,-10.266336441040039,-3.1435868740081787
1766054141113481700,4.836481689453125,-1.7741034030914307,-9.653421401977539,-2.9975404739379883
1766054141123491600,4.84649169921875,-1.6903064250946045,-9.344569206237793,-3.064578056335449
1766054141133501200,4.856501220703125,-1.5969325304031372,-9.227252960205078,-3.043030261993408
1766054141143511000,4.866510986328125,-1.53707754611969,-9.165003776550293,-3.0382418632507324
1766054141153521000,4.87652099609375,-1.4676456451416016,-9.004592895507812,-3.0597896575927734
1766054141173510000,4.896510009765625,-1.359906554222107,-9.01895809173584,-3.004723072052002
1766054141193499000,4.916498779296875,-1.3263877630233765,-9.220070838928223,-3.0621838569641113
1766054141203508500,4.926508544921875,-1.3335703611373901,-9.311050415039062,-3.1483752727508545
1766054141213518300,4.936518310546875,-1.3263877630233765,-9.287108421325684,-3.141192674636841
1766054141223528200,4.946528076171875,-1.3120225667953491,-9.260771751403809,-3.1938650608062744
1766054141233507300,4.95650732421875,-1.2832920551300049,-9.255983352661133,-3.2178070545196533
1766054141243517200,4.96651708984375,-1.4173674583435059,-9.311050415039062,-3.220201253890991
1766054141253496300,4.976496337890625,-1.41257905960083,-9.294290542602539,-3.162740468978882
1766054141263536600,4.98653662109375,-1.4077905416488647,-9.318233489990234,-3.1076738834381104
1766054141273485300,4.9964853515625,-1.501164436340332,-9.3828763961792,-3.047818660736084
1766054141283495200,5.0064951171875,-1.6041151285171509,-9.440337181091309,-3.00711727142334
1766054141293474300,5.016474365234375,-1.6041151285171509,-9.440337181091309,-3.00711727142334
1766054141303514600,5.0265146484375,-1.680729627609253,-9.533711433410645,-2.9281086921691895
1766054141313494000,5.036493896484375,-1.5849615335464478,-9.445125579833984,-3.045424461364746
1766054141323473200,5.04647314453125,-1.3862427473068237,-9.306262016296387,-3.0166940689086914
1766054141333483000,5.05648291015625,-1.3670891523361206,-9.38048267364502,-3.090914487838745
1766054141343492600,5.06649267578125,-1.3838485479354858,-9.354146003723145,-3.0885202884674072
1766054141353441500,5.076441650390625,-1.3910311460494995,-9.318233489990234,-3.1076738834381104
1766054141363481600,5.086481689453125,-1.3646949529647827,-9.030928611755371,-3.069366693496704
1766054141373491500,5.096491455078125,-1.4508862495422363,-9.064447402954102,-3.0526070594787598
1766054141383501300,5.106501220703125,-1.4269442558288574,-9.136273384094238,-3.0406360626220703
1766054141393480400,5.11648046875,-1.4221558570861816,-9.409213066101074,-3.0621838569641113
1766054141403490300,5.126490234375,-1.359906554222107,-9.435548782348633,-3.0885202884674072
1766054141413469400,5.136469482421875,-1.4293384552001953,-9.334992408752441,-3.045424461364746
1766054141423448800,5.14644873046875,-1.3311761617660522,-9.41400146484375,-3.026270866394043
1766054141433428000,5.156427978515625,-1.2545616626739502,-9.229647636413574,-3.090914487838745
1766054141443437800,5.166437744140625,-1.4891934394836426,-9.30386734008789,-3.1244332790374756
1766054141453417000,5.1764169921875,-1.3192051649093628,-9.224859237670898,-2.999934673309326
1766054141463426800,5.1864267578125,-1.4939818382263184,-9.169792175292969,-3.0573954582214355
1766054141473406000,5.196406005859375,-1.4628572463989258,-9.222464561462402,-3.004723072052002
1766054141493395000,5.21639501953125,-1.4389152526855469,-9.490615844726562,-3.1004912853240967
1766054141503404800,5.22640478515625,-1.381454348564148,-9.409213066101074,-3.0765492916107178
1766054141513384000,5.236384033203125,-1.4508862495422363,-9.50737476348877,-3.004723072052002
1766054141523363300,5.24636328125,-1.4317326545715332,-9.425971984863281,-3.043030261993408
1766054141533373200,5.256373291015625,-1.290474772453308,-9.315838813781738,-2.9759926795959473
1766054141543382800,5.2663828125,-1.161187767982483,-9.174580574035645,-2.9688100814819336
1766054141553362200,5.276362060546875,-1.1180921792984009,-9.042900085449219,-3.0142998695373535
1766054141563402500,5.286402587890625,-1.1037269830703735,-9.229647636413574,-3.0166940689086914
1766054141573381600,5.296381591796875,-1.05105459690094,-9.330204010009766,-2.937685489654541
1766054141593340200,5.316340087890625,-1.158793568611145,-9.351752281188965,-2.980781078338623
1766054141603380500,5.32638037109375,-1.292868971824646,-9.299078941345215,-3.026270866394043
1766054141613390000,5.33639013671875,-1.2449848651885986,-9.354146003723145,-3.0861260890960693
1766054141623400000,5.34639990234375,-1.314416766166687,-9.370905876159668,-3.0334534645080566
1766054141633409800,5.356409912109375,-1.3503297567367554,-9.346963882446289,-3.1435868740081787
1766054141643419400,5.36641943359375,-1.2258312702178955,-9.41639518737793,-3.134010076522827
1766054141653429200,5.37642919921875,-1.256955862045288,-9.454702377319336,-3.1052796840667725
1766054141663439000,5.386439208984375,-1.1037269830703735,-9.23443603515625,-3.134010076522827
1766054141673418200,5.396418212890625,-1.1899182796478271,-9.440337181091309,-3.002328872680664
1766054141693437700,5.416437744140625,-1.1109095811843872,-9.220070838928223,-2.959233283996582
1766054141703417000,5.4264169921875,-1.0893617868423462,-9.277531623840332,-2.892195701599121
1766054141713396200,5.436396240234375,-1.0223240852355957,-9.193734169006348,-2.9233202934265137
1766054141743395000,5.46639501953125,-1.05105459690094,-9.277531623840332,-2.959233283996582
1766054141763323100,5.4863232421875,-1.0462661981582642,-9.251194953918457,-2.911349296569824
1766054141773302300,5.49630224609375,-1.1204863786697388,-9.418789863586426,-3.021482467651367
1766054141783281400,5.506281494140625,-1.113303780555725,-9.521739959716797,-2.964021682739258
1766054141813249800,5.536249755859375,-1.1180921792984009,-9.332598686218262,-3.047818660736084
1766054141823229000,5.54622900390625,-1.0462661981582642,-9.277531623840332,-3.1100680828094482
1766054141833208300,5.556208251953125,-1.0749965906143188,-9.244012832641602,-3.098097085952759
1766054141843248600,5.56624853515625,-1.2425906658172607,-9.370905876159668,-3.043030261993408
1766054141853258200,5.57625830078125,-1.070208191871643,-9.351752281188965,-2.9879636764526367
1766054141863268000,5.58626806640625,-1.1061211824417114,-9.289502143859863,-2.96162748336792
1766054141873247200,5.596247314453125,-1.1420341730117798,-9.277531623840332,-2.9903578758239746
1766054141883257000,5.606257080078125,-1.139639973640442,-9.375694274902344,-3.0119056701660156
1766054141893267000,5.616266845703125,-1.1827356815338135,-9.366117477416992,-3.026270866394043
1766054141903246000,5.62624609375,-1.1803414821624756,-9.27034854888916,-2.9161376953125
1766054141913225500,5.6362255859375,-1.1324573755264282,-9.339780807495117,-2.9879636764526367
1766054141923265500,5.646265625,-1.1324573755264282,-9.339780807495117,-2.9879636764526367
1766054141933275400,5.656275390625,-1.0654197931289673,-9.32302188873291,-3.004723072052002
1766054141943285200,5.66628515625,-1.0342950820922852,-9.425971984863281,-2.9712042808532715
1766054141953264400,5.676264404296875,-1.01753568649292,-9.349357604980469,-3.00711727142334
1766054141963274200,5.686274169921875,-1.1516109704971313,-9.41400146484375,-2.9759926795959473
1766054141973253400,5.69625341796875,-1.1085153818130493,-9.246406555175781,-2.9927520751953125
1766054141983263200,5.70626318359375,-1.1755530834197998,-9.349357604980469,-2.983175277709961
1766054141993242400,5.716242431640625,-1.161187767982483,-9.373299598693848,-2.9664158821105957
1766054142033190000,5.75618994140625,-1.2018892765045166,-9.406818389892578,-3.002328872680664
1766054142043230200,5.766230224609375,-1.1037269830703735,-9.342175483703613,-3.0190882682800293
1766054142053240000,5.776239990234375,-1.0893617868423462,-9.375694274902344,-3.0765492916107178
1766054142063249700,5.786249755859375,-1.0462661981582642,-9.258378028869629,-3.141192674636841
1766054142073198600,5.796198486328125,-0.9959878921508789,-9.23443603515625,-3.0861260890960693
1766054142083239000,5.806239013671875,-1.0654197931289673,-9.255983352661133,-2.9903578758239746
1766054142093218000,5.816218017578125,-1.2545616626739502,-9.35654067993164,-3.0573954582214355
1766054142113237500,5.836237548828125,-1.094150185585022,-9.390059471130371,-3.0358476638793945
1766054142123217000,5.846216796875,-1.036689281463623,-9.306262016296387,-2.9759926795959473
1766054142133196000,5.856196044921875,-0.9816226959228516,-9.27034854888916,-3.023876667022705
1766054142143206000,5.866205810546875,-0.9840168952941895,-9.342175483703613,-2.935291290283203
1766054142153215500,5.876215576171875,-1.0534487962722778,-9.409213066101074,-2.9879636764526367
1766054142163195000,5.88619482421875,-1.0749965906143188,-9.425971984863281,-2.942473888397217
1766054142173235200,5.896235107421875,-1.01753568649292,-9.366117477416992,-3.090914487838745
1766054142183244800,5.906244873046875,-1.0749965906143188,-9.430760383605957,-3.0358476638793945
1766054142193224200,5.91622412109375,-1.0869675874710083,-9.41400146484375,-3.0406360626220703
1766054142203203300,5.926203369140625,-1.094150185585022,-9.301473617553711,-3.0406360626220703
1766054142243150800,5.96615087890625,-1.0271124839782715,-9.387664794921875,-3.028665065765381
1766054142253099500,5.976099609375,-1.0414776802062988,-9.421183586120605,-2.96162748336792
1766054142263079000,5.986078857421875,-1.0630255937576294,-9.344569206237793,-2.9735984802246094
1766054142273027600,5.996027587890625,-1.0438719987869263,-9.167398452758789,-2.980781078338623
1766054142283037400,6.006037353515625,-1.0606313943862915,-9.301473617553711,-3.095702886581421
1766054142293047000,6.016047119140625,-1.0845733880996704,-9.583989143371582,-3.177105665206909
1766054142303026400,6.0260263671875,-1.1779472827911377,-9.337387084960938,-2.9161376953125
1766054142323015400,6.046015380859375,-1.0031704902648926,-9.373299598693848,-2.9305028915405273
1766054142332964000,6.055964111328125,-1.0869675874710083,-9.57441234588623,-2.911349296569824
1766054142342943500,6.065943603515625,-1.1276689767837524,-9.509769439697266,-2.956839084625244
1766054142352953000,6.075953125,-1.1420341730117798,-9.47146224975586,-3.0526070594787598
1766054142362963000,6.085962890625,-1.091755986213684,-9.378087997436523,-3.021482467651367
1766054142382952000,6.105951904296875,-1.1444283723831177,-9.351752281188965,-3.0095114707946777
1766054142392961800,6.1159619140625,-1.0821791887283325,-9.38048267364502,-2.964021682739258
1766054142402971400,6.125971435546875,-1.0749965906143188,-9.339780807495117,-2.9879636764526367
1766054142412920300,6.13592041015625,-1.0989385843276978,-9.35654067993164,-2.9759926795959473
1766054142422899500,6.1458994140625,-1.072602391242981,-9.452308654785156,-2.8874073028564453
1766054142432848100,6.15584814453125,-1.0630255937576294,-9.457097053527832,-2.956839084625244
1766054142442827500,6.16582763671875,-1.0749965906143188,-9.332598686218262,-2.985569477081299
1766054142452806700,6.175806640625,-1.072602391242981,-9.38048267364502,-2.9903578758239746
1766054142462785800,6.185785888671875,-1.1276689767837524,-9.430760383605957,-3.0621838569641113
1766054142472765200,6.19576513671875,-1.161187767982483,-9.466673851013184,-3.0406360626220703
1766054142482775000,6.205775146484375,-1.1324573755264282,-9.29189682006836,-3.043030261993408
1766054142492723700,6.2157236328125,-1.0271124839782715,-9.241618156433105,-3.026270866394043
1766054142502764000,6.225763916015625,-1.05105459690094,-9.402029991149902,-2.9328970909118652
1766054142512743200,6.2357431640625,-1.0438719987869263,-9.428366661071777,-2.913743495941162
1766054142522753000,6.2457529296875,-1.1300631761550903,-9.440337181091309,-2.985569477081299
1766054142542772500,6.2657724609375,-1.173158884048462,-9.411606788635254,-2.9712042808532715
1766054142552721200,6.27572119140625,-1.139639973640442,-9.272743225097656,-2.9496564865112305
1766054142562731000,6.28573095703125,-1.072602391242981,-9.244012832641602,-2.983175277709961
1766054142572679700,6.2956796875,-1.0797849893569946,-9.265560150146484,-3.004723072052002
1766054142582720000,6.305719970703125,-1.0678139925003052,-9.349357604980469,-2.9735984802246094
1766054142592668700,6.315668701171875,-0.9816226959228516,-9.366117477416992,-2.9544448852539062
1766054142602678500,6.325678466796875,-0.9720458984375,-9.457097053527832,-2.894589900970459
1766054142612688400,6.3356884765625,-0.9888052940368652,-9.385271072387695,-2.937685489654541
1766054142622698000,6.345697998046875,-1.0989385843276978,-9.39245319366455,-3.0166940689086914
1766054142642687000,6.36568701171875,-1.0965443849563599,-9.418789863586426,-2.9520506858825684
1766054142652666400,6.375666259765625,-0.9959878921508789,-9.330204010009766,-3.0119056701660156
1766054142662676000,6.385676025390625,-1.139639973640442,-9.3828763961792,-2.980781078338623
1766054142672655400,6.3956552734375,-1.0271124839782715,-9.32541561126709,-3.0190882682800293
1766054142682695700,6.40569580078125,-1.0678139925003052,-9.332598686218262,-2.935291290283203
1766054142692644400,6.415644287109375,-1.139639973640442,-9.282320022583008,-2.9233202934265137
1766054142702654000,6.425654052734375,-1.1252747774124146,-9.361329078674316,-2.8874073028564453
1766054142712633300,6.43563330078125,-1.0845733880996704,-9.397241592407227,-2.8634653091430664
1766054142722643200,6.445643310546875,-1.1252747774124146,-9.332598686218262,-2.9448680877685547
1766054142742632200,6.465632080078125,-1.0797849893569946,-9.39245319366455,-2.9496564865112305
1766054142752611300,6.475611328125,-1.0342950820922852,-9.409213066101074,-2.9281086921691895
1766054142762590700,6.4855908203125,-1.0893617868423462,-9.433155059814453,-2.9161376953125
1766054142772600300,6.495600341796875,-1.0582371950149536,-9.435548782348633,-2.913743495941162
1766054142782579700,6.505579833984375,-1.1252747774124146,-9.457097053527832,-2.937685489654541
1766054142792589300,6.51558935546875,-1.1109095811843872,-9.411606788635254,-2.9975404739379883
1766054142802599200,6.52559912109375,-1.072602391242981,-9.368511199951172,-3.004723072052002
1766054142812609000,6.535609130859375,-1.0654197931289673,-9.299078941345215,-2.9664158821105957
1766054142822588200,6.545588134765625,-1.1037269830703735,-9.272743225097656,-3.0119056701660156
1766054142832598000,6.555597900390625,-1.0271124839782715,-9.454702377319336,-2.9233202934265137
1766054142852556500,6.575556640625,-1.036689281463623,-9.433155059814453,-2.9664158821105957
1766054142862566100,6.585566162109375,-1.0869675874710083,-9.457097053527832,-2.8826189041137695
1766054142872545500,6.595545654296875,-1.1276689767837524,-9.430760383605957,-2.894589900970459
1766054142882555100,6.60555517578125,-1.0845733880996704,-9.370905876159668,-2.980781078338623
1766054142892565000,6.61556494140625,-1.0342950820922852,-9.366117477416992,-2.999934673309326
1766054142902574800,6.625574951171875,-1.0773907899856567,-9.306262016296387,-2.985569477081299
1766054142912554000,6.635553955078125,-1.0678139925003052,-9.289502143859863,-2.8993782997131348
1766054142922563800,6.645563720703125,-1.1228805780410767,-9.421183586120605,-2.9328970909118652
1766054142932573400,6.655573486328125,-1.1228805780410767,-9.318233489990234,-2.9041666984558105
1766054142952562400,6.6755625,-1.0821791887283325,-9.366117477416992,-2.920926094055176
1766054142962572300,6.685572265625,-1.137245774269104,-9.569623947143555,-3.002328872680664
1766054142972582100,6.69558203125,-1.1659762859344482,-9.516951560974121,-3.0095114707946777
1766054142982561300,6.705561279296875,-1.1061211824417114,-9.423578262329102,-2.913743495941162
1766054142992571100,6.715571044921875,-1.0103530883789062,-9.306262016296387,-2.918531894683838
1766054143002580700,6.725580810546875,-1.1276689767837524,-9.5408935546875,-3.0382418632507324
1766054143012590600,6.735590576171875,-1.1252747774124146,-9.251194953918457,-2.894589900970459
1766054143022600400,6.745600341796875,-1.1276689767837524,-9.32302188873291,-2.9041666984558105
1766054143032579600,6.75557958984375,-1.1324573755264282,-9.404424667358398,-2.894589900970459
1766054143042559000,6.76555908203125,-1.1228805780410767,-9.260771751403809,-2.8850131034851074
1766054143062548000,6.7855478515625,-1.1540051698684692,-9.425971984863281,-2.9328970909118652
1766054143072527000,6.795527099609375,-1.1276689767837524,-9.473855972290039,-2.9161376953125
1766054143082537000,6.805536865234375,-1.0199298858642578,-9.406818389892578,-2.9664158821105957
1766054143092546600,6.815546630859375,-1.0558429956436157,-9.409213066101074,-3.0095114707946777
1766054143102556400,6.825556396484375,-1.1348515748977661,-9.481039047241211,-2.980781078338623
1766054143112535600,6.83553564453125,-1.1013327836990356,-9.516951560974121,-2.980781078338623
1766054143122515000,6.845514892578125,-1.137245774269104,-9.272743225097656,-2.959233283996582
1766054143132494000,6.855494140625,-1.094150185585022,-9.205705642700195,-2.9688100814819336
1766054143142473500,6.865473388671875,-1.0893617868423462,-9.258378028869629,-2.985569477081299
1766054143152483000,6.875483154296875,-1.0797849893569946,-9.406818389892578,-3.004723072052002
1766054143172502800,6.895502685546875,-1.0749965906143188,-9.485827445983887,-2.999934673309326
1766054143182482000,6.90548193359375,-1.0606313943862915,-9.533711433410645,-2.9328970909118652
1766054143192461300,6.91546142578125,-1.0319008827209473,-9.50737476348877,-2.9328970909118652
1766054143202471000,6.925470947265625,-1.0319008827209473,-9.440337181091309,-2.9712042808532715
1766054143212450300,6.9354501953125,-1.0007762908935547,-9.32541561126709,-2.9544448852539062
1766054143222429400,6.945429443359375,-0.9959878921508789,-9.44991397857666,-3.0358476638793945
1766054143232439300,6.955439208984375,-1.0247182846069336,-9.337387084960938,-2.9328970909118652
1766054143242449000,6.965448974609375,-1.1516109704971313,-9.366117477416992,-2.8826189041137695
1766054143252397800,6.975397705078125,-1.213860273361206,-9.193734169006348,-2.9328970909118652
1766054143262407400,6.985407470703125,-1.2090718746185303,-9.32302188873291,-2.9496564865112305
1766054143272386800,6.99538671875,-1.1468225717544556,-9.188945770263672,-2.9065608978271484
1766054143282396400,7.005396484375,-1.0462661981582642,-9.342175483703613,-2.8826189041137695
1766054143292375800,7.015375732421875,-1.070208191871643,-9.564835548400879,-2.9257144927978516
1766054143302355000,7.02535498046875,-1.1204863786697388,-9.607931137084961,-2.9448680877685547
1766054143312334300,7.035334228515625,-1.1085153818130493,-9.428366661071777,-2.8658595085144043
1766054143322313500,7.0453134765625,-1.2018892765045166,-9.337387084960938,-2.9688100814819336
1766054143332292900,7.05529296875,-1.1061211824417114,-9.334992408752441,-2.9975404739379883
1766054143342272000,7.06527197265625,-1.0678139925003052,-9.361329078674316,-2.9305028915405273
1766054143352220700,7.075220703125,-1.1492167711257935,-9.423578262329102,-2.9951462745666504
1766054143372209700,7.095209716796875,-1.094150185585022,-9.311050415039062,-2.918531894683838
1766054143382189000,7.10518896484375,-1.139639973640442,-9.265560150146484,-2.9951462745666504
1766054143392198700,7.11519873046875,-1.1563993692398071,-9.351752281188965,-2.9233202934265137
1766054143402208500,7.12520849609375,-1.170764684677124,-9.423578262329102,-2.8850131034851074
1766054143412157200,7.1351572265625,-1.05105459690094,-9.452308654785156,-2.9472622871398926
1766054143422167000,7.1451669921875,-1.0534487962722778,-9.516951560974121,-2.9951462745666504
1766054143432177000,7.155177001953125,-1.1085153818130493,-9.490615844726562,-2.964021682739258
1766054143442186500,7.1651865234375,-1.1300631761550903,-9.351752281188965,-3.0190882682800293
1766054143452196400,7.1751962890625,-1.1252747774124146,-9.366117477416992,-2.999934673309326
1766054143462206200,7.185206298828125,-1.0869675874710083,-9.35893440246582,-2.9161376953125
1766054143472185300,7.195185302734375,-1.072602391242981,-9.227252960205078,-2.9257144927978516
1766054143482164500,7.20516455078125,-1.1971008777618408,-9.32302188873291,-2.9328970909118652
1766054143492143900,7.215143798828125,-1.3934253454208374,-9.428366661071777,-2.8802247047424316
1766054143502123000,7.225123046875,-1.3718775510787964,-9.375694274902344,-2.959233283996582
1766054143512132900,7.2351328125,-1.4460978507995605,-9.289502143859863,-2.9712042808532715
1766054143522142700,7.245142822265625,-1.4700398445129395,-9.01895809173584,-2.626439332962036
1766054143532182800,7.255182861328125,-1.1755530834197998,-9.440337181091309,-2.9664158821105957
1766054143542192600,7.265192626953125,-0.993593692779541,-9.361329078674316,-2.956839084625244
1766054143552141300,7.275141357421875,-0.8954314589500427,-9.375694274902344,-2.911349296569824
1766054143562120700,7.28512060546875,-0.8020575642585754,-9.248801231384277,-3.002328872680664
1766054143572099800,7.295099853515625,-0.7565677165985107,-9.265560150146484,-3.004723072052002
1766054143592028000,7.31502783203125,-1.048660397529602,-9.346963882446289,-2.9975404739379883
1766054143602007000,7.325007080078125,-0.933738648891449,-9.334992408752441,-2.9688100814819336
1766054143612017000,7.335016845703125,-0.9600749015808105,-9.399636268615723,-2.978386878967285
1766054143622026800,7.34502685546875,-1.0007762908935547,-9.490615844726562,-3.1100680828094482
1766054143632036400,7.355036376953125,-1.0127472877502441,-9.50498104095459,-2.983175277709961
1766054143642046200,7.365046142578125,-1.2306196689605713,-9.57441234588623,-2.9328970909118652
1766054143652025300,7.375025390625,-1.216254472732544,-9.35893440246582,-2.983175277709961
1766054143662035200,7.38503515625,-1.2258312702178955,-9.339780807495117,-2.9328970909118652
1766054143671953400,7.394953369140625,-1.3263877630233765,-9.32302188873291,-2.9017724990844727
1766054143681963300,7.40496337890625,-1.3335703611373901,-9.332598686218262,-2.918531894683838
1766054143711961900,7.4349619140625,-1.1300631761550903,-9.375694274902344,-2.9041666984558105
1766054143721971700,7.4449716796875,-1.070208191871643,-9.294290542602539,-2.9759926795959473
1766054143731981600,7.454981689453125,-1.05105459690094,-9.3828763961792,-2.9544448852539062
1766054143741991200,7.4649912109375,-1.1276689767837524,-9.387664794921875,-2.9903578758239746
1766054143752001000,7.4750009765625,-1.036689281463623,-9.315838813781738,-3.0597896575927734
1766054143762011000,7.485010986328125,-1.0654197931289673,-9.260771751403809,-3.0119056701660156
1766054143771959600,7.49495947265625,-1.0893617868423462,-9.41639518737793,-2.9759926795959473
1766054143781938700,7.504938720703125,-1.1085153818130493,-9.461885452270508,-3.066972494125366
1766054143791918000,7.51491796875,-1.1085153818130493,-9.461885452270508,-3.066972494125366
1766054143821855700,7.544855712890625,-1.161187767982483,-9.349357604980469,-3.0334534645080566
1766054143831865600,7.554865478515625,-1.1468225717544556,-9.344569206237793,-3.00711727142334
1766054143841844700,7.5648447265625,-1.1659762859344482,-9.406818389892578,-2.9472622871398926
1766054143851824000,7.57482421875,-1.1803414821624756,-9.411606788635254,-2.985569477081299
1766054143861803300,7.58480322265625,-1.0749965906143188,-9.404424667358398,-3.0358476638793945
1766054143871782400,7.594782470703125,-1.091755986213684,-9.394847869873047,-2.964021682739258
1766054143881761800,7.60476171875,-1.0223240852355957,-9.430760383605957,-2.9735984802246094
1766054143891771400,7.614771484375,-0.9864110946655273,-9.32541561126709,-2.9496564865112305
1766054143911699500,7.634699462890625,-1.1204863786697388,-9.320627212524414,-2.999934673309326
1766054143921709300,7.644709228515625,-0.9002198576927185,-9.172186851501465,-2.9544448852539062
1766054143931688400,7.6546884765625,-1.039083480834961,-9.339780807495117,-2.918531894683838
1766054143941667800,7.664667724609375,-1.0845733880996704,-9.461885452270508,-2.983175277709961
1766054143951647000,7.67464697265625,-1.1228805780410767,-9.500192642211914,-2.978386878967285
1766054143961687300,7.684687255859375,-1.1444283723831177,-9.485827445983887,-3.050212860107422
1766054143971666400,7.69466650390625,-1.0654197931289673,-9.344569206237793,-3.066972494125366
1766054143981706800,7.704706787109375,-1.036689281463623,-9.375694274902344,-3.093308687210083
1766054143991686100,7.71468603515625,-1.173158884048462,-9.366117477416992,-3.0573954582214355
1766054144001665300,7.724665283203125,-1.2210428714752197,-9.500192642211914,-2.964021682739258
1766054144041582300,7.764582275390625,-1.2114660739898682,-9.26795482635498,-2.9664158821105957
1766054144051531000,7.774531005859375,-1.0989385843276978,-9.373299598693848,-2.851494312286377
1766054144061571300,7.7845712890625,-1.1061211824417114,-9.258378028869629,-2.9520506858825684
1766054144071520000,7.79452001953125,-1.0462661981582642,-9.368511199951172,-2.942473888397217
1766054144081529900,7.80452978515625,-1.115697979927063,-9.361329078674316,-2.8347349166870117
1766054144091509000,7.814509033203125,-1.0678139925003052,-9.373299598693848,-2.8778305053710938
1766054144101488400,7.82448828125,-1.1540051698684692,-9.433155059814453,-2.8562827110290527
1766054144121477400,7.844477294921875,-1.1348515748977661,-9.44752025604248,-2.8610711097717285
1766054144131487000,7.854487060546875,-1.158793568611145,-9.351752281188965,-2.9089550971984863
1766054144141466400,7.86446630859375,-1.0893617868423462,-9.32302188873291,-2.873042106628418
1766054144151415000,7.8744150390625,-1.0654197931289673,-9.279925346374512,-2.8778305053710938
1766054144161425000,7.8844248046875,-1.1563993692398071,-9.265560150146484,-2.942473888397217
1766054144171404000,7.894404052734375,-1.216254472732544,-9.313444137573242,-2.956839084625244
1766054144181383400,7.904383544921875,-1.1683704853057861,-9.35893440246582,-2.9520506858825684
1766054144191362600,7.914362548828125,-1.1013327836990356,-9.27034854888916,-2.8562827110290527
1766054144201372400,7.924372314453125,-1.113303780555725,-9.363722801208496,-2.980781078338623
1766054144211382000,7.934382080078125,-1.216254472732544,-9.287108421325684,-3.004723072052002
1766054144241380900,7.964380859375,-1.2713210582733154,-9.502586364746094,-3.023876667022705
1766054144251360300,7.9743603515625,-1.2306196689605713,-9.50498104095459,-2.9664158821105957
1766054144261369900,7.984369873046875,-1.2952631711959839,-9.557653427124023,-2.9879636764526367
1766054144271318500,7.994318603515625,-1.1994950771331787,-9.588777542114258,-3.0095114707946777
1766054144281358800,8.00435888671875,-1.278503656387329,-9.457097053527832,-2.9305028915405273
1766054144291338200,8.014338134765625,-1.3263877630233765,-9.435548782348633,-2.7940332889556885
1766054144301317400,8.0243173828125,-1.2497732639312744,-9.126696586608887,-2.8610711097717285
1766054144311296800,8.034296875,-1.0558429956436157,-8.89445972442627,-2.8443117141723633
1766054144321276000,8.04427587890625,-0.9792284965515137,-9.188945770263672,-2.8802247047424316
1766054144341204000,8.064203857421875,-1.1803414821624756,-9.433155059814453,-2.9281086921691895
1766054144351213600,8.074213623046875,-1.2737152576446533,-9.521739959716797,-2.913743495941162
1766054144361193000,8.08419287109375,-1.2425906658172607,-9.548076629638672,-3.026270866394043
1766054144371202600,8.09420263671875,-1.2306196689605713,-9.607931137084961,-3.0550012588500977
1766054144381151500,8.1041513671875,-1.2210428714752197,-9.53849983215332,-3.1316158771514893
1766054144391161000,8.1141611328125,-1.2210428714752197,-9.53849983215332,-3.1316158771514893
1766054144401140500,8.124140380859375,-1.3000515699386597,-9.433155059814453,-3.1651346683502197
1766054144411150000,8.134150146484375,-1.1252747774124146,-9.265560150146484,-3.1268274784088135
1766054144421129500,8.14412939453125,-0.9911994934082031,-9.186552047729492,-3.0550012588500977
1766054144441118500,8.164118408203125,-0.9457096457481384,-9.466673851013184,-3.00711727142334
1766054144461138000,8.184137939453125,-0.8954314589500427,-9.299078941345215,-2.9544448852539062
1766054144471117300,8.194117431640626,-0.8379706144332886,-9.279925346374512,-2.9520506858825684
1766054144481127000,8.204126953125,-0.8164227604866028,-9.272743225097656,-2.8802247047424316
1766054144491136800,8.21413671875,-0.8355764150619507,-9.493009567260742,-3.0550012588500977
1766054144501116000,8.224115966796875,-0.6224924325942993,-9.265560150146484,-3.1699230670928955
1766054144511095300,8.23409521484375,-0.7637503147125244,-9.818621635437012,-3.315969467163086
1766054144521074400,8.244074462890625,-0.4596867263317108,-9.3828763961792,-3.2297780513763428
1766054144531053800,8.2540537109375,-0.5554547905921936,-9.378087997436523,-3.2393548488616943
1766054144541033000,8.264032958984375,-0.7398083209991455,-9.502586364746094,-3.1914708614349365
1766054144550981600,8.273981689453125,-1.1061211824417114,-9.813833236694336,-3.203441858291626
1766054144561022000,8.28402197265625,-1.1803414821624756,-9.600749015808105,-3.0621838569641113
1766054144571001300,8.29400146484375,-1.2018892765045166,-9.607931137084961,-2.9735984802246094
1766054144581041400,8.30404150390625,-1.139639973640442,-9.641449928283691,-2.8826189041137695
1766054144590990300,8.313990234375,-1.137245774269104,-9.457097053527832,-3.0621838569641113
1766054144600969500,8.323969482421875,-1.194706678390503,-9.564835548400879,-2.9089550971984863
1766054144610979300,8.333979248046875,-1.072602391242981,-9.368511199951172,-2.868253707885742
1766054144620958500,8.34395849609375,-1.2066776752471924,-9.897629737854004,-2.784456491470337
1766054144630937900,8.353937744140625,-1.1324573755264282,-9.41639518737793,-2.846705913543701
1766054144640917000,8.3639169921875,-0.7972691655158997,-9.011775016784668,-2.6886885166168213
1766054144650926800,8.3739267578125,-0.5195417404174805,-8.920795440673828,-2.868253707885742
1766054144660936400,8.3839365234375,-0.35673606395721436,-8.78432559967041,-2.9448680877685547
1766054144670915800,8.393915771484375,-0.40940847992897034,-9.074024200439453,-2.9257144927978516
1766054144680925400,8.403925537109375,-0.5339069962501526,-9.406818389892578,-2.985569477081299
1766054144690935300,8.413935302734375,-0.3232172429561615,-9.232041358947754,-2.9664158821105957
1766054144710893800,8.433893798828125,0.07422025501728058,-9.339780807495117,-3.098097085952759
1766054144720903700,8.443903564453125,0.45250412821769714,-9.0859956741333,-3.2154128551483154
1766054144730913300,8.453913330078125,0.6919242739677429,-9.0859956741333,-3.3518824577331543
1766054144740923100,8.463923095703125,1.0127472877502441,-8.980650901794434,-3.35667085647583
1766054144760881700,8.483881591796875,1.1276689767837524,-9.318233489990234,-3.44765043258667
1766054144790911000,8.513910888671875,1.1755530834197998,-9.548076629638672,-3.6511576175689697
1766054144800920600,8.523920654296875,1.3527239561080933,-9.509769439697266,-3.7684733867645264
1766054144810930400,8.533930419921875,1.338358759880066,-9.490615844726562,-3.7708675861358643
1766054144830919400,8.55391943359375,1.5514427423477173,-8.635885238647461,-3.6343982219696045
1766054144840929300,8.56392919921875,1.5466543436050415,-8.652645111083984,-3.529053211212158
1766054144850908400,8.573908447265625,1.9345149993896484,-8.588001251220703,-3.514688014984131
1766054144870897400,8.5938974609375,1.8124107122421265,-9.425971984863281,-3.550601005554199
1766054144880907300,8.6039072265625,1.7381904125213623,-9.050082206726074,-3.6104562282562256
1766054144890917000,8.613917236328126,1.5514427423477173,-8.705317497253418,-3.552995204925537
1766054144900896300,8.623896240234375,1.036689281463623,-9.157821655273438,-3.550601005554199
1766054144910875400,8.63387548828125,0.5961562395095825,-9.354146003723145,-3.1747114658355713
1766054144920885200,8.64388525390625,0.14604631066322327,-9.63187313079834,-3.224989652633667
1766054144930864600,8.65386474609375,-0.043095629662275314,-9.68694019317627,-3.1028854846954346
1766054144940874200,8.663874267578125,-0.4118026793003082,-10.192116737365723,-3.098097085952759
1766054144950853600,8.673853515625,-0.49799394607543945,-10.259154319763184,-3.0119056701660156
1766054144960832800,8.683832763671875,-0.6272808313369751,-9.914389610290527,-3.0166940689086914
1766054144970842600,8.693842529296875,-0.4141969084739685,-9.536105155944824,-3.0526070594787598
1766054144980852200,8.703852294921875,-0.3208230137825012,-9.528923034667969,-3.0119056701660156
1766054144990831600,8.71383154296875,-0.1628057211637497,-9.047688484191895,-2.87064790725708
1766054145000810800,8.723810791015625,0.05267243832349777,-8.951920509338379,-2.8443117141723633
1766054145010790100,8.7337900390625,0.05267243832349777,-8.951920509338379,-2.8443117141723633
1766054145020769300,8.743769287109375,-0.040701430290937424,-8.973467826843262,-2.7988216876983643
1766054145030718000,8.753718017578125,-0.09816227108240128,-9.251194953918457,-2.9017724990844727
1766054145040697300,8.763697265625,-0.11013327538967133,-8.983044624328613,-2.8203697204589844
1766054145050707000,8.77370703125,-0.4118026793003082,-9.263166427612305,-2.894589900970459
1766054145090685200,8.813685302734376,-0.5793967843055725,-9.715670585632324,-3.069366693496704
1766054145110613000,8.833613037109375,-0.6967126727104187,-9.68933391571045,-3.0573954582214355
1766054145120622800,8.843622802734375,-0.4429273009300232,-9.485827445983887,-3.071760892868042
1766054145130632700,8.8536328125,-0.4118026793003082,-9.528923034667969,-3.1004912853240967
1766054145140611800,8.86361181640625,-0.4118026793003082,-9.63187313079834,-3.023876667022705
1766054145150591000,8.873591064453125,-0.47884035110473633,-9.792284965515137,-3.0789434909820557
1766054145170580200,8.893580322265626,-0.6607996821403503,-10.031704902648926,-2.9712042808532715
1766054145180559400,8.903559326171875,-0.7733271718025208,-9.947908401489258,-2.8850131034851074
1766054145190569200,8.9135693359375,-0.849941611289978,-9.93593692779541,-2.7748796939849854
1766054145200548400,8.92354833984375,-0.8068459630012512,-9.548076629638672,-2.676717519760132
1766054145210588700,8.933588623046875,-0.8882488012313843,-9.600749015808105,-2.631227731704712
1766054145220598500,8.9435986328125,-0.730231523513794,-8.803479194641113,-2.7222073078155518
1766054145230577700,8.95357763671875,0.40462008118629456,-7.857769966125488,-3.265691041946411
1766054145240587500,8.96358740234375,-0.6248866319656372,-10.620678901672363,-2.853888511657715
1766054145280535000,9.00353515625,0.26336219906806946,-8.987833023071289,-3.1268274784088135
1766054145290575000,9.0135751953125,0.5793967843055725,-8.99740982055664,-3.1483752727508545
1766054145300554500,9.023554443359375,0.8978256583213806,-8.614337921142578,-3.2752678394317627
1766054145310533600,9.03353369140625,1.4221558570861816,-8.343792915344238,-3.3686418533325195
1766054145320513000,9.043512939453125,1.678335428237915,-8.497021675109863,-3.507505416870117
1766054145330492200,9.0534921875,1.9967641830444336,-8.760383605957031,-3.581725835800171
1766054145340502000,9.063501953125,2.0590133666992188,-9.368511199951172,-3.6128504276275635
1766054145350511900,9.073511962890626,1.9823989868164062,-9.44752025604248,-3.627215623855591
1766054145360491000,9.083490966796875,1.98958158493042,-9.150638580322266,-3.866635799407959
1766054145390489900,9.11348974609375,1.599326729774475,-9.787496566772461,-3.864241600036621
1766054145400499500,9.12349951171875,1.2952631711959839,-9.818621635437012,-3.907337188720703
1766054145410478800,9.133478759765625,1.1899182796478271,-9.521739959716797,-3.8546648025512695
1766054145420458000,9.1434580078125,1.01753568649292,-9.097966194152832,-3.8977603912353516
1766054145430406700,9.15340673828125,1.216254472732544,-9.040505409240723,-3.8498764038085938
1766054145440386000,9.163385986328125,1.2401964664459229,-9.390059471130371,-3.7612907886505127
1766054145450365200,9.173365234375,1.290474772453308,-8.949525833129883,-3.6391866207122803
1766054145460344600,9.183344482421875,1.5825673341751099,-8.427590370178223,-3.627215623855591
1766054145490374000,9.213373779296875,1.946485996246338,-8.42040729522705,-3.354276657104492
1766054145510363000,9.23336279296875,1.4077905416488647,-9.548076629638672,-3.514688014984131
1766054145520342000,9.243342041015625,0.9409212470054626,-9.801861763000488,-3.466804027557373
1766054145530321400,9.2533212890625,0.7613561153411865,-9.512163162231445,-3.3877954483032227
1766054145540331000,9.2633310546875,0.26815059781074524,-9.780313491821289,-3.5194764137268066
1766054145550280000,9.273280029296876,0.30885201692581177,-9.813833236694336,-3.404554843902588
1766054145560259000,9.283259033203125,0.4118026793003082,-9.555258750915527,-3.6152446269989014
1766054145570269000,9.29326904296875,0.6320692300796509,-9.153033256530762,-3.5697548389434814
1766054145620195600,9.343195556640625,0.2298433631658554,-10.462661743164062,-3.464409828186035
1766054145630205400,9.353205322265625,0.2298433631658554,-10.462661743164062,-3.464409828186035
1766054145640184600,9.3631845703125,0.24420857429504395,-9.607931137084961,-3.4572272300720215
1766054145650194400,9.3731943359375,0.07182604819536209,-9.301473617553711,-3.1723172664642334
1766054145660173600,9.383173583984375,0,-9.373299598693848,-3.227383852005005
1766054145670153000,9.393153076171876,-0.2082955539226532,-9.452308654785156,-3.294421434402466
1766054145680162600,9.40316259765625,-0.36152446269989014,-9.50498104095459,-3.1028854846954346
1766054145700121000,9.42312109375,-1.2473790645599365,-9.883264541625977,-3.117250680923462
1766054145710100500,9.4331005859375,-1.4053963422775269,-9.253589630126953,-2.8610711097717285
1766054145720110000,9.443110107421875,-1.4963760375976562,-8.880094528198242,-2.7437551021575928
1766054145730120000,9.453119873046875,-2.054224967956543,-9.150638580322266,-2.6862943172454834
1766054145740129800,9.4631298828125,-2.0829553604125977,-9.327810287475586,-2.564189910888672
1766054145750109000,9.47310888671875,-2.1571757793426514,-9.378087997436523,-2.5258827209472656
1766054145760088000,9.483088134765625,-2.142810583114624,-9.610325813293457,-2.3487119674682617
1766054145770067500,9.4930673828125,-2.207453966140747,-9.763554573059082,-2.315192937850952
1766054145780107800,9.503107666015625,-2.169146776199341,-9.346963882446289,-2.2697031497955322
1766054145810137000,9.53313720703125,-1.479616641998291,-8.487444877624512,-2.3104045391082764
1766054145820146700,9.543146728515625,-1.3742717504501343,-8.315062522888184,-2.628833532333374
1766054145830126000,9.5531259765625,-0.8475474119186401,-8.372523307800293,-2.38462495803833
1766054145840135700,9.5631357421875,-1.1420341730117798,-9.959878921508789,-2.896984100341797
1766054145860124700,9.583124755859375,-0.8044517636299133,-9.696516990661621,-2.801215887069702
1766054145870104000,9.59310400390625,-0.8188169598579407,-9.773131370544434,-2.999934673309326
1766054145880083200,9.603083251953125,-0.7924807667732239,-9.801861763000488,-3.1028854846954346
1766054145900072200,9.623072265625,-1.0749965906143188,-9.96945571899414,-3.2609026432037354
1766054145910051600,9.633051513671875,-0.9433154463768005,-9.832986831665039,-3.2321722507476807
1766054145920092000,9.643091796875,-0.9792284965515137,-9.77791976928711,-3.19865345954895
1766054145930071000,9.653071044921875,-0.6847416758537292,-9.404424667358398,-3.095702886581421
1766054145940111400,9.663111328125,-0.5099649429321289,-9.332598686218262,-3.3016040325164795
1766054145950090500,9.673090576171875,-0.5219359993934631,-9.191340446472168,-3.464409828186035
1766054145960070000,9.68306982421875,-0.2992752194404602,-9.239224433898926,-3.536235809326172
1766054145970110200,9.693110107421875,-0.2346317619085312,-8.860940933227539,-3.5242648124694824
1766054145980089300,9.70308935546875,-0.15801730751991272,-8.851364135742188,-3.7469255924224854
1766054146010027000,9.733027099609375,-0.730231523513794,-9.160215377807617,-3.627215623855591
1766054146020036900,9.743036865234375,-0.8355764150619507,-9.533711433410645,-3.5960910320281982
1766054146029985500,9.752985595703125,-0.7422025203704834,-9.646238327026367,-3.4572272300720215
1766054146039995400,9.762995361328125,-0.7422025203704834,-9.830592155456543,-3.3901896476745605
1766054146049974500,9.772974609375,-0.7709329724311829,-9.296685218811035,-3.3255462646484375
1766054146069933000,9.79293310546875,-0.6775590777397156,-9.014169692993164,-3.1244332790374756
1766054146079943000,9.80294287109375,-0.6129156351089478,-9.35893440246582,-3.141192674636841
1766054146089922000,9.812922119140625,-0.8451532125473022,-9.651026725769043,-3.0765492916107178
1766054146119890400,9.842890380859375,-1.0773907899856567,-9.315838813781738,-2.983175277709961
1766054146129839000,9.852839111328125,-1.1468225717544556,-9.339780807495117,-3.0142998695373535
1766054146139818500,9.862818603515626,-1.2282254695892334,-9.217676162719727,-2.985569477081299
1766054146149797600,9.872797607421875,-1.0893617868423462,-9.186552047729492,-3.050212860107422
1766054146159776800,9.88277685546875,-1.173158884048462,-9.476250648498535,-2.983175277709961
1766054146169786600,9.89278662109375,-1.1492167711257935,-9.454702377319336,-3.1100680828094482
1766054146179796500,9.90279638671875,-1.0295066833496094,-9.375694274902344,-3.181894063949585
1766054146189745200,9.9127451171875,-1.0797849893569946,-9.524134635925293,-3.066972494125366
1766054146209734100,9.932734130859375,-1.070208191871643,-9.320627212524414,-3.066972494125366
1766054146239733000,9.96273291015625,-1.0869675874710083,-9.255983352661133,-2.985569477081299
1766054146249773300,9.972773193359375,-1.0869675874710083,-9.255983352661133,-2.985569477081299
1766054146259752400,9.98275244140625,-1.1061211824417114,-9.493009567260742,-2.920926094055176
1766054146269701000,9.992701171875,-1.2401964664459229,-9.526528358459473,-2.8634653091430664
1766054146279680500,10.002680419921875,-1.3096283674240112,-9.528923034667969,-2.8395233154296875
1766054146289659600,10.01265966796875,-0.7110779285430908,-8.96149730682373,-3.7038300037384033
1766054146319658500,10.042658447265625,-1.072602391242981,-8.803479194641113,-3.1747114658355713
1766054146339708400,10.06270849609375,-1.0845733880996704,-8.904036521911621,-3.0861260890960693
1766054146349687800,10.072687744140625,-0.7972691655158997,-9.045293807983398,-3.141192674636841
1766054146359697400,10.082697509765625,-0.7158663272857666,-9.308655738830566,-3.1938650608062744
1766054146369707300,10.092707275390625,-0.689530074596405,-9.569623947143555,-3.1316158771514893
1766054146379656000,10.102656005859375,-0.6512228846549988,-9.583989143371582,-3.0765492916107178
1766054146389665800,10.112665771484375,-0.6751648783683777,-9.48343276977539,-3.138798475265503
1766054146399645000,10.12264501953125,-0.7015010714530945,-9.531316757202148,-3.155557870864868
1766054146429613300,10.15261328125,-0.727837324142456,-9.402029991149902,-3.093308687210083
1766054146439623200,10.162623046875,-0.7948749661445618,-9.38048267364502,-3.134010076522827
1766054146449632800,10.1726328125,-0.8403648138046265,-9.308655738830566,-3.1699230670928955
1766054146459612200,10.182612060546875,-0.7757213711738586,-9.284713745117188,-3.162740468978882
1766054146469621800,10.192621826171875,-0.5937620401382446,-9.32541561126709,-3.24414324760437
1766054146479601200,10.20260107421875,-0.4596867263317108,-9.579200744628906,-3.2537200450897217
1766054146489610800,10.21261083984375,-0.4908113479614258,-9.557653427124023,-3.205836057662964
1766054146499590100,10.222590087890625,-0.5913678407669067,-9.375694274902344,-3.157952070236206
1766054146509569300,10.2325693359375,-0.6129156351089478,-9.14585018157959,-3.1268274784088135
1766054146529589000,10.252589111328126,-0.5051765441894531,-9.059659004211426,-3.1962592601776123
1766054146539568000,10.262568115234375,-0.4429273009300232,-9.074024200439453,-3.2417490482330322
1766054146549578000,10.272577880859375,-0.47165772318840027,-9.227252960205078,-3.31118106842041
1766054146559557000,10.28255712890625,-0.3878606855869293,-9.246406555175781,-3.220201253890991
1766054146569536500,10.29253662109375,-0.3447650372982025,-9.282320022583008,-3.248931646347046
1766054146579546000,10.302546142578125,-0.2753331959247589,-9.315838813781738,-3.2345664501190186
1766054146589494800,10.312494873046875,-0.23942017555236816,-9.210494041442871,-3.265691041946411
1766054146599504600,10.322504638671875,-0.2561795711517334,-9.299078941345215,-3.3446998596191406
1766054146609514500,10.332514404296875,-0.22266076505184174,-9.600749015808105,-3.2393548488616943
1766054146629503500,10.35250341796875,-0.17956513166427612,-9.339780807495117,-3.203441858291626
1766054146639513000,10.36251318359375,-0.35434186458587646,-9.555258750915527,-3.1651346683502197
1766054146649523000,10.37252294921875,-0.4381389021873474,-9.636661529541016,-3.162740468978882
1766054146659502300,10.38250244140625,-0.5817909836769104,-9.62947940826416,-3.160346269607544
1766054146669481500,10.3924814453125,-0.6129156351089478,-9.581595420837402,-3.043030261993408
1766054146679460600,10.402460693359375,-0.8068459630012512,-9.57201862335205,-3.00711727142334
1766054146689440000,10.41243994140625,-0.7110779285430908,-9.50737476348877,-2.956839084625244
1766054146699449900,10.422449951171876,-0.5530605912208557,-9.354146003723145,-2.9688100814819336
1766054146709429000,10.432428955078125,-0.4405331015586853,-9.241618156433105,-2.980781078338623
1766054146719408000,10.442408203125,-0.26815059781074524,-9.016563415527344,-2.9903578758239746
1766054146729418000,10.45241796875,-0.45489832758903503,-9.279925346374512,-2.937685489654541
1766054146759447300,10.482447265625,-0.42616790533065796,-9.284713745117188,-2.956839084625244
1766054146769426400,10.492426513671875,-0.42616790533065796,-9.239224433898926,-2.846705913543701
1766054146779405800,10.50240576171875,-0.4908113479614258,-9.452308654785156,-2.964021682739258
1766054146789385000,10.512385009765625,-0.6368576288223267,-9.411606788635254,-2.8993782997131348
1766054146799364400,10.5223642578125,-0.7015010714530945,-9.227252960205078,-2.9089550971984863
1766054146809374000,10.5323740234375,-0.629675030708313,-8.78193187713623,-2.8826189041137695
1766054146819353300,10.542353271484375,-0.6584054827690125,-8.923190116882324,-2.9305028915405273
1766054146829332500,10.55233251953125,-0.586579442024231,-9.033323287963867,-2.8227639198303223
1766054146859300900,10.58230078125,-1.357512354850769,-9.801861763000488,-2.873042106628418
1766054146869310500,10.592310546875,-1.357512354850769,-9.801861763000488,-2.873042106628418
1766054146879289900,10.602289794921875,-1.400607943534851,-9.742006301879883,-2.7724854946136475
1766054146889299700,10.6122998046875,-1.53707754611969,-9.821015357971191,-2.7676970958709717
1766054146899278800,10.62227880859375,-1.5682021379470825,-9.634267807006836,-2.853888511657715
1766054146909258000,10.632258056640625,-1.4293384552001953,-9.131484985351562,-2.9472622871398926
1766054146919267800,10.642267822265625,-1.1348515748977661,-8.741230010986328,-2.8802247047424316
1766054146929216500,10.652216552734375,-0.9289502501487732,-9.2033109664917,-2.9544448852539062
1766054146959245800,10.682245849609375,-1.158793568611145,-9.617507934570312,-2.8227639198303223
1766054146979204400,10.702204345703125,-1.3503297567367554,-9.727641105651855,-3.004723072052002
1766054146989214200,10.712214111328125,-1.2737152576446533,-9.583989143371582,-2.964021682739258
1766054146999223800,10.722223876953125,-1.1180921792984009,-9.421183586120605,-2.920926094055176
1766054147009203200,10.732203125,-1.2330138683319092,-9.327810287475586,-2.8347349166870117
1766054147019182300,10.742182373046875,-1.0031704902648926,-8.777143478393555,-2.983175277709961
1766054147029161700,10.75216162109375,-1.1468225717544556,-9.02135181427002,-2.9496564865112305
1766054147039140900,10.762140869140625,-1.237802267074585,-9.469067573547363,-2.8850131034851074
1766054147049150700,10.772150634765625,-1.1683704853057861,-9.485827445983887,-2.8395233154296875
1766054147059160300,10.782160400390625,-1.381454348564148,-9.660603523254395,-2.964021682739258
1766054147069139700,10.7921396484375,-1.4676456451416016,-9.749189376831055,-2.82515811920166
1766054147079118800,10.802118896484375,-1.5634137392044067,-9.701305389404297,-2.8610711097717285
1766054147089098200,10.81209814453125,-1.625662922859192,-9.296685218811035,-3.0190882682800293
1766054147099107800,10.82210791015625,-1.4987702369689941,-9.10993766784668,-2.8778305053710938
1766054147109056800,10.832056884765626,-1.4772224426269531,-8.971074104309082,-3.004723072052002
1766054147119096800,10.842096923828125,-1.4053963422775269,-9.069235801696777,-2.9975404739379883
1766054147129076200,10.852076171875,-1.2952631711959839,-9.14585018157959,-3.023876667022705
1766054147139086000,10.862086181640626,-1.3670891523361206,-9.57201862335205,-2.9927520751953125
1766054147159044400,10.88204443359375,-1.5682021379470825,-9.682151794433594,-3.050212860107422
1766054147179064000,10.90206396484375,-1.4844050407409668,-9.311050415039062,-2.9759926795959473
1766054147189012700,10.9120126953125,-1.4389152526855469,-9.227252960205078,-2.937685489654541
1766054147199053000,10.922052978515625,-1.403002142906189,-8.880094528198242,-2.940079689025879
1766054147209032200,10.9320322265625,-1.4844050407409668,-9.107542991638184,-2.8610711097717285
1766054147219011600,10.942011474609375,-1.577778935432434,-9.14585018157959,-2.9041666984558105
1766054147228990700,10.95199072265625,-1.6136919260025024,-9.26795482635498,-2.8155810832977295
1766054147238970000,10.96197021484375,-1.5897499322891235,-9.397241592407227,-2.896984100341797
1766054147248979700,10.971979736328125,-1.5179238319396973,-9.351752281188965,-2.8850131034851074
1766054147268968700,10.99196875,-1.2689268589019775,-9.567230224609375,-2.942473888397217
1766054147278948000,11.001947998046875,-1.256955862045288,-9.641449928283691,-2.964021682739258
1766054147288927200,11.01192724609375,-1.3527239561080933,-9.44752025604248,-2.9664158821105957
1766054147298906600,11.02190673828125,-1.659181833267212,-9.296685218811035,-2.896984100341797
1766054147308885800,11.0318857421875,-1.647210717201233,-9.138668060302734,-2.8993782997131348
1766054147318865000,11.041864990234375,-1.7262194156646729,-8.978256225585938,-2.913743495941162
1766054147328844300,11.05184423828125,-1.6184803247451782,-9.090784072875977,-2.889801502227783
1766054147338854100,11.061854248046876,-1.5083470344543457,-9.718064308166504,-3.002328872680664
1766054147348833300,11.071833251953125,-1.434126853942871,-9.567230224609375,-3.0310592651367188
1766054147358843100,11.081843017578125,-1.2497732639312744,-9.402029991149902,-3.043030261993408
1766054147378862600,11.101862548828125,-1.1252747774124146,-9.167398452758789,-3.047818660736084
1766054147388841700,11.111841796875,-0.993593692779541,-9.030928611755371,-2.9328970909118652
1766054147398821000,11.121821044921875,-1.1635819673538208,-9.318233489990234,-3.071760892868042
1766054147408830700,11.131830810546875,-1.3670891523361206,-9.205705642700195,-2.964021682739258
1766054147418840600,11.141840576171875,-1.4772224426269531,-9.062053680419922,-3.002328872680664
1766054147428820000,11.151820068359376,-1.599326729774475,-9.217676162719727,-2.9281086921691895
1766054147438799000,11.161799072265625,-1.5418659448623657,-9.129091262817383,-3.00711727142334
1766054147448809000,11.17180908203125,-1.5825673341751099,-9.229647636413574,-3.004723072052002
1766054147458788000,11.1817880859375,-1.6112977266311646,-9.502586364746094,-2.980781078338623
1766054147498674700,11.2216748046875,-1.623268723487854,-9.440337181091309,-3.0095114707946777
1766054147508684300,11.231684326171875,-1.5825673341751099,-9.296685218811035,-3.00711727142334
1766054147518694100,11.241694091796875,-1.5538369417190552,-9.41400146484375,-3.0621838569641113
1766054147528704000,11.2517041015625,-1.5083470344543457,-9.41639518737793,-2.9712042808532715
1766054147538683100,11.26168310546875,-1.5490485429763794,-9.3828763961792,-3.043030261993408
1766054147548662300,11.271662353515625,-1.522712230682373,-9.332598686218262,-2.999934673309326
1766054147558672100,11.281672119140625,-1.5203180313110352,-9.349357604980469,-2.9903578758239746
1766054147578661000,11.3016611328125,-1.6184803247451782,-9.315838813781738,-2.978386878967285
1766054147598650000,11.321650146484375,-1.8100165128707886,-9.095572471618652,-3.002328872680664
1766054147608660000,11.331659912109375,-1.4484920501708984,-9.0859956741333,-2.956839084625244
1766054147618669800,11.341669921875,-1.3694833517074585,-9.232041358947754,-2.959233283996582
1766054147628649000,11.35164892578125,-1.436521053314209,-9.394847869873047,-3.0597896575927734
1766054147638628000,11.361628173828125,-1.4460978507995605,-9.469067573547363,-2.9951462745666504
1766054147648638000,11.371637939453125,-1.414973258972168,-9.26795482635498,-2.9735984802246094
1766054147658647800,11.381647705078125,-1.4532804489135742,-9.220070838928223,-3.0310592651367188
1766054147668627000,11.391626953125,-1.359906554222107,-9.363722801208496,-3.0142998695373535
1766054147688616000,11.411615966796875,-1.644816517829895,-9.47146224975586,-3.0861260890960693
1766054147698595300,11.42159521484375,-1.5394717454910278,-9.404424667358398,-3.050212860107422
1766054147708574500,11.431574462890625,-1.5945383310317993,-9.296685218811035,-3.155557870864868
1766054147718584300,11.441584228515625,-1.5418659448623657,-9.11233139038086,-3.0526070594787598
1766054147728563500,11.4515634765625,-1.482010841369629,-8.992621421813965,-3.0190882682800293
1766054147738542800,11.46154296875,-1.4508862495422363,-9.042900085449219,-3.043030261993408
1766054147748491500,11.471491455078125,-1.3886369466781616,-9.107542991638184,-3.0166940689086914
1766054147758501000,11.481501220703125,-1.170764684677124,-9.093177795410156,-2.9712042808532715
1766054147768511000,11.491510986328125,-1.1228805780410767,-9.390059471130371,-3.0095114707946777
1766054147778490400,11.501490478515626,-1.2976573705673218,-9.627084732055664,-3.0166940689086914
1766054147788469500,11.511469482421875,-1.3718775510787964,-9.610325813293457,-3.0190882682800293
1766054147798479400,11.521479248046875,-1.482010841369629,-9.512163162231445,-3.0382418632507324
1766054147808458500,11.53145849609375,-1.4628572463989258,-9.421183586120605,-3.023876667022705
1766054147818468400,11.54146826171875,-1.5083470344543457,-9.423578262329102,-2.983175277709961
1766054147828447500,11.551447509765625,-1.525106430053711,-9.349357604980469,-2.87064790725708
1766054147838457300,11.561457275390625,-1.5825673341751099,-9.337387084960938,-2.8658595085144043
1766054147848181800,11.571181640625,-1.5825673341751099,-9.337387084960938,-2.8658595085144043
1766054147857560800,11.580560791015625,-1.525106430053711,-9.21288776397705,-2.853888511657715
1766054147866940200,11.589940185546874,-1.5849615335464478,-9.17697525024414,-2.868253707885742
1766054147876380400,11.59938037109375,-1.4173674583435059,-9.117119789123535,-2.8610711097717285
1766054147885820700,11.608820556640625,-1.3934253454208374,-9.385271072387695,-2.896984100341797
1766054147895230500,11.61823046875,-1.4724340438842773,-9.607931137084961,-2.9233202934265137
1766054147904709600,11.627709716796875,-1.4700398445129395,-9.536105155944824,-2.9281086921691895
1766054147914389000,11.637388916015626,-1.4676456451416016,-9.315838813781738,-3.069366693496704
1766054147924068400,11.647068359375,-1.3646949529647827,-9.162610054016113,-3.0573954582214355
1766054147933878000,11.6568779296875,-1.158793568611145,-8.968679428100586,-3.114856481552124
1766054147953667000,11.6766669921875,-1.1420341730117798,-9.196128845214844,-3.0382418632507324
1766054147963646200,11.686646240234374,-1.3527239561080933,-9.509769439697266,-3.117250680923462
1766054147973625600,11.69662548828125,-1.3431471586227417,-9.655815124511719,-3.0789434909820557
1766054147983604700,11.706604736328124,-1.3742717504501343,-9.500192642211914,-3.047818660736084
1766054147993584000,11.716584228515625,-1.4652514457702637,-9.47146224975586,-2.999934673309326
1766054148003563300,11.726563232421874,-1.4891934394836426,-9.174580574035645,-2.940079689025879
1766054148023582700,11.746582763671874,-1.3455413579940796,-9.308655738830566,-2.8802247047424316
1766054148033592600,11.756592529296874,-1.5059528350830078,-9.531316757202148,-2.920926094055176
1766054148043541200,11.766541259765624,-1.45806884765625,-9.318233489990234,-2.959233283996582
1766054148053520600,11.776520751953125,-1.359906554222107,-9.320627212524414,-2.9951462745666504
1766054148063530200,11.7865302734375,-1.2952631711959839,-9.232041358947754,-3.021482467651367
1766054148073540000,11.7965400390625,-1.1803414821624756,-9.229647636413574,-2.9712042808532715
1766054148083488800,11.80648876953125,-1.1827356815338135,-9.217676162719727,-2.9927520751953125
1766054148093529000,11.816529052734374,-1.2832920551300049,-9.397241592407227,-3.0119056701660156
1766054148103508200,11.82650830078125,-1.3694833517074585,-9.370905876159668,-2.913743495941162
1766054148133537500,11.85653759765625,-1.4628572463989258,-9.29189682006836,-2.9975404739379883
1766054148143517000,11.866516845703124,-1.525106430053711,-9.229647636413574,-3.0166940689086914
1766054148153496000,11.87649609375,-1.4748282432556152,-9.255983352661133,-2.9879636764526367
1766054148163506000,11.886505859375,-1.4101848602294922,-9.248801231384277,-2.9951462745666504
1766054148173515800,11.896515869140625,-1.4844050407409668,-9.428366661071777,-2.9903578758239746
1766054148183495000,11.906494873046874,-1.3646949529647827,-9.232041358947754,-3.0382418632507324
1766054148193504800,11.9165048828125,-1.2952631711959839,-9.17936897277832,-2.9328970909118652
1766054148203484000,11.92648388671875,-1.278503656387329,-9.332598686218262,-3.0095114707946777
1766054148223442400,11.9464423828125,-1.3263877630233765,-9.260771751403809,-3.0621838569641113
1766054148243462000,11.9664619140625,-1.403002142906189,-9.423578262329102,-3.1507694721221924
1766054148253441300,11.976441162109374,-1.3766659498214722,-9.284713745117188,-3.1196448802948
1766054148263390000,11.986389892578124,-1.5969325304031372,-9.294290542602539,-3.0095114707946777
1766054148273399800,11.99639990234375,-1.5682021379470825,-9.282320022583008,-3.0358476638793945
1766054148283379000,12.00637890625,-1.5610195398330688,-9.248801231384277,-2.980781078338623
1766054148293358000,12.016358154296874,-1.4413094520568848,-9.284713745117188,-2.9951462745666504
1766054148303368000,12.026367919921874,-1.4915876388549805,-9.378087997436523,-2.983175277709961
1766054148313377800,12.036377685546874,-1.5490485429763794,-9.428366661071777,-2.9472622871398926
1766054148333305600,12.0563056640625,-1.7908629179000854,-9.607931137084961,-2.9496564865112305
1766054148343254500,12.066254638671875,-1.6065093278884888,-9.272743225097656,-2.911349296569824
1766054148353233700,12.076233642578124,-1.6089035272598267,-9.39245319366455,-3.0190882682800293
1766054148363212800,12.086212890625,-1.6304513216018677,-9.370905876159668,-3.0310592651367188
1766054148373222700,12.09622265625,-1.5729905366897583,-9.29189682006836,-2.9065608978271484
1766054148383171300,12.10617138671875,-1.3551181554794312,-9.17697525024414,-2.9281086921691895
1766054148393150700,12.116150634765624,-1.4915876388549805,-9.193734169006348,-2.8562827110290527
1766054148403160300,12.126160400390624,-1.678335428237915,-9.375694274902344,-2.9472622871398926
1766054148413139700,12.1361396484375,-1.4987702369689941,-9.23682975769043,-2.9664158821105957
1766054148423149600,12.146149658203125,-1.4987702369689941,-9.23682975769043,-2.9664158821105957
1766054148433128700,12.156128662109374,-1.4676456451416016,-9.330204010009766,-2.9735984802246094
1766054148473076200,12.196076171875,-1.5179238319396973,-9.397241592407227,-3.071760892868042
1766054148483086000,12.206086181640625,-1.3766659498214722,-9.181763648986816,-3.0382418632507324
1766054148493095700,12.216095703125,-1.4652514457702637,-9.160215377807617,-3.0597896575927734
1766054148503044400,12.22604443359375,-1.5514427423477173,-9.23443603515625,-3.1052796840667725
1766054148513054200,12.23605419921875,-1.53707754611969,-9.26795482635498,-3.136404275894165
1766054148523033600,12.24603369140625,-1.6136919260025024,-9.366117477416992,-3.1914708614349365
1766054148543022600,12.266022705078125,-1.6759412288665771,-9.263166427612305,-3.0526070594787598
1766054148553001700,12.276001708984374,-1.5322890281677246,-9.253589630126953,-3.0406360626220703
1766054148583000600,12.30600048828125,-1.2234370708465576,-9.361329078674316,-3.023876667022705
1766054148593010200,12.31601025390625,-1.0989385843276978,-9.366117477416992,-3.004723072052002
1766054148602989600,12.325989501953124,-1.158793568611145,-9.258378028869629,-3.004723072052002
1766054148612968700,12.33596875,-1.216254472732544,-9.059659004211426,-2.9735984802246094
1766054148622978600,12.345978515625,-1.3623007535934448,-8.923190116882324,-3.0095114707946777
1766054148632988400,12.355988525390625,-1.414973258972168,-9.181763648986816,-2.9712042808532715
1766054148662987000,12.385987060546874,-1.5394717454910278,-9.452308654785156,-3.0861260890960693
1766054148672966400,12.39596630859375,-1.577778935432434,-9.411606788635254,-3.0621838569641113
1766054148682945500,12.405945556640624,-1.580173134803772,-9.279925346374512,-3.0406360626220703
1766054148692925000,12.415925048828125,-1.6065093278884888,-9.289502143859863,-3.1100680828094482
1766054148702904000,12.425904052734374,-1.6711528301239014,-9.342175483703613,-3.0861260890960693
1766054148712914000,12.435913818359374,-1.5466543436050415,-9.20091724395752,-3.0406360626220703
1766054148722893000,12.44589306640625,-1.5873557329177856,-9.162610054016113,-3.050212860107422
1766054148732872400,12.45587255859375,-1.5179238319396973,-9.21288776397705,-2.999934673309326
1766054148752830700,12.475830810546874,-1.4891934394836426,-9.255983352661133,-3.069366693496704
1766054148762840600,12.485840576171874,-1.45806884765625,-9.330204010009766,-2.985569477081299
1766054148782799000,12.505799072265624,-1.6184803247451782,-9.385271072387695,-3.0142998695373535
1766054148792809000,12.51580908203125,-1.7046716213226318,-9.5408935546875,-2.940079689025879
1766054148802757600,12.525757568359374,-1.5969325304031372,-9.205705642700195,-3.0550012588500977
1766054148812767200,12.535767333984374,-1.6424223184585571,-9.0859956741333,-2.985569477081299
1766054148822777000,12.545777099609374,-1.601720929145813,-9.23682975769043,-3.0406360626220703
1766054148832787000,12.555786865234374,-1.6711528301239014,-9.299078941345215,-3.069366693496704
1766054148842766000,12.56576611328125,-1.601720929145813,-9.27034854888916,-3.1076738834381104
1766054148852745500,12.575745361328124,-1.6304513216018677,-9.385271072387695,-3.066972494125366
1766054148862724600,12.585724609375,-1.6280571222305298,-9.318233489990234,-3.1435868740081787
1766054148872704000,12.5957041015625,-1.6376339197158813,-9.354146003723145,-3.0358476638793945
1766054148912743000,12.635742919921874,-1.659181833267212,-9.275136947631836,-3.043030261993408
1766054148922722300,12.645722412109375,-1.7070658206939697,-9.385271072387695,-3.064578056335449
1766054148942680600,12.6656806640625,-1.7357962131500244,-9.346963882446289,-3.1435868740081787
1766054148972679400,12.695679443359374,-1.4508862495422363,-9.038111686706543,-3.1244332790374756
1766054148992668400,12.71566845703125,-1.4508862495422363,-9.124302864074707,-3.1483752727508545
1766054149002647800,12.725647705078124,-1.6496049165725708,-9.397241592407227,-3.205836057662964
1766054149012627000,12.735626953125,-1.6041151285171509,-9.361329078674316,-3.1244332790374756
1766054149022606300,12.7456064453125,-1.4891934394836426,-9.030928611755371,-3.1052796840667725
1766054149032646400,12.755646484375,-1.4891934394836426,-9.030928611755371,-3.1052796840667725
1766054149102623200,12.825623291015624,-1.5059528350830078,-9.157821655273438,-3.050212860107422
1766054149112602600,12.8356025390625,-1.53707754611969,-9.244012832641602,-3.0621838569641113
1766054149122612200,12.8456123046875,-1.580173134803772,-9.311050415039062,-3.043030261993408
1766054149132591600,12.855591552734374,-1.5849615335464478,-9.165003776550293,-3.0813376903533936
1766054149142601200,12.865601318359374,-1.4867992401123047,-9.011775016784668,-3.155557870864868
1766054149152580600,12.87558056640625,-1.3982137441635132,-8.971074104309082,-3.1747114658355713
1766054149162559700,12.885559814453124,-1.5059528350830078,-9.320627212524414,-3.117250680923462
1766054149172569600,12.895569580078124,-1.580173134803772,-9.354146003723145,-3.1459810733795166
1766054149182548700,12.905548828125,-1.5155296325683594,-9.330204010009766,-3.1483752727508545
1766054149202538000,12.9255380859375,-1.4484920501708984,-9.53849983215332,-2.9975404739379883
1766054149212547600,12.935547607421874,-1.7501614093780518,-9.514557838439941,-3.117250680923462
1766054149222527000,12.94552685546875,-1.5610195398330688,-9.516951560974121,-3.050212860107422
1766054149232506000,12.955506103515624,-1.6208745241165161,-9.653421401977539,-3.023876667022705
1766054149242454800,12.965454833984374,-1.5897499322891235,-9.576807022094727,-2.959233283996582
1766054149252495000,12.9754951171875,-1.5849615335464478,-9.5624418258667,-2.983175277709961
1766054149262474500,12.985474609375,-1.623268723487854,-9.423578262329102,-2.9472622871398926
1766054149272453600,12.99545361328125,-1.6855180263519287,-9.330204010009766,-2.937685489654541
1766054149282432800,13.005432861328124,-1.4700398445129395,-9.016563415527344,-2.920926094055176
1766054149292442600,13.015442626953124,-1.4724340438842773,-8.810662269592285,-2.9328970909118652
1766054149312431600,13.035431640625,-1.1420341730117798,-9.062053680419922,-2.8634653091430664
1766054149342400000,13.06539990234375,-1.3407529592514038,-9.445125579833984,-3.002328872680664
1766054149352409600,13.07540966796875,-1.2832920551300049,-9.387664794921875,-3.0789434909820557
1766054149362358500,13.085358642578125,-1.3024457693099976,-9.399636268615723,-3.112462282180786
1766054149372368100,13.0953681640625,-1.3335703611373901,-9.282320022583008,-3.023876667022705
1766054149382316800,13.10531689453125,-1.434126853942871,-9.50498104095459,-3.0190882682800293
1766054149392357000,13.115357177734374,-1.5179238319396973,-9.488221168518066,-3.0166940689086914
1766054149402336500,13.12533642578125,-1.3766659498214722,-9.339780807495117,-2.9975404739379883
1766054149412346000,13.13534619140625,-1.434126853942871,-9.425971984863281,-2.9712042808532715
1766054149432335000,13.155335205078124,-1.2641384601593018,-9.327810287475586,-3.1962592601776123
1766054149442314500,13.165314453125,-1.2210428714752197,-9.35893440246582,-2.940079689025879
1766054149452293600,13.175293701171874,-1.3455413579940796,-9.44752025604248,-3.1004912853240967
1766054149462303500,13.185303466796874,-1.335964560508728,-9.41639518737793,-3.0526070594787598
1766054149472282600,13.19528271484375,-1.2641384601593018,-9.23443603515625,-3.138798475265503
1766054149482231600,13.2052314453125,-1.0606313943862915,-9.339780807495117,-2.935291290283203
1766054149492271900,13.21527197265625,-1.1420341730117798,-9.622296333312988,-3.2154128551483154
1766054149502251000,13.2252509765625,-0.8595184087753296,-8.975862503051758,-3.179499864578247
1766054149512260900,13.2352607421875,-0.8834604024887085,-9.165003776550293,-3.134010076522827
1766054149572197400,13.295197265625,-1.3120225667953491,-9.442731857299805,-2.9544448852539062
1766054149582176500,13.305176513671874,-1.113303780555725,-9.394847869873047,-3.0119056701660156
1766054149592186400,13.315186279296874,-0.9385270476341248,-9.516951560974121,-2.920926094055176
1766054149602165500,13.32516552734375,-0.8619126081466675,-9.459490776062012,-2.827552318572998
1766054149612175400,13.33517529296875,-0.6847416758537292,-9.330204010009766,-2.9328970909118652
1766054246584676600,110.30767651367188,9.749189376831055,-0.4596867263317108,-1.0007762908935547
1766054246594517000,110.31751708984375,9.749189376831055,-0.4596867263317108,-1.0007762908935547
1766054246604326700,110.32732666015625,9.641449928283691,-0.48602294921875,-0.9313444495201111
1766054246614106000,110.33710620117188,9.706093788146973,-0.6847416758537292,-1.173158884048462
1766054246624146200,110.34714624023438,9.624691009521484,-0.6967126727104187,-1.1563993692398071
1766054246664063200,110.38706323242188,9.619902610778809,-0.021547814831137657,-1.4963760375976562
1766054246684021800,110.40702172851563,9.440337181091309,-0.3878606855869293,-1.4532804489135742
1766054246733979100,110.45697924804688,9.746794700622559,0.13407529890537262,-1.3742717504501343
1766054246793915600,110.51691552734376,9.876082420349121,-0.17238251864910126,-1.6855180263519287
1766054246813904600,110.53690454101563,9.732429504394531,0.21787235140800476,-1.5634137392044067
1766054246863831300,110.58683129882813,10.053253173828125,0.5530605912208557,-1.9393033981323242
