time,seconds_elapsed,z,y,x
1766399502206360000,-49.29663989257813,-0.11484266817569733,-0.051312681287527084,-0.19547687470912933
1766399502246429700,-49.2565703125,0.02932153269648552,0.012217304669320583,0.05375614017248154
1766399502256439300,-49.246560791015625,0.06352998316287994,0.009773843921720982,0.010995574295520782
1766399502266449200,-49.23655078125,0.06719517707824707,0.00855211354792118,-0.00733038317412138
1766399502276428300,-49.22657177734375,0.03176499158143997,-0.0012217304902151227,0.024434609338641167
1766399502286468600,-49.216531494140625,-0.012217304669320583,-0.01710422709584236,0.18814650177955627
1766399502296478500,-49.206521484375,0.024434609338641167,-0.01710422709584236,0.22846360504627228
1766399502306488300,-49.19651171875,0.0354301854968071,-0.02321287989616394,0.17470745742321014
1766399502316498000,-49.186502197265625,0.01710422709584236,-0.030543262138962746,0.06230825558304787
1766399502346588400,-49.15641162109375,0.03787364438176155,-0.03420845419168472,-0.13316862285137177
1766399502356598000,-49.146402099609375,0.059864792972803116,-0.036651913076639175,-0.09896016865968704
1766399502366638300,-49.13636157226563,0.05619960278272629,-0.04642575979232788,-0.08552113175392151
1766399502376678700,-49.1263212890625,0.04642575979232788,-0.05619960278272629,-0.10751228034496307
1766399502406708000,-49.0962919921875,0.00733038317412138,-0.07330382615327835,-0.1514945775270462
1766399502416748300,-49.08625170898438,0.0024434609804302454,-0.07208210229873657,-0.14905111491680145
1766399502456787200,-49.046212890625,0.02687807008624077,-0.02321287989616394,-0.14538592100143433
1766399502466797000,-49.03620288085938,0.019547687843441963,-0.019547687843441963,-0.15760323405265808
1766399502476807000,-49.02619311523438,0.02687807008624077,-0.01710422709584236,-0.18814650177955627
1766399502486877700,-49.01612231445313,0.04642575979232788,-0.01466076634824276,-0.20525072515010834
1766399502506866700,-48.99613330078125,0.06719517707824707,-0.01710422709584236,-0.2626720666885376
1766399502516876300,-48.986123779296875,0.05742133408784866,-0.03420845419168472,-0.3396410644054413
1766399502526886100,-48.97611376953125,0.024434609338641167,-0.1160643994808197,-0.5180137157440186
1766399502536896000,-48.96610400390625,0.05742133408784866,-0.2577851414680481,-0.8002334833145142
1766399502556946000,-48.94605419921875,0.3787364661693573,-0.35674530267715454,-1.0751228332519531
1766399502566955800,-48.93604418945313,0.5852088928222656,-0.44837507605552673,-1.2950342893600464
1766399502576935000,-48.926065185546875,0.675616979598999,-0.5180137157440186,-1.5454890727996826
1766399502587005700,-48.915994384765625,0.846659243106842,-0.5510004758834839,-1.8252654075622559
1766399502597015600,-48.905984375,1.017701506614685,-0.5852088928222656,-2.1123719215393066
1766399502607025400,-48.895974609375,1.2608258724212646,-0.6218608021736145,-2.280970811843872
1766399502617096200,-48.88590380859375,1.340238332748413,-0.6096435189247131,-2.3066272735595703
1766399502627105800,-48.875894287109375,1.5112806558609009,-0.5693264007568359,-2.1905627250671387
1766399502657165600,-48.84583447265625,2.085494041442871,-0.4141666293144226,-2.6426031589508057
1766399502667175400,-48.83582446289063,2.2626447677612305,-0.4031710624694824,-2.8429667949676514
1766399502677185300,-48.82581469726563,2.470339059829712,-0.43615779280662537,-3.048217535018921
1766399502687195000,-48.81580517578125,2.6755897998809814,-0.4691445231437683,-3.277902841567993
1766399502697235200,-48.805764892578125,2.878396987915039,-0.4911356568336487,-3.5185837745666504
1766399502707275500,-48.79572436523438,3.078760862350464,-0.5204572081565857,-3.769038677215576
1766399502717255000,-48.7857451171875,3.263242244720459,-0.5522221922874451,-4.0158281326293945
1766399502727264500,-48.775735595703125,3.43672776222229,-0.5803219676017761,-4.210083484649658
1766399502737274400,-48.7657255859375,3.5857789516448975,-0.618195652961731,-4.362799644470215
1766399502767334100,-48.73566577148438,3.9510765075683594,-0.8979719281196594,-4.7720794677734375
1766399502777374500,-48.72562548828125,4.145331382751465,-1.0299187898635864,-4.893030643463135
1766399502787384300,-48.71561572265625,4.3004913330078125,-1.1325441598892212,-5.027420997619629
1766399502797394000,-48.705606201171875,4.416555881500244,-1.197295904159546,-5.117828845977783
1766399502807434200,-48.69556567382813,4.541172027587891,-1.2400563955307007,-5.156924247741699
1766399502817444000,-48.68555590820313,4.673119068145752,-1.282817006111145,-5.183802604675293
1766399502827453700,-48.67554638671875,4.7904052734375,-1.301142930984497,-5.244888782501221
1766399502837433000,-48.66556689453125,4.8172831535339355,-1.29381263256073,-5.371949195861816
1766399502857483000,-48.64551708984375,4.736649036407471,-1.2498302459716797,-5.480682849884033
1766399502877502700,-48.62549731445313,4.706105709075928,-1.06657075881958,-4.791626930236816
1766399502887512300,-48.61548779296875,4.706105709075928,-1.06657075881958,-4.791626930236816
1766399502897522200,-48.60547778320313,4.6242499351501465,-0.9615018963813782,-4.483750820159912
1766399502907593000,-48.59540698242188,4.493524551391602,-0.8637634515762329,-4.225965976715088
1766399502917602800,-48.58539721679688,4.3786821365356445,-0.8014551997184753,-3.97306752204895
1766399502927643000,-48.575357177734375,4.255287170410156,-0.7745771408081055,-3.7336084842681885
1766399502937652700,-48.56534716796875,4.087910175323486,-0.7623597979545593,-3.5161404609680176
1766399502947693000,-48.55530688476563,3.877772569656372,-0.7464773058891296,-3.263242244720459
1766399502997772300,-48.505227783203125,2.4080307483673096,-0.47769662737846375,-1.1154398918151855
1766399503017822500,-48.48517749023438,1.7519614696502686,-0.2968805134296417,-0.3885102868080139
1766399503027832300,-48.47516772460938,1.4611896276474,-0.2223549485206604,-0.14538592100143433
1766399508115060500,-43.387939453125,0.7122688889503479,-0.02076941914856434,-0.04886921867728233
1766399508125001000,-43.3779990234375,0.1062905490398407,-0.03420845419168472,-0.4642575979232788
1766399508174710800,-43.32828930664063,-0.21135938167572021,0.2382374405860901,0.23457226157188416
1766399508224851200,-43.27814868164062,-0.1368338167667389,0.11850785464048386,0.28955012559890747
1766399508234860800,-43.26813916015625,-0.14416420459747314,0.05864306539297104,0.17104226350784302
1766399508285031700,-43.21796826171875,-0.08674286305904388,-0.004886921960860491,0.1612684279680252
1766399508295072000,-43.20792797851563,-0.07208210229873657,0.00733038317412138,0.18081611394882202
1766399508335141600,-43.1678583984375,-0.12095131725072861,0.03176499158143997,0.15515977144241333
1766399508425190700,-43.077809326171874,0.13316862285137177,-0.02687807008624077,-0.20036379992961884
1766399508475361500,-43.027638427734374,0.1270599663257599,-0.08429940044879913,0.12828169763088226
1766399508495411500,-43.00758862304688,0.16249015927314758,0.010995574295520782,-0.05375614017248154
1766399508505451800,-42.99754833984375,0.08918632566928864,0.021991148591041565,-0.2871066629886627
1766399508515461600,-42.987538330078124,0.07696902006864548,0.021991148591041565,-0.09651670604944229
1766399508525471200,-42.97752880859375,0.09040805697441101,0.01710422709584236,0.09407325088977814
1766399508535542300,-42.967457763671874,0.11362093687057495,-0.021991148591041565,0.07330382615327835
1766399508545552000,-42.9574482421875,0.07696902006864548,-0.04153883829712868,0.030543262138962746
1766399508575703300,-42.927296630859374,0.01466076634824276,-0.1014036312699318,0.3017674386501312
1766399508585713200,-42.917286865234374,0.02076941914856434,-0.11972958594560623,0.1918116807937622
1766399508595722800,-42.90727734375,0.01710422709584236,-0.14294247329235077,0.1869247704744339
1766399508605732600,-42.897267333984374,0.10018189996480942,-0.15271630883216858,0.25045475363731384
1766399508615742500,-42.887257568359374,0.06352998316287994,-0.2272418737411499,0.34208452701568604
1766399508625752000,-42.877248046875,-0.12095131725072861,-0.3225368559360504,0.4105014503002167
1766399508635762000,-42.867238037109374,-0.11484266817569733,-0.30054569244384766,0.4801400899887085
1766399508645802200,-42.85719775390625,-0.04642575979232788,-0.24923302233219147,0.7806857824325562
1766399508655842600,-42.847157470703124,-0.06719517707824707,-0.2174680233001709,0.9822713136672974
1766399508665821700,-42.83717822265625,-0.0806342139840126,-0.14294247329235077,0.9004153609275818
1766399508675831600,-42.82716845703125,-0.03298672288656235,-0.07330382615327835,0.788016140460968
1766399508685841200,-42.81715893554688,-0.004886921960860491,-0.030543262138962746,0.8417723178863525
1766399508695881500,-42.807118408203124,0.05497787147760391,-0.015882495790719986,0.96883225440979
1766399508705891300,-42.797108642578124,0.05619960278272629,0.013439035043120384,0.9334021210670471
1766399508715962000,-42.787037841796874,0.042760565876960754,0.0354301854968071,0.9957103729248047
1766399508726002400,-42.77699755859375,0.021991148591041565,0.1014036312699318,1.1191051006317139
1766399508736012000,-42.76698803710938,-0.004886921960860491,0.14294247329235077,1.1520918607711792
1766399508746022000,-42.75697802734375,-0.03420845419168472,0.19058994948863983,1.0958921909332275
1766399508756031700,-42.74696826171875,-0.13561208546161652,0.17470745742321014,0.9517280459403992
1766399508786091500,-42.716908447265624,-0.24434609711170197,0.0659734457731247,0.8002334833145142
1766399508796101000,-42.70689892578125,-0.24434609711170197,0.0659734457731247,0.8002334833145142
1766399508806111000,-42.696888916015624,-0.17104226350784302,0.025656340643763542,0.7318165898323059
1766399508816181800,-42.686818359375,-0.18325957655906677,0.04398229718208313,0.7244861721992493
1766399508836232000,-42.66676806640625,-0.15027284622192383,0.05619960278272629,0.5693264007568359
1766399508846272000,-42.65672802734375,-0.18936823308467865,0.13072516024112701,0.504574716091156
1766399508876362500,-42.626637451171874,-0.20891591906547546,0.11972958594560623,0.2822197377681732
1766399508886372000,-42.6166279296875,0.00733038317412138,-0.03420845419168472,0.05742133408784866
1766399508896412400,-42.60658764648438,0.03298672288656235,-0.06963863968849182,-0.22479841113090515
1766399508906422300,-42.59657763671875,-0.12339477986097336,-0.03176499158143997,-0.39706242084503174
1766399508916462600,-42.586537353515624,-0.21991148591041565,0.02932153269648552,-0.588874101638794
1766399508926472200,-42.57652783203125,-0.21991148591041565,0.018325956538319588,-0.6695083379745483
1766399508936482000,-42.56651806640625,-0.12095131725072861,-0.00366519158706069,-0.6414085030555725
1766399508946461400,-42.55653857421875,0.05375614017248154,-0.015882495790719986,-0.6108652353286743
1766399508956501500,-42.54649853515625,0.2174680233001709,-0.00855211354792118,-0.5216789245605469
1766399508996540700,-42.506459228515624,-0.018325956538319588,-0.0659734457731247,0.019547687843441963
1766399509016621300,-42.486378662109374,-0.04642575979232788,-0.07819075137376785,-0.009773843921720982
1766399509026631000,-42.476369140625,-0.05253441259264946,-0.09529497474431992,0.06352998316287994
1766399509036671200,-42.46632885742188,-0.06108652427792549,-0.10384709388017654,0.13805554807186127
1766399509046711600,-42.456288330078124,-0.04153883829712868,-0.10751228034496307,0.2125810980796814
1766399509056751900,-42.446248046875,0.0024434609804302454,-0.09529497474431992,0.26022860407829285
1766399509076801800,-42.4261982421875,0.0757472887635231,-0.03787364438176155,0.20036379992961884
1766399509086811600,-42.416188232421874,0.07941248267889023,-0.00733038317412138,0.17348572611808777
1766399509096882400,-42.40611767578125,0.06230825558304787,0.006108652334660292,0.1466076523065567
1766399509126942200,-42.37605786132813,0.06352998316287994,0.01710422709584236,0.12828169763088226
1766399509136982500,-42.366017578125,0.0806342139840126,0.036651913076639175,0.15271630883216858
1766399509146992400,-42.356007568359374,0.09040805697441101,0.04764748737215996,0.1514945775270462
1766399509157002000,-42.345998046875,0.07941248267889023,0.05619960278272629,0.12095131725072861
1766399509197102000,-42.30589794921875,0.5082398653030396,0.1368338167667389,-0.6291912198066711
1766399509207173000,-42.295826904296874,0.31031954288482666,0.23090706765651703,-0.5668829679489136
1766399509217182700,-42.2858173828125,0.2480112910270691,0.18570303916931152,-0.49235737323760986
1766399509227192600,-42.275807373046874,0.1160643994808197,0.13439035415649414,-0.44715335965156555
1766399509237233000,-42.26576708984375,-0.1062905490398407,-0.0012217304902151227,-0.7134906053543091
1766399509247303700,-42.2556962890625,0.2785545587539673,-0.021991148591041565,-0.22968533635139465
1766399509287403800,-42.21559619140625,0.013439035043120384,0.05497787147760391,-0.02687807008624077
1766399509297413400,-42.20558666992188,0.010995574295520782,0.0708603709936142,-0.07452555745840073
1766399509307423200,-42.19557666015625,0.013439035043120384,0.0806342139840126,-0.05864306539297104
1766399509317433000,-42.18556689453125,0.010995574295520782,0.07941248267889023,-0.07452555745840073
1766399509327442700,-42.17555737304688,-0.015882495790719986,0.07819075137376785,-0.021991148591041565
1766399509337483000,-42.16551708984375,-0.05009094998240471,0.07941248267889023,0.05375614017248154
1766399509347492900,-42.155507080078124,0.07696902006864548,0.025656340643763542,0.0012217304902151227
1766399509357502700,-42.145497314453124,0.09285151958465576,0.05619960278272629,0.03420845419168472
1766399509367542800,-42.13545727539063,-0.00855211354792118,0.06475171446800232,0.08918632566928864
1766399509417652700,-42.08534716796875,0.09162978827953339,0.05864306539297104,0.013439035043120384
1766399509427662600,-42.07533740234375,0.05009094998240471,0.045204028487205505,-0.0012217304902151227
1766399509437672200,-42.06532788085938,-0.0024434609804302454,0.039095375686883926,-0.00733038317412138
1766399509447682000,-42.05531787109375,-0.05619960278272629,0.036651913076639175,-0.03787364438176155
1766399509457722400,-42.045277587890624,-0.09896016865968704,0.04764748737215996,-0.1062905490398407
1766399509467732000,-42.03526806640625,-0.09896016865968704,0.04886921867728233,-0.15760323405265808
1766399509477741800,-42.025258056640624,-0.08918632566928864,0.04153883829712868,-0.1918116807937622
1766399509527912700,-41.97508740234375,0.028099801391363144,-0.02321287989616394,-0.18325957655906677
1766399509537953000,-41.965046875,0.028099801391363144,-0.02321287989616394,-0.18325957655906677
1766399509547963000,-41.955037109375,0.03298672288656235,-0.012217304669320583,-0.1612684279680252
1766399509558003200,-41.944996826171874,-0.04398229718208313,-0.00733038317412138,-0.11362093687057495
1766399509568012800,-41.9349873046875,-0.1160643994808197,-0.03298672288656235,-0.01466076634824276
1766399509578053000,-41.92494677734375,-0.11972958594560623,-0.042760565876960754,0.11850785464048386
1766399509588063000,-41.91493701171875,-0.05375614017248154,-0.03298672288656235,0.1612684279680252
1766399509618153200,-41.8848466796875,0.0012217304902151227,0.030543262138962746,-0.059864792972803116
1766399509628163000,-41.8748369140625,0.02076941914856434,0.03176499158143997,-0.13316862285137177
1766399509638172700,-41.86482739257813,0.045204028487205505,0.012217304669320583,-0.08185594528913498
1766399509648182500,-41.8548173828125,0.02932153269648552,0.0012217304902151227,-0.03787364438176155
1766399509658222800,-41.844777099609374,0,-0.010995574295520782,-0.015882495790719986
1766399509668232400,-41.834767578125,-0.010995574295520782,-0.019547687843441963,-0.0024434609804302454
1766399509688252200,-41.814747802734374,-0.028099801391363144,-0.025656340643763542,-0.00366519158706069
1766399509708302000,-41.79469799804688,0.00733038317412138,-0.004886921960860491,-0.006108652334660292
1766399509738331400,-41.76466870117188,0.021991148591041565,-0.0024434609804302454,-0.013439035043120384
1766399509748371700,-41.754628173828124,0.00733038317412138,-0.00733038317412138,-0.028099801391363144
1766399509768391200,-41.73460888671875,0.010995574295520782,-0.02321287989616394,0.01466076634824276
1766399509778431500,-41.72456860351563,-0.0012217304902151227,-0.024434609338641167,0.06230825558304787
1766399509788441300,-41.71455859375,-0.021991148591041565,-0.01710422709584236,0.06475171446800232
1766399509798451200,-41.704548828125,-0.03176499158143997,0,0.04398229718208313
1766399509838551300,-41.66444873046875,-0.03787364438176155,0.021991148591041565,0.02321287989616394
1766399509848530400,-41.654469482421874,-0.00855211354792118,0.013439035043120384,0.024434609338641167
1766399509858570800,-41.64442919921875,0.009773843921720982,0.006108652334660292,0.042760565876960754
1766399509868580400,-41.63441967773438,0.0012217304902151227,0.004886921960860491,0.04886921867728233
1766399509878590200,-41.62440991210938,-0.006108652334660292,0.0024434609804302454,0.03176499158143997
1766399509888569600,-41.614430419921874,-0.00855211354792118,0.0024434609804302454,0.00366519158706069
1766399509898609700,-41.60439038085938,-0.009773843921720982,-0.004886921960860491,-0.00855211354792118
1766399509938709800,-41.56429028320313,-0.0012217304902151227,-0.00366519158706069,-0.013439035043120384
1766399509948719600,-41.5542802734375,-0.015882495790719986,0.00366519158706069,-0.021991148591041565
1766399509958729500,-41.5442705078125,-0.012217304669320583,0.0024434609804302454,-0.019547687843441963
1766399509968739000,-41.53426098632813,-0.004886921960860491,-0.00366519158706069,-0.0024434609804302454
1766399509978749000,-41.5242509765625,-0.0024434609804302454,-0.00855211354792118,0.010995574295520782
1766399509988758800,-41.5142412109375,-0.006108652334660292,-0.00366519158706069,-0.006108652334660292
1766399509998768400,-41.50423168945313,-0.010995574295520782,0.0024434609804302454,-0.0012217304902151227
1766399510008747800,-41.494252197265624,-0.009773843921720982,0.004886921960860491,0.0024434609804302454
1766399510038807600,-41.4641923828125,0.0012217304902151227,0.006108652334660292,-0.051312681287527084
1766399510048848000,-41.454152099609374,-0.0012217304902151227,0.0012217304902151227,-0.07330382615327835
1766399510058888200,-41.44411181640625,0.021991148591041565,0.006108652334660292,-0.08307767659425735
1766399510068897800,-41.43410229492188,0.004886921960860491,0.00366519158706069,-0.0708603709936142
1766399510078938000,-41.424061767578124,-0.018325956538319588,0.00855211354792118,-0.042760565876960754
1766399510088917500,-41.41408251953125,0.00366519158706069,0,-0.010995574295520782
1766399510098957600,-41.40404248046875,0.006108652334660292,0.0012217304902151227,0.00855211354792118
1766399510108967400,-41.394032470703124,-0.010995574295520782,0.006108652334660292,-0.009773843921720982
1766399510138996700,-41.364003173828124,0,-0.025656340643763542,-0.051312681287527084
1766399510149006600,-41.353993408203124,0.012217304669320583,-0.03787364438176155,-0.0757472887635231
1766399510159016200,-41.34398388671875,0.02321287989616394,-0.045204028487205505,-0.07330382615327835
1766399510169087000,-41.3339130859375,0.01710422709584236,-0.039095375686883926,-0.042760565876960754
1766399510179096800,-41.323903076171874,0.009773843921720982,-0.03420845419168472,-0.02687807008624077
1766399510189137200,-41.31386279296875,0.01466076634824276,-0.030543262138962746,-0.03298672288656235
1766399510199208000,-41.3037919921875,0.00366519158706069,-0.024434609338641167,-0.0403171069920063
1766399510249348400,-41.253651611328124,-0.00733038317412138,0.006108652334660292,-0.009773843921720982
1766399510259388700,-41.243611328125,-0.0012217304902151227,0.006108652334660292,-0.006108652334660292
1766399510269398300,-41.23360180664063,-0.0012217304902151227,0.006108652334660292,-0.006108652334660292
1766399510279408000,-41.223591796875,0.004886921960860491,0.00366519158706069,-0.028099801391363144
1766399510289418000,-41.21358203125,0.021991148591041565,-0.0012217304902151227,-0.036651913076639175
1766399510299458000,-41.2035419921875,0.021991148591041565,-0.0012217304902151227,-0.036651913076639175
1766399510309468000,-41.193531982421874,0.021991148591041565,-0.0012217304902151227,-0.04153883829712868
1766399510319477800,-41.183522216796874,0.021991148591041565,0,-0.04886921867728233
1766399510369679000,-41.13332080078125,0.012217304669320583,-0.0012217304902151227,-0.019547687843441963
1766399510379719400,-41.123280517578124,0.010995574295520782,-0.0012217304902151227,-0.01710422709584236
1766399510389729300,-41.113270751953124,0.013439035043120384,-0.00366519158706069,-0.015882495790719986
1766399510399739000,-41.10326123046875,0.015882495790719986,-0.0012217304902151227,-0.00855211354792118
1766399510409718300,-41.09328173828125,0.012217304669320583,-0.004886921960860491,-0.006108652334660292
1766399510419758300,-41.08324169921875,0.012217304669320583,-0.010995574295520782,-0.004886921960860491
1766399510449757200,-41.05324291992188,-0.0024434609804302454,-0.00366519158706069,-0.02076941914856434
1766399510459797500,-41.043202392578124,-0.0012217304902151227,-0.0024434609804302454,0.006108652334660292
1766399510469807400,-41.033192626953124,0.0012217304902151227,-0.009773843921720982,0.018325956538319588
1766399510479817000,-41.02318310546875,-0.006108652334660292,-0.00733038317412138,0.02687807008624077
1766399510489826800,-41.013173095703124,-0.0024434609804302454,-0.0024434609804302454,0.010995574295520782
1766399510509846300,-40.99315380859375,0.013439035043120384,-0.0012217304902151227,0
1766399510519856000,-40.983143798828124,0.015882495790719986,0.0012217304902151227,0.019547687843441963
1766399510529866000,-40.973134033203124,-0.0012217304902151227,0.0012217304902151227,0.02321287989616394
1766399510559956200,-40.943043701171874,0.015882495790719986,-0.004886921960860491,0.02076941914856434
1766399510569966000,-40.933033935546874,0.010995574295520782,-0.0024434609804302454,0.013439035043120384
1766399510580067300,-40.9229326171875,0.004886921960860491,0.00366519158706069,0.0012217304902151227
1766399510590046500,-40.91295361328125,0.013439035043120384,0.010995574295520782,-0.006108652334660292
1766399510610066200,-40.892933837890624,0.019547687843441963,0.01710422709584236,-0.04398229718208313
1766399510620167400,-40.88283251953125,0.03176499158143997,0.012217304669320583,-0.04153883829712868
1766399510630146600,-40.872853515625,0.02932153269648552,0.012217304669320583,-0.024434609338641167
1766399510660267500,-40.842732421875,0.019547687843441963,0.010995574295520782,0.028099801391363144
1766399510670277400,-40.83272265625,0.012217304669320583,0.012217304669320583,0.024434609338641167
1766399510680287000,-40.82271313476563,0.012217304669320583,0.015882495790719986,0.021991148591041565
1766399510690388200,-40.81261181640625,0.019547687843441963,0.009773843921720982,0.02932153269648552
1766399510700398000,-40.802601806640624,0.02687807008624077,-0.0012217304902151227,0.03787364438176155
1766399510710408000,-40.792592041015624,0.025656340643763542,-0.015882495790719986,0.05009094998240471
1766399510720417500,-40.78258251953125,0.02076941914856434,-0.030543262138962746,0.04398229718208313
1766399510730457900,-40.77254223632813,0.00733038317412138,-0.036651913076639175,0.015882495790719986
1766399510740467700,-40.7625322265625,-0.0024434609804302454,-0.03787364438176155,0.00366519158706069
1766399510770527500,-40.732472412109374,-0.019547687843441963,-0.0354301854968071,0.025656340643763542
1766399510780598300,-40.722401611328124,-0.015882495790719986,-0.025656340643763542,0.03176499158143997
1766399510790577700,-40.71242236328125,-0.00366519158706069,-0.01710422709584236,0.02932153269648552
1766399510800617700,-40.70238232421875,0.010995574295520782,-0.004886921960860491,0.009773843921720982
1766399510810658000,-40.69234204101563,0.01466076634824276,0.0024434609804302454,-0.018325956538319588
1766399510820668000,-40.68233203125,0.01466076634824276,0.010995574295520782,-0.03787364438176155
1766399510830677800,-40.672322265625,0.01710422709584236,0.021991148591041565,-0.04642575979232788
1766399510840687400,-40.66231274414063,0.013439035043120384,0.028099801391363144,-0.042760565876960754
1766399510870716700,-40.63228344726563,-0.018325956538319588,0.019547687843441963,-0.06841690838336945
1766399510880726500,-40.6222734375,-0.02932153269648552,0.01710422709584236,-0.09040805697441101
1766399510890766800,-40.612233154296874,-0.03298672288656235,0.01710422709584236,-0.10506882518529892
1766399510900776400,-40.6022236328125,-0.03787364438176155,0.015882495790719986,-0.11972958594560623
1766399510910786300,-40.592213623046874,-0.0403171069920063,0.024434609338641167,-0.1612684279680252
1766399510920796200,-40.582203857421874,-0.0354301854968071,0.036651913076639175,-0.2382374405860901
1766399510930836200,-40.57216381835938,-0.018325956538319588,0.05742133408784866,-0.3445279896259308
1766399510940876500,-40.56212353515625,-0.0024434609804302454,0.09285151958465576,-0.47280970215797424
1766399511011097600,-40.49190234375,0.14294247329235077,-0.19303341209888458,-0.5387831330299377
1766399511021107500,-40.481892578125,0.14294247329235077,-0.19303341209888458,-0.5387831330299377
1766399511031117000,-40.47188305664063,0.17470745742321014,-0.2174680233001709,-0.49235737323760986
1766399511041127000,-40.461873046875,0.18936823308467865,-0.22113321721553802,-0.43127086758613586
1766399511051136500,-40.45186352539063,0.17348572611808777,-0.22357667982578278,-0.3335324227809906
1766399511061146400,-40.441853515625,0.1771509200334549,-0.25045475363731384,-0.22357667982578278
1766399511071156200,-40.43184375,0.18081611394882202,-0.2626720666885376,-0.18448130786418915
1766399511091206100,-40.4117939453125,0.18081611394882202,-0.24068090319633484,-0.19303341209888458
1766399511101216000,-40.401783935546874,0.16249015927314758,-0.22357667982578278,-0.17104226350784302
1766399511121235500,-40.3817646484375,0.1258382350206375,-0.16982053220272064,-0.07452555745840073
1766399511131245300,-40.371754638671874,0.10873401165008545,-0.1722639948129654,-0.04398229718208313
1766399511141255000,-40.3617451171875,0.08185594528913498,-0.16249015927314758,-0.05009094998240471
1766399511151295200,-40.35170483398438,0.06230825558304787,-0.14416420459747314,-0.05375614017248154
1766399511161305000,-40.34169482421875,0.03298672288656235,-0.11362093687057495,-0.02321287989616394
1766399511171315000,-40.33168505859375,0.01466076634824276,-0.10018189996480942,0.021991148591041565
1766399511181355000,-40.32164501953125,-0.0012217304902151227,-0.1062905490398407,0.03787364438176155
1766399511191364900,-40.31163525390625,-0.00855211354792118,-0.08674286305904388,0.00855211354792118
1766399511201374700,-40.301625244140624,-0.00733038317412138,-0.05619960278272629,-0.0354301854968071
1766399511211384300,-40.29161572265625,0.004886921960860491,-0.00855211354792118,-0.045204028487205505
1766399511221424600,-40.28157543945313,0.019547687843441963,0.018325956538319588,-0.00366519158706069
1766399511231465000,-40.27153515625,0.010995574295520782,0.030543262138962746,0.015882495790719986
1766399511241505300,-40.26149462890625,-0.009773843921720982,0.06719517707824707,0.019547687843441963
1766399511251576000,-40.251423828125,0.07330382615327835,0.09651670604944229,-0.0708603709936142
1766399511261586000,-40.2414140625,0.06230825558304787,0.11484266817569733,-0.2064724564552307
1766399511271595500,-40.23140454101563,0.036651913076639175,0.12095131725072861,-0.16249015927314758
1766399511281635800,-40.2213642578125,0.10751228034496307,0.11239920556545258,-0.10995574295520782
1766399511321675000,-40.181324951171874,0.11972958594560623,0.09407325088977814,-0.12461651116609573
1766399511331715300,-40.17128466796875,0.12339477986097336,0.08674286305904388,-0.2272418737411499
1766399511341755600,-40.161244384765624,0.12217304855585098,0.07696902006864548,-0.24068090319633484
1766399511361775000,-40.141224853515624,0.1319468915462494,0.00366519158706069,-0.26633724570274353
1766399511371784700,-40.13121533203125,0.12950342893600464,-0.04153883829712868,-0.3323107063770294
1766399511381794600,-40.121205322265624,0.12339477986097336,-0.0708603709936142,-0.3090978264808655
1766399511401875200,-40.101124755859374,0.10995574295520782,-0.04153883829712868,-0.19547687470912933
1766399511411915500,-40.09108447265625,0.09773843735456467,-0.025656340643763542,-0.2272418737411499
1766399511421925000,-40.08107495117188,0.07819075137376785,-0.019547687843441963,-0.24190263450145721
1766399511431935000,-40.07106494140625,0.0659734457731247,-0.015882495790719986,-0.21868975460529327
1766399511442005800,-40.060994140625,0.04398229718208313,-0.012217304669320583,-0.17104226350784302
1766399511452046000,-40.050953857421874,0.012217304669320583,-0.00733038317412138,-0.1270599663257599
1766399511462056000,-40.040944091796874,-0.00733038317412138,0.0024434609804302454,-0.1111774742603302
1766399511472035000,-40.03096484375,-0.02076941914856434,0.042760565876960754,-0.11850785464048386
1766399511482105900,-40.02089404296875,-0.04398229718208313,0.06108652427792549,-0.12828169763088226
1766399511532246300,-39.970753662109374,-0.05009094998240471,0.05742133408784866,-0.03420845419168472
1766399511552265700,-39.950734375,-0.025656340643763542,0.11850785464048386,-0.009773843921720982
1766399511562275600,-39.940724365234374,-0.02321287989616394,0.13072516024112701,-0.00366519158706069
1766399511572285200,-39.93071484375,-0.02076941914856434,0.13072516024112701,0.028099801391363144
1766399511582295000,-39.920705078125,-0.03787364438176155,0.1111774742603302,0.06475171446800232
1766399511602375700,-39.900624267578124,-0.0659734457731247,0.07941248267889023,0.11362093687057495
1766399511622395100,-39.88060498046875,-0.07208210229873657,0.05497787147760391,0.039095375686883926
1766399511632405000,-39.870594970703124,-0.06719517707824707,0.05497787147760391,0.04153883829712868
1766399511642475800,-39.860524169921874,-0.08185594528913498,0.0403171069920063,0.03420845419168472
1766399511652516000,-39.85048388671875,-0.10751228034496307,0.05742133408784866,0.045204028487205505
1766399511662525700,-39.84047436523438,-0.11972958594560623,0.08429940044879913,0.09040805697441101
1766399511672535600,-39.83046435546875,-0.11972958594560623,0.05253441259264946,0.11362093687057495
1766399511682576000,-39.820424072265624,-0.11728613078594208,0.00855211354792118,0.10018189996480942
1766399511692616200,-39.8103837890625,-0.09896016865968704,-0.02687807008624077,0.04642575979232788
1766399511712635600,-39.7903642578125,-0.06475171446800232,-0.05375614017248154,-0.024434609338641167
1766399511742665000,-39.7603349609375,-0.00366519158706069,-0.11239920556545258,-0.05009094998240471
1766399511752674800,-39.7503251953125,0.0403171069920063,-0.11239920556545258,-0.08307767659425735
1766399511762745600,-39.74025439453125,0.06963863968849182,-0.08674286305904388,-0.09773843735456467
1766399511772755200,-39.73024487304688,0.06963863968849182,-0.08674286305904388,-0.09773843735456467
1766399511782765000,-39.72023486328125,0.09407325088977814,-0.05009094998240471,-0.059864792972803116
1766399511792775000,-39.71022509765625,0.13439035415649414,0,0.025656340643763542
1766399511802784500,-39.70021557617188,0.13439035415649414,0,0.025656340643763542
1766399511852894500,-39.65010546875,0.21013765037059784,0.04153883829712868,-0.03420845419168472
1766399511872914000,-39.63008618164063,0.24434609711170197,0.04398229718208313,-0.06352998316287994
1766399511882923800,-39.620076171875,0.24434609711170197,0.04398229718208313,-0.05009094998240471
1766399511892933400,-39.61006665039063,0.25045475363731384,0.06841690838336945,-0.06108652427792549
1766399511902973700,-39.6000263671875,0.2590068578720093,0.06230825558304787,-0.02076941914856434
1766399511912983600,-39.590016357421874,0.2687807083129883,0.051312681287527084,-0.012217304669320583
1766399511923054300,-39.579945556640624,0.2822197377681732,0.030543262138962746,-0.06352998316287994
1766399511953144600,-39.54985546875,0.3066543638706207,-0.00366519158706069,-0.14538592100143433
1766399511973164300,-39.529835693359374,0.31031954288482666,0.01466076634824276,-0.15760323405265808
1766399511983174000,-39.519826171875,0.2919935882091522,0.02932153269648552,-0.1368338167667389
1766399511993183700,-39.509816162109374,0.26022860407829285,0.030543262138962746,-0.10384709388017654
1766399512003193600,-39.499806396484374,0.23457226157188416,0.05375614017248154,-0.1111774742603302
1766399512013234000,-39.48976611328125,0.19303341209888458,0.05742133408784866,-0.0708603709936142
1766399512043263000,-39.45973706054688,0.10995574295520782,0.05864306539297104,-0.08185594528913498
1766399512053303300,-39.44969677734375,0.09529497474431992,0.036651913076639175,-0.09529497474431992
1766399512063313200,-39.439686767578124,0.07208210229873657,0.021991148591041565,-0.06475171446800232
1766399512073323000,-39.429677001953124,0.059864792972803116,-0.004886921960860491,-0.0403171069920063
1766399512083363000,-39.41963696289063,0.04642575979232788,-0.02321287989616394,-0.04153883829712868
1766399512093434000,-39.40956591796875,0.042760565876960754,-0.05009094998240471,-0.03298672288656235
1766399512103443700,-39.39955639648438,0.0354301854968071,-0.07452555745840073,-0.03176499158143997
1766399512113453600,-39.38954638671875,0.024434609338641167,-0.09285151958465576,-0.05497787147760391
1766399512123463200,-39.37953686523438,0.010995574295520782,-0.09773843735456467,-0.07819075137376785
1766399512143543800,-39.35945629882813,0.012217304669320583,-0.10506882518529892,-0.045204028487205505
1766399512153553700,-39.3494462890625,0.006108652334660292,-0.10751228034496307,-0.0354301854968071
1766399512163563300,-39.33943676757813,-0.006108652334660292,-0.09407325088977814,-0.021991148591041565
1766399512173603600,-39.329396484375,-0.018325956538319588,-0.0806342139840126,0.006108652334660292
1766399512183613400,-39.319386474609374,-0.030543262138962746,-0.07452555745840073,0.04153883829712868
1766399512193623300,-39.309376708984374,-0.03176499158143997,-0.05864306539297104,0.05375614017248154
1766399512203663400,-39.29933666992188,-0.019547687843441963,-0.04642575979232788,0.009773843921720982
1766399512213734400,-39.289265625,-0.018325956538319588,-0.03420845419168472,-0.0403171069920063
1766399512223744000,-39.27925610351563,-0.015882495790719986,-0.02687807008624077,-0.0403171069920063
1766399512263813600,-39.239186279296874,-0.028099801391363144,-0.015882495790719986,-0.01466076634824276
1766399512273792800,-39.22920727539063,-0.01710422709584236,-0.01466076634824276,-0.0403171069920063
1766399512283802600,-39.219197265625,-0.012217304669320583,-0.012217304669320583,-0.06963863968849182
1766399512293812500,-39.2091875,-0.006108652334660292,-0.013439035043120384,-0.08307767659425735
1766399512303852800,-39.199147216796874,-0.006108652334660292,-0.004886921960860491,-0.08185594528913498
1766399512313862400,-39.1891376953125,-0.024434609338641167,0.021991148591041565,-0.05864306539297104
1766399512323933200,-39.17906689453125,-0.02687807008624077,0.0403171069920063,-0.013439035043120384
1766399512364002800,-39.1389970703125,-0.012217304669320583,0.015882495790719986,-0.0403171069920063
1766399512374012700,-39.1289873046875,-0.006108652334660292,0.0024434609804302454,-0.07696902006864548
1766399512384083500,-39.11891650390625,-0.010995574295520782,-0.0024434609804302454,-0.0806342139840126
1766399512394093000,-39.10890698242188,-0.0024434609804302454,-0.013439035043120384,-0.04764748737215996
1766399512404103000,-39.09889697265625,0.00366519158706069,-0.015882495790719986,-0.028099801391363144
1766399512414143200,-39.088856689453124,0.0012217304902151227,-0.006108652334660292,-0.039095375686883926
1766399512424183600,-39.07881640625,-0.00855211354792118,0.009773843921720982,-0.02932153269648552
1766399512434162700,-39.06883740234375,-0.02321287989616394,0.019547687843441963,0.00733038317412138
1766399512464192000,-39.03880810546875,-0.05497787147760391,0.04398229718208313,0.00855211354792118
1766399512504261600,-38.99873828125,-0.03298672288656235,0.03298672288656235,-0.04764748737215996
1766399512514240800,-38.98875927734375,-0.03298672288656235,0.03298672288656235,-0.04764748737215996
1766399512534321400,-38.9686787109375,-0.010995574295520782,0.030543262138962746,-0.02687807008624077
1766399512544331300,-38.958668701171874,0.00366519158706069,0.03298672288656235,-0.024434609338641167
1766399512564320300,-38.9386796875,0.03298672288656235,0.030543262138962746,-0.01466076634824276
1766399512574330000,-38.928669921875,0.04886921867728233,0.02321287989616394,-0.01710422709584236
1766399512584339700,-38.91866040039063,0.06475171446800232,0.018325956538319588,-0.04153883829712868
1766399512594349600,-38.908650390625,0.07941248267889023,0.021991148591041565,-0.09162978827953339
1766399512614430200,-38.88856982421875,0.13316862285137177,0.03176499158143997,-0.16004669666290283
1766399512624439800,-38.87856030273438,0.14905111491680145,0.05253441259264946,-0.16249015927314758
1766399512634449700,-38.86855029296875,0.1514945775270462,0.08307767659425735,-0.12095131725072861
1766399512654530300,-38.8484697265625,0.15515977144241333,0.08429940044879913,-0.08796459436416626
1766399512694660900,-38.808339111328124,0.1514945775270462,0.02321287989616394,-0.12950342893600464
1766399512704701200,-38.798298828125,0.1466076523065567,-0.004886921960860491,-0.11239920556545258
1766399512714710800,-38.78828930664063,0.14782938361167908,-0.025656340643763542,-0.12095131725072861
1766399512724751000,-38.778248779296874,0.13927727937698364,-0.028099801391363144,-0.13805554807186127
1766399512734791400,-38.76820849609375,0.13561208546161652,-0.01710422709584236,-0.1270599663257599
1766399512744801300,-38.75819873046875,0.12828169763088226,-0.028099801391363144,-0.09651670604944229
1766399512754811000,-38.74818920898438,0.12095131725072861,-0.045204028487205505,-0.07452555745840073
1766399512774891500,-38.7281083984375,0.1160643994808197,-0.07330382615327835,-0.04642575979232788
1766399512794911000,-38.70808911132813,0.10751228034496307,-0.09040805697441101,0.00855211354792118
1766399512804951300,-38.698048583984374,0.09651670604944229,-0.12217304855585098,-0.009773843921720982
1766399512814991600,-38.68800830078125,0.10506882518529892,-0.14416420459747314,-0.05009094998240471
1766399512825001500,-38.67799853515625,0.1111774742603302,-0.15515977144241333,-0.10995574295520782
1766399512835011000,-38.66798901367188,0.11728613078594208,-0.1612684279680252,-0.1661553531885147
1766399512845021000,-38.65797900390625,0.12339477986097336,-0.15027284622192383,-0.17959438264369965
1766399512855030800,-38.64796923828125,0.1258382350206375,-0.11850785464048386,-0.14782938361167908
1766399512865040400,-38.63795971679688,0.1258382350206375,-0.10506882518529892,-0.11972958594560623
1766399512885121000,-38.61787890625,0.13561208546161652,-0.08429940044879913,-0.10873401165008545
1766399512915150300,-38.587849609375,0.1514945775270462,-0.08429940044879913,-0.20525072515010834
1766399512925221000,-38.57777880859375,0.1466076523065567,-0.07819075137376785,-0.19547687470912933
1766399512945301800,-38.5576982421875,0.12339477986097336,-0.039095375686883926,-0.07696902006864548
1766399512955281000,-38.547718994140624,0.11972958594560623,-0.012217304669320583,-0.06108652427792549
1766399512965290800,-38.537709228515624,0.1062905490398407,0.013439035043120384,-0.06841690838336945
1766399512975331000,-38.5276689453125,0.08796459436416626,0.01466076634824276,-0.05619960278272629
1766399513005421300,-38.49757861328125,0.04764748737215996,-0.010995574295520782,-0.07696902006864548
1766399513015492000,-38.4875078125,0.0403171069920063,-0.006108652334660292,-0.10873401165008545
1766399513025563000,-38.47743701171875,0.036651913076639175,-0.013439035043120384,-0.12217304855585098
1766399513035572700,-38.46742724609375,0.03420845419168472,-0.02076941914856434,-0.12461651116609573
1766399513045582300,-38.45741772460938,0.03298672288656235,-0.025656340643763542,-0.11728613078594208
1766399513055592200,-38.44740771484375,0.039095375686883926,-0.03420845419168472,-0.12339477986097336
1766399513065632500,-38.437367431640624,0.03176499158143997,-0.03787364438176155,-0.11484266817569733
1766399513075642400,-38.427357666015624,0.025656340643763542,-0.04153883829712868,-0.07208210229873657
1766399513085652000,-38.41734814453125,0.02321287989616394,-0.05253441259264946,-0.02687807008624077
1766399513115681300,-38.387318603515624,0.013439035043120384,0.0012217304902151227,0.0024434609804302454
1766399513125691100,-38.377308837890624,0.00366519158706069,0.006108652334660292,0.0403171069920063
1766399513135731500,-38.3672685546875,-0.01710422709584236,0.015882495790719986,0.0659734457731247
1766399513145741000,-38.35725903320313,-0.025656340643763542,0.02932153269648552,0.0806342139840126
1766399513155720400,-38.347279541015624,-0.03298672288656235,0.04886921867728233,0.07452555745840073
1766399513175770400,-38.32722973632813,-0.051312681287527084,0.08307767659425735,0.07208210229873657
1766399513215840000,-38.287159912109374,-0.11728613078594208,0.10384709388017654,0.17104226350784302
1766399513225880300,-38.27711962890625,-0.13561208546161652,0.12461651116609573,0.17837265133857727
1766399513235890000,-38.26711010742188,-0.1514945775270462,0.13316862285137177,0.19058994948863983
1766399513245899800,-38.25710034179688,-0.15760323405265808,0.13805554807186127,0.1966986060142517
1766399513255940000,-38.247059814453124,-0.1612684279680252,0.1514945775270462,0.18936823308467865
1766399513265980400,-38.23701953125,-0.1612684279680252,0.1514945775270462,0.18936823308467865
1766399513275990000,-38.22701000976563,-0.15027284622192383,0.1563815027475357,0.1820378452539444
1766399513286030300,-38.2169697265625,-0.15271630883216858,0.1466076523065567,0.1771509200334549
1766399513306050000,-38.196949951171874,-0.15271630883216858,0.11850785464048386,0.19303341209888458
1766399513316059600,-38.1869404296875,-0.1368338167667389,0.09896016865968704,0.18448130786418915
1766399513326069500,-38.176930419921874,-0.12339477986097336,0.09773843735456467,0.15271630883216858
1766399513336079400,-38.166920654296874,-0.1014036312699318,0.09651670604944229,0.14294247329235077
1766399513346089000,-38.1569111328125,-0.09407325088977814,0.09407325088977814,0.15027284622192383
1766399513356098800,-38.146901123046874,-0.08674286305904388,0.09285151958465576,0.16004669666290283
1766399513366108700,-38.136891357421874,-0.0757472887635231,0.09162978827953339,0.15271630883216858
1766399513376118300,-38.1268818359375,-0.05864306539297104,0.08307767659425735,0.1466076523065567
1766399513386128100,-38.116871826171874,-0.05253441259264946,0.05009094998240471,0.10995574295520782
1766399513426136600,-38.07686352539063,-0.05742133408784866,0.03298672288656235,0.051312681287527084
1766399513436146400,-38.066853515625,-0.05375614017248154,0.05253441259264946,0.0708603709936142
1766399513446156000,-38.05684399414063,-0.05619960278272629,0.05742133408784866,0.07208210229873657
1766399513456166000,-38.04683422851563,-0.05742133408784866,0.051312681287527084,0.0659734457731247
1766399513466206200,-38.036793701171874,-0.06475171446800232,0.05375614017248154,0.06230825558304787
1766399513476185300,-38.02681469726563,-0.059864792972803116,0.04398229718208313,0.06719517707824707
1766399513486195200,-38.0168046875,-0.05742133408784866,0.0403171069920063,0.059864792972803116
1766399513526234400,-37.976765625,-0.03787364438176155,0.00366519158706069,0.021991148591041565
1766399513536274700,-37.966725341796874,-0.05253441259264946,-0.0024434609804302454,0.024434609338641167
1766399513546284300,-37.9567158203125,-0.05497787147760391,-0.019547687843441963,0.05864306539297104
1766399513556294100,-37.946705810546874,-0.06475171446800232,-0.010995574295520782,0.07696902006864548
1766399513566334500,-37.93666552734375,-0.05375614017248154,0.00366519158706069,0.0708603709936142
1766399513576344000,-37.92665600585938,-0.051312681287527084,0,0.04642575979232788
1766399513586354000,-37.91664599609375,-0.05375614017248154,-0.004886921960860491,0.02076941914856434
1766399513626423600,-37.876576416015624,-0.03298672288656235,0.02687807008624077,-0.00366519158706069
1766399513636433200,-37.86656689453125,-0.02076941914856434,0.02687807008624077,0.025656340643763542
1766399513646412500,-37.85658740234375,-0.006108652334660292,0.015882495790719986,0.012217304669320583
1766399513656422100,-37.84657788085938,0.006108652334660292,0.006108652334660292,-0.04886921867728233
1766399513666432000,-37.83656811523438,0.025656340643763542,-0.00733038317412138,-0.09162978827953339
1766399513676441900,-37.82655810546875,0.02687807008624077,-0.025656340643763542,-0.1111774742603302
1766399513686451500,-37.81654858398438,0.045204028487205505,-0.051312681287527084,-0.1514945775270462
1766399513696461300,-37.80653857421875,0.05497787147760391,-0.07819075137376785,-0.21624629199504852
1766399513716450300,-37.7865498046875,0.04886921867728233,-0.05253441259264946,-0.14416420459747314
1766399513736500500,-37.76649951171875,0.0403171069920063,-0.07330382615327835,-0.08552113175392151
1766399513746510000,-37.75648999023438,0.04153883829712868,-0.09040805697441101,-0.12828169763088226
1766399513756520000,-37.74647998046875,0.04153883829712868,-0.10506882518529892,-0.17104226350784302
1766399513766529800,-37.73647021484375,0.04764748737215996,-0.1258382350206375,-0.2064724564552307
1766399513776569900,-37.72643017578125,0.05375614017248154,-0.14538592100143433,-0.2174680233001709
1766399513786610200,-37.71638989257813,0.036651913076639175,-0.1368338167667389,-0.21502456068992615
1766399513836720000,-37.66627978515625,-0.010995574295520782,-0.09285151958465576,-0.13439035415649414
1766399513846730000,-37.65627001953125,-0.0012217304902151227,-0.09529497474431992,-0.19914206862449646
1766399513856739600,-37.64626049804688,0.0024434609804302454,-0.08796459436416626,-0.21380282938480377
1766399513866749400,-37.63625048828125,-0.012217304669320583,-0.0659734457731247,-0.16371189057826996
1766399513876759300,-37.62624072265625,-0.025656340643763542,-0.039095375686883926,-0.08796459436416626
1766399513886799400,-37.61620068359375,-0.028099801391363144,-0.02321287989616394,-0.045204028487205505
1766399513896809200,-37.606190673828124,-0.0354301854968071,-0.010995574295520782,-0.0757472887635231
1766399513926808000,-37.57619189453125,-0.05253441259264946,0.025656340643763542,-0.17837265133857727
1766399513936848400,-37.566151611328124,-0.05497787147760391,0.024434609338641167,-0.12950342893600464
1766399513946888700,-37.556111328125,-0.05375614017248154,0.039095375686883926,-0.09529497474431992
1766399513956898300,-37.54610180664063,-0.04764748737215996,0.06352998316287994,-0.0659734457731247
1766399513966877700,-37.536122314453124,-0.04764748737215996,0.06352998316287994,-0.0659734457731247
1766399513976917800,-37.52608227539063,-0.04153883829712868,0.06841690838336945,-0.039095375686883926
1766399513986927600,-37.516072265625,-0.042760565876960754,0.07452555745840073,-0.04642575979232788
1766399513996937500,-37.5060625,-0.0403171069920063,0.07696902006864548,-0.05864306539297104
1766399514006916600,-37.49608349609375,-0.03298672288656235,0.07452555745840073,-0.05864306539297104
1766399514036976400,-37.46602368164063,-0.028099801391363144,0.06719517707824707,0.009773843921720982
1766399514046955800,-37.456044189453124,-0.02932153269648552,0.059864792972803116,-0.00366519158706069
1766399514057026600,-37.445973388671874,-0.024434609338641167,0.05619960278272629,-0.02321287989616394
1766399514067067000,-37.43593310546875,-0.028099801391363144,0.04764748737215996,-0.030543262138962746
1766399514077076500,-37.42592358398438,-0.02932153269648552,0.0403171069920063,-0.03298672288656235
1766399514087056000,-37.415944091796874,-0.024434609338641167,0.030543262138962746,-0.051312681287527084
1766399514097126700,-37.405873291015624,-0.015882495790719986,0.015882495790719986,-0.0757472887635231
1766399514107136300,-37.39586376953125,-0.009773843921720982,0.01466076634824276,-0.08185594528913498
1766399514137257200,-37.36574267578125,0.018325956538319588,0.025656340643763542,-0.02687807008624077
1766399514147267000,-37.35573291015625,0.028099801391363144,0.025656340643763542,-0.03176499158143997
1766399514157246200,-37.34575390625,0.0354301854968071,0.00855211354792118,-0.04886921867728233
1766399514167256000,-37.335743896484374,0.045204028487205505,-0.00733038317412138,-0.06475171446800232
1766399514177296400,-37.32570361328125,0.04398229718208313,-0.012217304669320583,-0.07330382615327835
1766399514187306000,-37.31569409179688,0.04398229718208313,-0.018325956538319588,-0.06475171446800232
1766399514197315800,-37.30568408203125,0.04398229718208313,-0.02321287989616394,-0.04398229718208313
1766399514207295000,-37.295705078125,0.03298672288656235,-0.025656340643763542,-0.024434609338641167
1766399514217335300,-37.28566479492188,0.02076941914856434,-0.01710422709584236,-0.025656340643763542
1766399514237355000,-37.26564501953125,0.012217304669320583,-0.00733038317412138,-0.021991148591041565
1766399514247334100,-37.255665771484374,0.00366519158706069,-0.00733038317412138,-0.021991148591041565
1766399514267384000,-37.23561596679688,0.0012217304902151227,-0.00855211354792118,-0.018325956538319588
1766399514277394000,-37.22560620117188,0.0012217304902151227,-0.004886921960860491,-0.06841690838336945
1766399514287373300,-37.215626708984374,-0.0024434609804302454,-0.006108652334660292,-0.08429940044879913
1766399514297413400,-37.20558666992188,0.004886921960860491,-0.01466076634824276,-0.05864306539297104
1766399514307423200,-37.19557666015625,0.0024434609804302454,-0.015882495790719986,-0.0354301854968071
1766399514317433000,-37.18556689453125,0.00366519158706069,-0.02076941914856434,-0.030543262138962746
1766399514327442700,-37.17555737304688,0.013439035043120384,-0.024434609338641167,-0.030543262138962746
1766399514357472000,-37.14552807617188,0.013439035043120384,-0.013439035043120384,-0.0403171069920063
1766399514367481900,-37.13551806640625,0.013439035043120384,0.00855211354792118,-0.012217304669320583
1766399514377522200,-37.125477783203124,0.02076941914856434,0.015882495790719986,0.010995574295520782
1766399514387562500,-37.1154375,0.01710422709584236,0.012217304669320583,0.013439035043120384
1766399514397572000,-37.10542797851563,0.015882495790719986,0.02321287989616394,0.01466076634824276
1766399514407582000,-37.09541796875,0.021991148591041565,0.019547687843441963,0.025656340643763542
1766399514417591800,-37.085408203125,0.018325956538319588,0.012217304669320583,0.030543262138962746
1766399514427601400,-37.07539868164063,0.01466076634824276,0.013439035043120384,0.015882495790719986
1766399514437611300,-37.065388671875,0.015882495790719986,0.0012217304902151227,-0.004886921960860491
1766399514457692000,-37.04530810546875,0.010995574295520782,-0.03176499158143997,-0.04886921867728233
1766399514467701500,-37.03529858398438,0.00733038317412138,-0.02321287989616394,-0.04642575979232788
1766399514497792000,-37.0052080078125,-0.00733038317412138,0.059864792972803116,0.00366519158706069
1766399514507801600,-36.99519848632813,-0.00733038317412138,0.059864792972803116,0.021991148591041565
1766399514517781000,-36.985218994140624,-0.012217304669320583,0.07208210229873657,0.039095375686883926
1766399514527760100,-36.97523999023438,-0.01466076634824276,0.05375614017248154,0.05619960278272629
1766399514537800400,-36.965199462890624,-0.021991148591041565,0.06719517707824707,0.07208210229873657
1766399514567829800,-36.935170166015624,-0.03176499158143997,0.051312681287527084,0.10995574295520782
1766399514577900500,-36.925099365234374,-0.02076941914856434,0.025656340643763542,0.08796459436416626
1766399514587940900,-36.91505908203125,-0.019547687843441963,0.030543262138962746,0.04642575979232788
1766399514597950500,-36.90504956054688,-0.018325956538319588,0.01466076634824276,0.02687807008624077
1766399514607960300,-36.89503979492188,-0.013439035043120384,0.004886921960860491,0.039095375686883926
1766399514618000600,-36.884999267578124,-0.00366519158706069,0.00855211354792118,0.05619960278272629
1766399514628041000,-36.874958984375,0.009773843921720982,-0.00366519158706069,0.036651913076639175
1766399514638050800,-36.86494921875,0.00855211354792118,-0.00366519158706069,-0.0012217304902151227
1766399514658070300,-36.8449296875,-0.0024434609804302454,0.006108652334660292,0.01710422709584236
1766399514668079900,-36.83492016601563,-0.012217304669320583,0.02932153269648552,0.036651913076639175
1766399514678089700,-36.82491015625,-0.013439035043120384,0.036651913076639175,0.05742133408784866
1766399514688099600,-36.814900390625,-0.013439035043120384,0.036651913076639175,0.05742133408784866
1766399514698109200,-36.80489086914063,-0.01710422709584236,0.07208210229873657,0.11728613078594208
1766399514708149500,-36.7948505859375,-0.01710422709584236,0.07208210229873657,0.11728613078594208
1766399514718159400,-36.784840576171874,-0.010995574295520782,0.05742133408784866,0.1111774742603302
1766399514728169200,-36.774830810546874,-0.021991148591041565,0.05375614017248154,0.07208210229873657
1766399514738240000,-36.764760009765624,-0.024434609338641167,0.04642575979232788,0.05864306539297104
1766399514788411000,-36.714589111328124,-0.028099801391363144,0.05253441259264946,0.09896016865968704
1766399514798420500,-36.70457958984375,-0.03298672288656235,0.039095375686883926,0.10384709388017654
1766399514808460800,-36.69453930664063,-0.03298672288656235,0.015882495790719986,0.09162978827953339
1766399514818501000,-36.684498779296874,-0.03176499158143997,0.012217304669320583,0.0659734457731247
1766399514828511000,-36.674489013671874,-0.019547687843441963,0.01466076634824276,0.05009094998240471
1766399514838520600,-36.6644794921875,-0.010995574295520782,0.015882495790719986,0.05864306539297104
1766399514848561000,-36.65443920898438,-0.004886921960860491,0.0354301854968071,0.08796459436416626
1766399514888691500,-36.61430859375,-0.013439035043120384,-0.004886921960860491,0.0708603709936142
1766399514898701300,-36.604298583984374,-0.010995574295520782,-0.00733038317412138,0.0659734457731247
1766399514908741600,-36.59425830078125,-0.019547687843441963,-0.00733038317412138,0.04153883829712868
1766399514918720800,-36.584279296875,-0.01710422709584236,0.01710422709584236,0.02321287989616394
1766399514928761000,-36.57423901367188,-0.01710422709584236,0.0354301854968071,0.0354301854968071
1766399514938771000,-36.56422900390625,-0.028099801391363144,0.05742133408784866,0.06108652427792549
1766399514948780500,-36.55421948242188,-0.045204028487205505,0.06719517707824707,0.08918632566928864
1766399514998890500,-36.50410961914063,-0.11972958594560623,0.1160643994808197,0.09651670604944229
1766399515008961300,-36.49403881835938,-0.13072516024112701,0.12095131725072861,0.042760565876960754
1766399515018971100,-36.48402880859375,-0.14294247329235077,0.14416420459747314,0.004886921960860491
1766399515028980700,-36.47401928710938,-0.15027284622192383,0.1319468915462494,0.015882495790719986
1766399515038990600,-36.46400952148438,-0.16493362188339233,0.11850785464048386,0.036651913076639175
1766399515049000400,-36.45399951171875,-0.17348572611808777,0.11972958594560623,0.04886921867728233
1766399515059010000,-36.44398999023438,-0.17837265133857727,0.1111774742603302,0.06230825558304787
1766399515099110100,-36.40388989257813,-0.2370157092809677,0.045204028487205505,0.12461651116609573
1766399515109120000,-36.3938798828125,-0.24068090319633484,0.00855211354792118,0.11362093687057495
1766399515119129900,-36.3838701171875,-0.2382374405860901,-0.028099801391363144,0.07208210229873657
1766399515129170200,-36.373829833984374,-0.2382374405860901,-0.05253441259264946,0.02932153269648552
1766399515139179800,-36.3638203125,-0.23945917189121246,-0.07208210229873657,0.036651913076639175
1766399515149189600,-36.353810302734374,-0.2431243658065796,-0.08674286305904388,0.07696902006864548
1766399515189289700,-36.313710205078124,-0.20891591906547546,-0.16493362188339233,0.018325956538319588
1766399515199299600,-36.303700439453124,-0.19058994948863983,-0.1820378452539444,0.013439035043120384
1766399515209309200,-36.29369091796875,-0.16737708449363708,-0.18936823308467865,0.006108652334660292
1766399515219319000,-36.283680908203124,-0.14538592100143433,-0.18325957655906677,0.006108652334660292
1766399515229328600,-36.27367138671875,-0.11728613078594208,-0.1771509200334549,0.00855211354792118
1766399515239338500,-36.26366162109375,-0.09407325088977814,-0.16737708449363708,0.00366519158706069
1766399515249378800,-36.25362109375,-0.07208210229873657,-0.16371189057826996,0.009773843921720982
1766399515299397000,-36.203602783203124,0.04398229718208313,-0.1514945775270462,-0.02932153269648552
1766399515309407000,-36.193593017578124,0.07208210229873657,-0.13316862285137177,-0.03787364438176155
1766399515319416600,-36.18358349609375,0.09529497474431992,-0.10262536257505417,-0.01710422709584236
1766399515329426400,-36.173573486328124,0.10873401165008545,-0.07208210229873657,0.0024434609804302454
1766399515339436300,-36.163563720703124,0.11362093687057495,-0.04886921867728233,0.01710422709584236
1766399515349446000,-36.15355419921875,0.1111774742603302,-0.02687807008624077,0.0354301854968071
1766399515359425300,-36.14357470703125,0.11484266817569733,-0.00855211354792118,0.042760565876960754
1766399515399494700,-36.10350537109375,0.07941248267889023,0.0806342139840126,0.21013765037059784
1766399515419544800,-36.083455078125,-0.02932153269648552,0.013439035043120384,0.3628539443016052
1766399515429554700,-36.0734453125,-0.02932153269648552,0.013439035043120384,0.3628539443016052
1766399515439564300,-36.06343579101563,-0.06108652427792549,0.04886921867728233,0.11972958594560623
1766399515449574100,-36.05342578125,0.013439035043120384,0.0757472887635231,-0.09773843735456467
1766399515459584000,-36.043416015625,0.07452555745840073,0.0403171069920063,-0.1111774742603302
1766399515469654800,-36.03334521484375,0.11484266817569733,0.06963863968849182,-0.09040805697441101
1766399515499775500,-36.003224609375,0.2638937830924988,0.06841690838336945,0.18325957655906677
1766399515509815800,-35.99318408203125,0.23945917189121246,0.07452555745840073,0.11484266817569733
1766399515519825700,-35.98317431640625,0.13439035415649414,0.08918632566928864,0.0012217304902151227
1766399515529835300,-35.97316479492188,0.012217304669320583,0.08796459436416626,-0.07941248267889023
1766399515539845000,-35.96315478515625,-0.07208210229873657,0.06719517707824707,-0.13072516024112701
1766399515549855000,-35.95314501953125,-0.07452555745840073,0.04764748737215996,-0.12461651116609573
1766399515559864600,-35.94313549804688,-0.0806342139840126,0.024434609338641167,-0.09285151958465576
1766399515569874400,-35.93312548828125,-0.039095375686883926,0.02687807008624077,-0.030543262138962746
1766399515589894000,-35.91310620117188,-0.0757472887635231,0.025656340643763542,0.2577851414680481
1766399515629963500,-35.873036376953124,0.1368338167667389,-0.05864306539297104,0.4398229718208313
1766399515639973400,-35.863026611328124,0.15027284622192383,0.004886921960860491,0.2785545587539673
1766399515650013700,-35.852986328125,0.09407325088977814,0.02076941914856434,0.10995574295520782
1766399515660023300,-35.84297680664063,0.1062905490398407,0.06719517707824707,0.0024434609804302454
1766399515700153900,-35.80284619140625,0.021991148591041565,-0.025656340643763542,0.304210901260376
1766399515710163700,-35.792836181640624,0.042760565876960754,-0.06475171446800232,0.32498031854629517
1766399515720173600,-35.782826416015624,0.06841690838336945,-0.0708603709936142,0.15027284622192383
1766399515730214000,-35.7727861328125,0.09773843735456467,-0.05619960278272629,-0.0708603709936142
1766399515740284700,-35.76271533203125,0.08796459436416626,-0.0403171069920063,-0.15882496535778046
1766399515750324700,-35.75267529296875,0.04398229718208313,-0.0403171069920063,-0.10018189996480942
1766399515760334600,-35.74266552734375,0.006108652334660292,-0.051312681287527084,-0.021991148591041565
1766399515770344400,-35.732655517578124,-0.02687807008624077,-0.06230825558304787,0.03787364438176155
1766399515810444500,-35.692555419921874,-0.04642575979232788,-0.06352998316287994,0.07696902006864548
1766399515820454100,-35.6825458984375,-0.03176499158143997,-0.06352998316287994,0.08185594528913498
1766399515830464000,-35.672535888671874,-0.021991148591041565,-0.051312681287527084,0.0659734457731247
1766399515840473900,-35.662526123046874,-0.02932153269648552,-0.04153883829712868,0.0354301854968071
1766399515850483500,-35.6525166015625,-0.02932153269648552,-0.03298672288656235,0.009773843921720982
1766399515860523800,-35.64247631835938,-0.03420845419168472,-0.012217304669320583,0.00733038317412138
1766399515870594600,-35.63240551757813,-0.03420845419168472,0.006108652334660292,0.009773843921720982
1766399515880604400,-35.6223955078125,-0.039095375686883926,0.028099801391363144,0.021991148591041565
1766399515900624000,-35.60237622070313,-0.05497787147760391,0.030543262138962746,0.03176499158143997
1766399515920674000,-35.582325927734374,-0.05375614017248154,0.0024434609804302454,0.02687807008624077
1766399515930714400,-35.57228564453125,-0.059864792972803116,-0.01466076634824276,0.025656340643763542
1766399515940724000,-35.56227612304688,-0.06841690838336945,-0.025656340643763542,0.018325956538319588
1766399515950794800,-35.55220532226563,-0.06963863968849182,-0.0354301854968071,-0.019547687843441963
1766399515960774100,-35.542225830078124,-0.059864792972803116,-0.02687807008624077,-0.06963863968849182
1766399515970814500,-35.532185546875,-0.05864306539297104,-0.012217304669320583,-0.06108652427792549
1766399515980824000,-35.52217602539063,-0.059864792972803116,-0.010995574295520782,-0.03787364438176155
1766399516020893700,-35.482106201171874,-0.01710422709584236,-0.013439035043120384,0.006108652334660292
1766399516030903600,-35.472096435546874,-0.012217304669320583,0.00366519158706069,-0.00855211354792118
1766399516040913200,-35.4620869140625,0.00366519158706069,0.004886921960860491,-0.0024434609804302454
1766399516050923000,-35.452076904296874,0.01466076634824276,0.0012217304902151227,0.01710422709584236
1766399516060993800,-35.442006103515624,0.012217304669320583,0.0012217304902151227,0.009773843921720982
1766399516071034000,-35.4319658203125,0,0.015882495790719986,0
1766399516081044000,-35.4219560546875,-0.00733038317412138,0.03420845419168472,-0.02076941914856434
1766399516091053600,-35.41194653320313,-0.009773843921720982,0.04642575979232788,-0.05619960278272629
1766399516121144000,-35.38185595703125,0.02076941914856434,0.06108652427792549,-0.04642575979232788
1766399516131153700,-35.37184643554688,0.0403171069920063,0.06230825558304787,-0.02687807008624077
1766399516141163500,-35.36183642578125,0.04153883829712868,0.04764748737215996,-0.01710422709584236
1766399516151173000,-35.35182690429688,0.036651913076639175,0.03787364438176155,-0.012217304669320583
1766399516161183000,-35.34181713867188,0.02687807008624077,0.036651913076639175,-0.019547687843441963
1766399516171192800,-35.33180712890625,0.02687807008624077,0.036651913076639175,-0.019547687843441963
1766399516181233200,-35.321766845703124,0.01466076634824276,0.02932153269648552,-0.036651913076639175
1766399516191242800,-35.31175732421875,0.00366519158706069,0.028099801391363144,-0.03787364438176155
1766399516231342800,-35.2716572265625,0.009773843921720982,-0.00855211354792118,-0.0354301854968071
1766399516241383200,-35.26161694335938,0.013439035043120384,-0.010995574295520782,-0.0012217304902151227
1766399516251423500,-35.251576416015624,0.006108652334660292,0,0.030543262138962746
1766399516261433300,-35.241566650390624,0.00366519158706069,-0.0012217304902151227,0.024434609338641167
1766399516271443000,-35.23155712890625,0.01710422709584236,-0.004886921960860491,0.02076941914856434
1766399516281483300,-35.22151684570313,0.01466076634824276,0,0.009773843921720982
1766399516291523600,-35.211476318359374,0.00855211354792118,-0.0012217304902151227,-0.01466076634824276
1766399516331593200,-35.17140673828125,0.02076941914856434,0.00366519158706069,-0.010995574295520782
1766399516341602800,-35.16139721679688,0.02076941914856434,0.024434609338641167,-0.00855211354792118
1766399516351612700,-35.15138720703125,0.018325956538319588,0.02076941914856434,-0.00366519158706069
1766399516361622500,-35.14137744140625,0.021991148591041565,0.02076941914856434,-0.010995574295520782
1766399516371662800,-35.131337158203124,0.028099801391363144,0.025656340643763542,-0.0012217304902151227
1766399516381703000,-35.12129711914063,0.03298672288656235,0.02321287989616394,0.00366519158706069
1766399516391743200,-35.1112568359375,0.024434609338641167,0.021991148591041565,-0.009773843921720982
1766399516401753000,-35.101246826171874,0.013439035043120384,0.02321287989616394,-0.028099801391363144
1766399516431812900,-35.07118725585938,0.0024434609804302454,0.02932153269648552,-0.06108652427792549
1766399516441822700,-35.06117724609375,0.00366519158706069,0.03176499158143997,-0.06475171446800232
1766399516451832300,-35.05116772460938,-0.0012217304902151227,0.021991148591041565,-0.051312681287527084
1766399516461872600,-35.04112744140625,-0.00366519158706069,0.013439035043120384,-0.042760565876960754
1766399516471913000,-35.03108715820313,-0.0012217304902151227,0.00855211354792118,-0.036651913076639175
1766399516481922800,-35.0210771484375,0.00366519158706069,-0.009773843921720982,-0.024434609338641167
1766399516491932400,-35.01106762695313,0.006108652334660292,-0.021991148591041565,-0.01466076634824276
1766399516501972700,-35.00102734375,0,-0.024434609338641167,-0.018325956538319588
1766399516552143600,-34.9508564453125,-0.00855211354792118,-0.01710422709584236,-0.02932153269648552
1766399516562153500,-34.940846435546874,-0.009773843921720982,-0.024434609338641167,-0.00855211354792118
1766399516572193800,-34.93080615234375,-0.0024434609804302454,-0.02321287989616394,0.0012217304902151227
1766399516582203400,-34.92079663085938,-0.012217304669320583,-0.01710422709584236,-0.00733038317412138
1766399516592213200,-34.91078686523438,-0.015882495790719986,-0.02076941914856434,-0.013439035043120384
1766399516602223000,-34.90077685546875,-0.00366519158706069,-0.019547687843441963,-0.036651913076639175
1766399516612263400,-34.890736572265624,-0.00366519158706069,-0.00855211354792118,-0.05619960278272629
1766399516632283000,-34.870717041015624,-0.00855211354792118,-0.006108652334660292,-0.024434609338641167
1766399516652332800,-34.85066723632813,0.0012217304902151227,-0.0024434609804302454,-0.04153883829712868
1766399516662373000,-34.840626953125,-0.004886921960860491,-0.004886921960860491,-0.07452555745840073
1766399516672383000,-34.830616943359374,0.0012217304902151227,-0.010995574295520782,-0.08185594528913498
1766399516682423300,-34.82057666015625,0.00733038317412138,-0.019547687843441963,-0.05619960278272629
1766399516692463600,-34.810536376953124,0.006108652334660292,-0.019547687843441963,-0.036651913076639175
1766399516702534400,-34.800465576171874,-0.010995574295520782,-0.021991148591041565,-0.025656340643763542
1766399516712574700,-34.79042529296875,-0.01466076634824276,-0.018325956538319588,-0.019547687843441963
1766399516732624600,-34.770375244140624,0.006108652334660292,-0.019547687843441963,-0.006108652334660292
1766399516782734600,-34.720265380859374,-0.0024434609804302454,-0.012217304669320583,-0.015882495790719986
1766399516792775000,-34.71022509765625,0.0012217304902151227,-0.010995574295520782,-0.018325956538319588
1766399516802754000,-34.700245849609374,-0.004886921960860491,0,-0.019547687843441963
1766399516812764000,-34.690236083984374,-0.019547687843441963,-0.0012217304902151227,-0.028099801391363144
1766399516822773500,-34.6802265625,-0.02687807008624077,-0.00733038317412138,-0.04398229718208313
1766399516852802800,-34.650197265625,0,0.00733038317412138,-0.0354301854968071
1766399516862873600,-34.64012646484375,0.0012217304902151227,0.015882495790719986,-0.03298672288656235
1766399516872883500,-34.630116455078124,-0.0012217304902151227,0.01710422709584236,-0.03420845419168472
1766399516882923800,-34.620076171875,-0.0012217304902151227,0.013439035043120384,-0.039095375686883926
1766399516892964000,-34.610035888671874,-0.0012217304902151227,0.021991148591041565,-0.04764748737215996
1766399516902973700,-34.6000263671875,-0.0024434609804302454,0.018325956538319588,-0.05497787147760391
1766399516912983600,-34.590016357421874,0.004886921960860491,0.030543262138962746,-0.02321287989616394
1766399516922993400,-34.580006591796874,0.010995574295520782,0.039095375686883926,0.004886921960860491
1766399516933033500,-34.56996655273438,0.010995574295520782,0.039095375686883926,0.004886921960860491
1766399516953053200,-34.54994677734375,0.00733038317412138,0.051312681287527084,-0.004886921960860491
1766399516973072600,-34.52992724609375,0.00366519158706069,0.05253441259264946,-0.02932153269648552
1766399516983082500,-34.51991748046875,0.006108652334660292,0.042760565876960754,-0.06352998316287994
1766399516993092000,-34.50990795898438,0.013439035043120384,0.03298672288656235,-0.11362093687057495
1766399517003102000,-34.49989794921875,0.03787364438176155,0.01710422709584236,-0.16859880089759827
1766399517013111800,-34.48988818359375,0.028099801391363144,0.02076941914856434,-0.19303341209888458
1766399517023152000,-34.479847900390624,0.03176499158143997,0.02321287989616394,-0.24923302233219147
1766399517033161700,-34.46983837890625,0.07819075137376785,0.03787364438176155,-0.49235737323760986
1766399517043141000,-34.45985888671875,0.1111774742603302,0.018325956538319588,-0.37751471996307373
1766399517053212000,-34.4497880859375,0.013439035043120384,-0.04153883829712868,0.00733038317412138
1766399517063252200,-34.439747802734374,0.0012217304902151227,-0.05864306539297104,0.24556782841682434
1766399517073261800,-34.42973828125,-0.01466076634824276,-0.01710422709584236,0.18081611394882202
1766399517083271700,-34.419728271484374,-0.013439035043120384,0.012217304669320583,0.0024434609804302454
1766399517093312000,-34.40968798828125,-0.004886921960860491,0.03298672288656235,-0.05253441259264946
1766399517103321600,-34.39967846679688,0,0.05619960278272629,0.02932153269648552
1766399517113331500,-34.38966845703125,0.015882495790719986,0.042760565876960754,0.07330382615327835
1766399517123341300,-34.37965869140625,0.03787364438176155,0.019547687843441963,0.018325956538319588
1766399517133351000,-34.36964916992188,0.07330382615327835,-0.028099801391363144,-0.04886921867728233
1766399517193409500,-34.30959057617188,0.32009339332580566,-0.384845107793808,-0.24923302233219147
1766399517203419400,-34.29958056640625,0.37262779474258423,-0.4386012554168701,-0.3029891550540924
1766399517213429000,-34.28957104492188,0.4300491213798523,-0.4899139404296875,-0.38728857040405273
1766399517223438800,-34.27956103515625,0.4801400899887085,-0.5461135506629944,-0.5009095072746277
1766399517233448700,-34.26955126953125,0.5363397002220154,-0.5974262356758118,-0.6047565937042236
1766399517243427800,-34.259572265625,0.5754350423812866,-0.646295428276062,-0.7232644557952881
1766399517253407200,-34.2495927734375,0.6340781450271606,-0.7159340381622314,-0.9065240025520325
1766399517283528000,-34.21947216796875,0.6976081132888794,-0.6414085030555725,-0.96883225440979
1766399517293568300,-34.209431640625,0.6805039048194885,-0.6230825781822205,-0.8454375267028809
1766399517303608600,-34.199391357421874,0.6768386960029602,-0.6157521605491638,-0.789237916469574
1766399517313649000,-34.18935107421875,0.6475171446800232,-0.5742133259773254,-0.779464066028595
1766399517323658500,-34.17934155273438,0.608421802520752,-0.475253164768219,-0.7049384713172913
1766399517333698800,-34.16930126953125,0.5803219676017761,-0.4056145250797272,-0.5338962078094482
1766399517343769600,-34.15923046875,0.5497786998748779,-0.3689626157283783,-0.4105014503002167
1766399517393910000,-34.10909008789063,0.23945917189121246,0.04642575979232788,-0.19914206862449646
1766399517403920000,-34.099080078125,0.20525072515010834,0.19425514340400696,-0.17348572611808777
1766399517413960200,-34.089039794921874,0.19792033731937408,0.29077184200286865,-0.20402899384498596
1766399517424000500,-34.07899951171875,0.17348572611808777,0.3481931984424591,-0.2675589919090271
1766399517434010000,-34.06898999023438,0.2064724564552307,0.31520646810531616,-0.24190263450145721
1766399517444020000,-34.05897998046875,0.1918116807937622,0.3066543638706207,-0.2321287989616394
1766399517454029600,-34.04897045898438,0.19058994948863983,0.2773328125476837,-0.15882496535778046
1766399517484059000,-34.01894116210938,0.1869247704744339,0.2028072625398636,-0.021991148591041565
1766399517494068700,-34.00893115234375,0.16982053220272064,0.15271630883216858,0.06108652427792549
1766399517504078600,-33.99892138671875,0.12217304855585098,0.07941248267889023,0.14782938361167908
1766399517514088200,-33.98891186523438,0.10506882518529892,0.02076941914856434,0.17837265133857727
1766399517524098000,-33.97890185546875,0.09529497474431992,-0.02076941914856434,0.09896016865968704
1766399517534108000,-33.96889208984375,0.08552113175392151,-0.00855211354792118,0
1766399517544148200,-33.958851806640624,0.08429940044879913,-0.0012217304902151227,0.02932153269648552
1766399517554219000,-33.948781005859374,0.05375614017248154,-0.02076941914856434,0.13927727937698364
1766399517574269000,-33.92873095703125,0.024434609338641167,-0.08307767659425735,-0.010995574295520782
1766399517584339700,-33.91866040039063,0.036651913076639175,-0.036651913076639175,-0.05619960278272629
1766399517594380000,-33.908619873046874,0.05864306539297104,-0.021991148591041565,0.10995574295520782
1766399517604420400,-33.89857958984375,0.03298672288656235,-0.01710422709584236,0.26022860407829285
1766399517614430200,-33.88856982421875,0.03298672288656235,-0.0012217304902151227,0.2541199326515198
1766399517624470300,-33.87852978515625,0.02932153269648552,0.015882495790719986,0.1319468915462494
1766399517634541000,-33.868458984375,0.012217304669320583,0.01710422709584236,0
1766399517644551000,-33.858448974609374,-0.004886921960860491,0,-0.05497787147760391
1766399517654560800,-33.848439208984374,-0.030543262138962746,0.0024434609804302454,0.01710422709584236
1766399517664570400,-33.8384296875,-0.05253441259264946,0.013439035043120384,0.16982053220272064
1766399517704609500,-33.798390380859374,-0.06719517707824707,-0.02076941914856434,0.20036379992961884
1766399517714619400,-33.788380615234374,-0.06719517707824707,-0.02076941914856434,0.20036379992961884
1766399517724690200,-33.778309814453124,-0.08307767659425735,-0.03176499158143997,0.14782938361167908
1766399517734699800,-33.76830029296875,-0.09162978827953339,-0.04153883829712868,0.09162978827953339
1766399517744740000,-33.75826000976563,-0.11362093687057495,-0.036651913076639175,0.07941248267889023
1766399517754750000,-33.74825,-0.11972958594560623,-0.03176499158143997,0.11239920556545258
1766399517764759600,-33.73824047851563,-0.12950342893600464,-0.0354301854968071,0.13072516024112701
1766399517774800000,-33.7282001953125,-0.1270599663257599,-0.03420845419168472,0.09529497474431992
1766399517794819600,-33.708180419921874,-0.09407325088977814,0.03298672288656235,0.059864792972803116
1766399517804798700,-33.698201171875,-0.08796459436416626,0.06352998316287994,0.19058994948863983
1766399517814839000,-33.688160888671874,-0.09040805697441101,0.07452555745840073,0.2626720666885376
1766399517824909800,-33.678090087890624,-0.06230825558304787,0.0806342139840126,0.20525072515010834
1766399517834919700,-33.668080322265624,-0.03420845419168472,0.08552113175392151,0.08552113175392151
1766399517844898800,-33.65810107421875,0.004886921960860491,0.09285151958465576,0.03298672288656235
1766399517854939100,-33.648060791015624,0.05009094998240471,0.07941248267889023,0.0757472887635231
1766399517864949000,-33.638051025390624,0.07941248267889023,0.045204028487205505,0.09651670604944229
1766399517874958600,-33.62804150390625,0.11484266817569733,0.0024434609804302454,0.02321287989616394
1766399517894978300,-33.608021728515624,0.19792033731937408,-0.059864792972803116,-0.14905111491680145
1766399517905018400,-33.59798168945313,0.23457226157188416,-0.12950342893600464,-0.21991148591041565
1766399517915058700,-33.58794140625,0.2871066629886627,-0.21991148591041565,-0.31642818450927734
1766399517955128300,-33.54787158203125,0.6340781450271606,-0.6780604124069214,-1.0629055500030518
1766399517965107500,-33.537892578125,0.7440338730812073,-0.8222246170043945,-1.3426817655563354
1766399517975147800,-33.52785229492188,0.8649851679801941,-0.9615018963813782,-1.577254056930542
1766399517985157600,-33.51784228515625,0.9847147464752197,-1.0934487581253052,-1.7470746040344238
1766399518005207600,-33.49779248046875,1.2278391122817993,-1.3426817655563354,-1.9254472255706787
1766399518015217400,-33.487782470703124,1.3377948999404907,-1.451415777206421,-2.009746551513672
1766399518025227300,-33.477772705078124,1.4257594347000122,-1.5344934463500977,-2.0671679973602295
1766399518035236900,-33.46776318359375,1.4966198205947876,-1.605353832244873,-2.076941728591919
1766399518045246700,-33.457753173828124,1.5528194904327393,-1.6603317260742188,-2.1429152488708496
1766399518055256600,-33.447743408203124,1.6139060258865356,-1.7092009782791138,-2.3359487056732178
1766399518065266200,-33.43773388671875,1.6725490093231201,-1.7507398128509521,-2.665815830230713
1766399518075337000,-33.4276630859375,1.7006487846374512,-1.794722080230713,-3.062878370285034
1766399518105427500,-33.397572509765624,1.635897159576416,-1.8167132139205933,-3.2449162006378174
1766399518115437000,-33.38756298828125,1.5638149976730347,-1.7531832456588745,-2.9077186584472656
1766399518125416400,-33.37758349609375,1.4758504629135132,-1.6762142181396484,-2.5363125801086426
1766399518135456800,-33.367543212890624,1.3927727937698364,-1.5968017578125,-2.233323335647583
1766399518145466400,-33.35753369140625,1.3182471990585327,-1.5173892974853516,-2.1001546382904053
1766399518155476200,-33.347523681640624,1.2107349634170532,-1.4685200452804565,-2.1673498153686523
1766399518165455400,-33.33754467773438,1.0910053253173828,-1.4404202699661255,-2.353052854537964
1766399518175495700,-33.32750439453125,0.978606104850769,-1.4159855842590332,-2.5973989963531494
1766399518185505500,-33.317494384765624,0.8442157506942749,-1.3732250928878784,-2.8747317790985107
1766399518215534800,-33.287465087890624,0.4899139404296875,-1.0897835493087769,-3.277902841567993
1766399518225544700,-33.277455322265624,0.4153883755207062,-0.9724974632263184,-3.031113386154175
1766399518235554300,-33.26744580078125,0.4080579876899719,-0.7916813492774963,-2.4825563430786133
1766399518245533700,-33.25746630859375,0.3995058834552765,-0.5962044596672058,-1.9046778678894043
1766399518255573800,-33.24742626953125,0.3579670190811157,-0.42149701714515686,-1.4685200452804565
1766399518265614000,-33.23738598632813,0.33108896017074585,-0.2590068578720093,-1.2205088138580322
1766399518295673900,-33.207326171875,0.2981022298336029,0.04153883829712868,-1.0433578491210938
1766399518335743500,-33.16725659179688,0.2724458873271942,0.21624629199504852,-0.4605923891067505
1766399518345814300,-33.15718579101563,0.24434609711170197,0.25045475363731384,-0.39584067463874817
1766399518355824000,-33.14717578125,0.2321287989616394,0.2675589919090271,-0.35063666105270386
1766399518365834000,-33.137166015625,0.2321287989616394,0.26633724570274353,-0.3188716471195221
1766399518375874000,-33.1271259765625,0.2125810980796814,0.2321287989616394,-0.32986724376678467
1766399528791978500,-22.711021484375,0.10018189996480942,-0.051312681287527084,-0.47280970215797424
1766399528801819000,-22.70118115234375,0.24068090319633484,-0.04398229718208313,0.1258382350206375
1766399528811659300,-22.6913408203125,0.25045475363731384,-0.03298672288656235,0.39584067463874817
1766399528821569000,-22.681430908203126,-0.12217304855585098,-0.07452555745840073,-0.31642818450927734
1766399528841588500,-22.66141162109375,-0.05375614017248154,0.02321287989616394,-0.07208210229873657
1766399528851598300,-22.651401611328126,-0.025656340643763542,0.018325956538319588,-0.06841690838336945
1766399528861608000,-22.64139208984375,0.019547687843441963,0.0012217304902151227,-0.024434609338641167
1766399528871709400,-22.63129052734375,0.039095375686883926,-0.010995574295520782,0.04886921867728233
1766399528931829000,-22.5711708984375,0.013439035043120384,0.012217304669320583,-0.018325956538319588
1766399528951848400,-22.551151611328127,0.015882495790719986,-0.006108652334660292,-0.06230825558304787
1766399529011968000,-22.491031982421877,-0.08918632566928864,-0.009773843921720982,0.15027284622192383
1766399529052037600,-22.45096240234375,-0.0024434609804302454,-0.02076941914856434,-0.10384709388017654
1766399529062047500,-22.440952392578126,0.02076941914856434,-0.02687807008624077,-0.01710422709584236
1766399529072057300,-22.430942626953126,0.1014036312699318,-0.015882495790719986,-0.03787364438176155
1766399529092107300,-22.410892822265627,0.02687807008624077,-0.01466076634824276,-0.010995574295520782
1766399529102117000,-22.4008828125,0.013439035043120384,0.01710422709584236,0.08674286305904388
1766399529112126700,-22.390873291015627,0.045204028487205505,0.06108652427792549,0.09773843735456467
1766399529132177000,-22.370822998046876,-0.07819075137376785,0.06352998316287994,0.17592918872833252
1766399529152196400,-22.3508037109375,-0.0012217304902151227,0.04642575979232788,-0.16982053220272064
1766399529162206200,-22.340793701171876,-0.02687807008624077,0.042760565876960754,-0.0659734457731247
1766399529172215800,-22.3307841796875,0.06719517707824707,0.006108652334660292,0.03787364438176155
1766399529182256000,-22.320743896484377,0.0659734457731247,-0.04886921867728233,0.0403171069920063
1766399529192266000,-22.310734130859377,0.07208210229873657,-0.0659734457731247,0.03298672288656235
1766399529202275800,-22.30072412109375,0.06963863968849182,-0.05253441259264946,0.05253441259264946
1766399529212285400,-22.290714599609377,0.03176499158143997,-0.03298672288656235,0.05864306539297104
1766399529222295300,-22.28070458984375,0.030543262138962746,-0.024434609338641167,0.042760565876960754
1766399529272374500,-22.23062548828125,0.028099801391363144,-0.010995574295520782,-0.07452555745840073
1766399529282414800,-22.220585205078127,0.0354301854968071,-0.01466076634824276,-0.0403171069920063
1766399529292424700,-22.2105751953125,0.02321287989616394,-0.02932153269648552,-0.0024434609804302454
1766399529302434600,-22.2005654296875,0.010995574295520782,-0.0354301854968071,0.01710422709584236
1766399529312444200,-22.190555908203127,0.004886921960860491,-0.03298672288656235,0.024434609338641167
1766399529322454000,-22.1805458984375,0.00733038317412138,-0.028099801391363144,0.024434609338641167
1766399529332494300,-22.170505615234376,0.01466076634824276,-0.02932153269648552,0.02076941914856434
1766399529392644400,-22.110355712890627,0.04398229718208313,0.04153883829712868,0.09529497474431992
1766399529402654200,-22.100345703125,0.051312681287527084,0.03298672288656235,0.09651670604944229
1766399529422704000,-22.0802958984375,0.06719517707824707,-0.00855211354792118,0.04764748737215996
1766399529432714000,-22.0702861328125,0.05375614017248154,-0.019547687843441963,0.021991148591041565
1766399529452733400,-22.0502666015625,0.0659734457731247,-0.019547687843441963,-0.00733038317412138
1766399529512883700,-21.9901162109375,0.06475171446800232,-0.03420845419168472,0.07452555745840073
1766399529552983800,-21.95001611328125,-0.015882495790719986,-0.00366519158706069,0.02687807008624077
1766399529573064200,-21.929935791015627,-0.0659734457731247,-0.00366519158706069,0.05742133408784866
1766399529583074000,-21.919926025390627,-0.06230825558304787,-0.004886921960860491,0.07330382615327835
1766399529603154700,-21.89984521484375,0.00733038317412138,0.05253441259264946,-0.04398229718208313
1766399529613195000,-21.889804931640626,-0.04398229718208313,0.02687807008624077,-0.015882495790719986
1766399529693425700,-21.80957421875,-0.030543262138962746,0.02321287989616394,0.004886921960860491
1766399529763524600,-21.739475341796876,0.021991148591041565,0.028099801391363144,-0.028099801391363144
1766399529773565000,-21.72943505859375,0.0024434609804302454,0.02932153269648552,-0.03176499158143997
1766399529783574500,-21.719425537109377,-0.02321287989616394,0.02932153269648552,-0.05497787147760391
1766399529803685600,-21.699314453125,-0.06108652427792549,0.02932153269648552,-0.06963863968849182
1766399529813726000,-21.689274169921877,-0.0354301854968071,0.024434609338641167,0.00855211354792118
1766399529843816200,-21.659183837890627,-0.00366519158706069,0.010995574295520782,0.05742133408784866
1766399529853856500,-21.6491435546875,0.0012217304902151227,-0.0024434609804302454,0.02321287989616394
1766399529863836000,-21.6391640625,0.00366519158706069,-0.01710422709584236,-0.021991148591041565
1766399529873906700,-21.62909326171875,-0.010995574295520782,-0.004886921960860491,-0.059864792972803116
1766399529883916300,-21.619083740234377,-0.019547687843441963,0,-0.059864792972803116
1766399529893987000,-21.609012939453127,-0.03176499158143997,0.0012217304902151227,-0.06719517707824707
1766399529924077600,-21.57892236328125,0.018325956538319588,0.00733038317412138,-0.06963863968849182
1766399529934118000,-21.568882080078126,0.04153883829712868,0.006108652334660292,-0.0403171069920063
1766399529944127500,-21.55887255859375,0.045204028487205505,-0.012217304669320583,-0.025656340643763542
1766399529954167800,-21.548832275390627,0.03420845419168472,0.00733038317412138,-0.0659734457731247
1766399529964177700,-21.538822265625,0.08674286305904388,-0.0024434609804302454,-0.04398229718208313
1766399529974218000,-21.528781982421876,0.07941248267889023,-0.01710422709584236,-0.05497787147760391
1766399529984227600,-21.5187724609375,0.06963863968849182,-0.02932153269648552,-0.05864306539297104
1766399529994298400,-21.50870166015625,0.12095131725072861,-0.059864792972803116,-0.09773843735456467
1766399530044408300,-21.458591796875,0.00366519158706069,-0.07208210229873657,-0.11728613078594208
1766399530054418200,-21.448581787109376,-0.010995574295520782,-0.051312681287527084,-0.05253441259264946
1766399530064427800,-21.438572265625,-0.01710422709584236,-0.030543262138962746,-0.00366519158706069
1766399530094518300,-21.408481689453126,0.012217304669320583,-0.00366519158706069,0.01710422709584236
1766399530104528000,-21.39847216796875,0.02321287989616394,-0.00366519158706069,0.02321287989616394
1766399530184789200,-21.318210693359376,-0.07208210229873657,0.042760565876960754,-0.009773843921720982
1766399530204808700,-21.29819140625,-0.01466076634824276,0.015882495790719986,0.006108652334660292
1766399530214849000,-21.28815087890625,-0.006108652334660292,0.0012217304902151227,0.03176499158143997
1766399530244908800,-21.25809130859375,-0.0024434609804302454,-0.010995574295520782,0.028099801391363144
1766399530274938000,-21.228061767578126,-0.00733038317412138,0.01466076634824276,0.04764748737215996
1766399530294957600,-21.20804248046875,0,0.019547687843441963,0.03176499158143997
1766399530305028400,-21.1979716796875,-0.013439035043120384,0.021991148591041565,0.010995574295520782
1766399530325048000,-21.177951904296876,0.00366519158706069,0.030543262138962746,0.02076941914856434
1766399530335118800,-21.167881103515626,0.004886921960860491,0.03420845419168472,0.02932153269648552
1766399530345098000,-21.157902099609377,0.025656340643763542,0.03176499158143997,0.02932153269648552
1766399530355138300,-21.14786181640625,0.03787364438176155,0.024434609338641167,0.04153883829712868
1766399530365148200,-21.137851806640626,0.03176499158143997,0.013439035043120384,0.01466076634824276
1766399530375188200,-21.127811767578127,0.018325956538319588,0.00366519158706069,-0.04398229718208313
1766399530385259300,-21.11774072265625,0.004886921960860491,0.00855211354792118,-0.10262536257505417
1766399530395330000,-21.107669921875,-0.01466076634824276,0.006108652334660292,-0.1160643994808197
1766399530405400800,-21.09759912109375,-0.012217304669320583,0.015882495790719986,-0.05864306539297104
1766399530415410400,-21.087589599609377,-0.00733038317412138,0.02321287989616394,0.021991148591041565
1766399530435491000,-21.067509033203127,0.0012217304902151227,0.0024434609804302454,0.021991148591041565
1766399530475591200,-21.027408935546877,-0.015882495790719986,-0.00855211354792118,-0.02687807008624077
1766399530485601000,-21.01739892578125,-0.004886921960860491,-0.00855211354792118,-0.0354301854968071
1766399530495641300,-21.007358642578126,0.004886921960860491,-0.00366519158706069,-0.04153883829712868
1766399530505651000,-20.99734912109375,0.010995574295520782,-0.009773843921720982,-0.03787364438176155
1766399530515721700,-20.9872783203125,0.024434609338641167,-0.009773843921720982,-0.051312681287527084
1766399530535772000,-20.96722802734375,0.010995574295520782,-0.03420845419168472,-0.07208210229873657
1766399530545751000,-20.9572490234375,0.013439035043120384,-0.02932153269648552,-0.11239920556545258
1766399530555761000,-20.947239013671876,0.00855211354792118,-0.012217304669320583,-0.09651670604944229
1766399530565801200,-20.93719873046875,0.00855211354792118,0.009773843921720982,-0.05375614017248154
1766399530585820700,-20.917179443359377,0.00366519158706069,0.01710422709584236,0.05009094998240471
1766399530595830500,-20.90716943359375,-0.0012217304902151227,0.015882495790719986,0.018325956538319588
1766399530605870600,-20.89712939453125,-0.028099801391363144,0.012217304669320583,-0.03420845419168472
1766399530615911000,-20.887089111328127,-0.059864792972803116,0.013439035043120384,-0.09285151958465576
1766399530665990400,-20.837009521484376,-0.02932153269648552,0.012217304669320583,-0.09285151958465576
1766399530686009900,-20.816990234375,-0.02932153269648552,0.04398229718208313,-0.05253441259264946
1766399530696019700,-20.806980224609376,-0.019547687843441963,-0.0012217304902151227,-0.030543262138962746
1766399530706029300,-20.796970703125,0.00855211354792118,0.10751228034496307,-0.1062905490398407
1766399530716039200,-20.7869609375,-0.00855211354792118,0.13561208546161652,-0.12217304855585098
1766399530726049000,-20.776950927734376,-0.04642575979232788,0.13805554807186127,-0.1661553531885147
1766399530736058600,-20.76694140625,-0.1270599663257599,0.12461651116609573,-0.251676470041275
1766399530746068500,-20.756931640625,-0.1160643994808197,0.13927727937698364,-0.32131510972976685
1766399530816258800,-20.6867412109375,0.22968533635139465,0.07941248267889023,0.01710422709584236
1766399530886480000,-20.61652001953125,0.04642575979232788,-0.05009094998240471,0.07819075137376785
1766399530916570000,-20.586429931640627,-0.01466076634824276,-0.036651913076639175,0.14049901068210602
1766399530986699500,-20.516300537109377,-0.06963863968849182,-0.030543262138962746,0.06841690838336945
1766399530996739800,-20.50626025390625,-0.08185594528913498,-0.019547687843441963,0.00366519158706069
1766399531046880300,-20.45611962890625,-0.09896016865968704,0.025656340643763542,-0.13439035415649414
1766399531056890000,-20.44610986328125,-0.06475171446800232,0.036651913076639175,-0.10873401165008545
1766399531076909600,-20.42609033203125,0.04642575979232788,0.025656340643763542,-0.00733038317412138
1766399531086919400,-20.41608056640625,0.09040805697441101,0.0024434609804302454,0.06352998316287994
1766399531106969300,-20.39603076171875,0.08429940044879913,-0.02321287989616394,0.059864792972803116
1766399531116979200,-20.386020751953126,0.07819075137376785,-0.028099801391363144,0.07696902006864548
1766399531167119600,-20.33588037109375,0.1062905490398407,-0.08307767659425735,0.2968805134296417
1766399531197209900,-20.3057900390625,-0.05742133408784866,-0.05375614017248154,0.5448917746543884
1766399531217229300,-20.285770751953127,-0.045204028487205505,-0.019547687843441963,0.1417207419872284
1766399531267369700,-20.23563037109375,-0.19425514340400696,0.13805554807186127,-0.2785545587539673
1766399531357702000,-20.145298095703126,-0.024434609338641167,0.00855211354792118,-0.2015855312347412
1766399531367681000,-20.135319091796877,-0.0012217304902151227,0.004886921960860491,-0.018325956538319588
1766399531377691000,-20.12530908203125,0.00366519158706069,-0.0012217304902151227,0.02321287989616394
1766399531387731000,-20.11526904296875,0.015882495790719986,-0.00733038317412138,-0.051312681287527084
1766399531417791000,-20.085208984375,0.01466076634824276,0.00855211354792118,-0.028099801391363144
1766399531427800600,-20.075199462890627,0.025656340643763542,0,0.006108652334660292
1766399531437841000,-20.0651591796875,0.024434609338641167,0.00366519158706069,-0.012217304669320583
1766399531447850800,-20.055149169921876,0.019547687843441963,0.019547687843441963,-0.039095375686883926
1766399531457860400,-20.0451396484375,0.019547687843441963,0.02076941914856434,-0.03298672288656235
1766399531507939800,-19.99506005859375,0.030543262138962746,0.019547687843441963,-0.021991148591041565
1766399531527989800,-19.97501025390625,0.03176499158143997,0.013439035043120384,-0.02687807008624077
1766399531548009500,-19.954990478515626,0.021991148591041565,0.02076941914856434,0.010995574295520782
1766399531568120600,-19.93487939453125,0.02076941914856434,0.02321287989616394,0.036651913076639175
1766399531578191400,-19.92480859375,0.02321287989616394,0.013439035043120384,0.025656340643763542
1766399531598271700,-19.904728271484377,0.004886921960860491,0.018325956538319588,-0.039095375686883926
1766399531638371800,-19.864628173828127,0.012217304669320583,0.00733038317412138,0.11362093687057495
1766399531648381700,-19.854618408203127,-0.00733038317412138,-0.012217304669320583,-0.06963863968849182
1766399531658452500,-19.844547607421877,-0.02076941914856434,-0.012217304669320583,-0.2064724564552307
1766399531688542700,-19.814457275390627,-0.04642575979232788,-0.09285151958465576,-0.27488934993743896
1766399531708593000,-19.794406982421876,-0.013439035043120384,-0.10018189996480942,-0.08429940044879913
1766399531738652700,-19.764347412109377,-0.010995574295520782,-0.03420845419168472,0.00855211354792118
1766399531748693000,-19.75430712890625,-0.013439035043120384,-0.030543262138962746,0.013439035043120384
1766399531758702800,-19.744297119140626,-0.010995574295520782,-0.036651913076639175,-0.03176499158143997
1766399531768712400,-19.73428759765625,-0.00855211354792118,-0.04642575979232788,-0.07452555745840073
1766399531828801500,-19.674198486328127,-0.0012217304902151227,-0.006108652334660292,-0.028099801391363144
1766399531848882200,-19.654117919921877,0.0024434609804302454,0.02321287989616394,0.030543262138962746
1766399531858922500,-19.644077392578126,0.00733038317412138,0.03298672288656235,0.03787364438176155
1766399531878972400,-19.624027587890627,0.009773843921720982,0.042760565876960754,0.019547687843441963
1766399531889043200,-19.613956787109377,0.013439035043120384,0.04764748737215996,0.02687807008624077
1766399531919103200,-19.583896728515626,-0.05864306539297104,-0.006108652334660292,0.4031710624694824
1766399531949163000,-19.5538369140625,0.04398229718208313,0.06108652427792549,-0.024434609338641167
1766399531959172600,-19.543827392578127,0.039095375686883926,0.04764748737215996,-0.07941248267889023
1766399532009282600,-19.493717529296877,0,-0.015882495790719986,-0.18814650177955627
1766399532039372800,-19.463627197265627,0.015882495790719986,-0.00733038317412138,0.10384709388017654
1766399532129766000,-19.373234130859377,0.0024434609804302454,-0.030543262138962746,-0.0757472887635231
1766399532189946600,-19.313053466796877,0.00855211354792118,0.015882495790719986,0.02321287989616394
1766399532209966000,-19.293033935546877,0.015882495790719986,0.036651913076639175,0.07696902006864548
1766399532220006400,-19.28299365234375,0.00855211354792118,0.045204028487205505,0.04642575979232788
1766399532230016300,-19.272983642578126,-0.0012217304902151227,0.045204028487205505,0.0012217304902151227
1766399532240026000,-19.262973876953126,-0.009773843921720982,0.03787364438176155,-0.024434609338641167
1766399532290166300,-19.212833740234377,-0.025656340643763542,-0.00366519158706069,-0.09285151958465576
1766399532320287200,-19.182712646484376,-0.03298672288656235,0.0024434609804302454,-0.03420845419168472
1766399532340368000,-19.162632080078126,-0.019547687843441963,0.00733038317412138,-0.06352998316287994
1766399532350347000,-19.152653076171877,-0.019547687843441963,0.00733038317412138,-0.06352998316287994
1766399532360387300,-19.14261279296875,-0.015882495790719986,0.010995574295520782,-0.06719517707824707
1766399532410466600,-19.092533447265627,-0.018325956538319588,-0.02076941914856434,-0.02076941914856434
1766399532430516700,-19.072483154296876,-0.025656340643763542,-0.021991148591041565,-0.012217304669320583
1766399532440557000,-19.06244287109375,-0.02687807008624077,-0.01466076634824276,0.036651913076639175
1766399532450597400,-19.052402587890626,-0.01710422709584236,-0.013439035043120384,0.05864306539297104
1766399532460607000,-19.04239306640625,-0.013439035043120384,-0.010995574295520782,0.02076941914856434
1766399532470647300,-19.032352783203127,-0.006108652334660292,-0.010995574295520782,-0.02321287989616394
1766399532480657200,-19.0223427734375,0.0012217304902151227,-0.009773843921720982,-0.036651913076639175
1766399532490666800,-19.012333251953127,0.00366519158706069,-0.015882495790719986,0.0012217304902151227
1766399532510717000,-18.992282958984376,0.021991148591041565,0.08674286305904388,-0.06352998316287994
1766399532520757200,-18.98224267578125,0.09407325088977814,-0.0012217304902151227,0.00366519158706069
1766399532540807200,-18.96219287109375,0.06352998316287994,-0.07208210229873657,0.013439035043120384
1766399532550817000,-18.952182861328126,0.06230825558304787,0.010995574295520782,0.0024434609804302454
1766399535113783800,-16.38921630859375,0.1062905490398407,-0.039095375686883926,-0.4691445231437683
1766399535123593700,-16.37940625,0.2577851414680481,-0.04642575979232788,0.13316862285137177
1766399535133433900,-16.369566162109376,0.27000242471694946,-0.045204028487205505,0.3787364661693573
1766399535143343600,-16.359656494140626,-0.08307767659425735,-0.07941248267889023,-0.3286454975605011
1766399535153384000,-16.349615966796875,-0.08918632566928864,-0.019547687843441963,-0.21013765037059784
1766399535163293700,-16.339706298828126,-0.015882495790719986,0.04764748737215996,0.030543262138962746
1766399535173203500,-16.329796630859374,-0.00855211354792118,0.05619960278272629,0.05864306539297104
1766399535183213300,-16.31978662109375,-0.006108652334660292,0.05009094998240471,0.03420845419168472
1766399535213334000,-16.289666015625,0.004886921960860491,0.06963863968849182,-0.02076941914856434
1766399535283524600,-16.219475341796876,-0.00366519158706069,0.036651913076639175,0.006108652334660292
1766399535353684500,-16.1493154296875,-0.00733038317412138,-0.025656340643763542,-0.04642575979232788
1766399535393723600,-16.1092763671875,-0.013439035043120384,0.013439035043120384,-0.012217304669320583
1766399535423783400,-16.079216552734376,-0.00366519158706069,0.02321287989616394,-0.012217304669320583
1766399535433793000,-16.06920703125,-0.00366519158706069,0.025656340643763542,-0.028099801391363144
1766399535443833300,-16.059166748046874,0,0.021991148591041565,-0.03298672288656235
1766399535453843200,-16.04915673828125,0.00366519158706069,0.01466076634824276,-0.02076941914856434
1766399535463852800,-16.039147216796874,0.004886921960860491,0.009773843921720982,0.0024434609804302454
1766399535473862700,-16.029137451171874,0.00855211354792118,0.01466076634824276,0.0354301854968071
1766399535483872500,-16.01912744140625,0.015882495790719986,0.010995574295520782,0.05497787147760391
1766399535493882000,-16.009117919921874,0.021991148591041565,0.004886921960860491,0.0354301854968071
1766399535523911400,-15.979088623046875,0.018325956538319588,-0.02687807008624077,-0.028099801391363144
1766399535533921300,-15.96907861328125,0.012217304669320583,-0.024434609338641167,-0.030543262138962746
1766399535543931100,-15.95906884765625,0.010995574295520782,-0.02687807008624077,-0.01710422709584236
1766399535553971200,-15.94902880859375,0.00855211354792118,-0.013439035043120384,0.00855211354792118
1766399535563981000,-15.93901904296875,0.01466076634824276,0.013439035043120384,0.02076941914856434
1766399535573991000,-15.929009033203124,0.019547687843441963,0.018325956538319588,0.01466076634824276
1766399535584000500,-15.91899951171875,0.02321287989616394,0.0024434609804302454,0.01466076634824276
1766399535594010400,-15.90898974609375,0.024434609338641167,-0.00733038317412138,0.021991148591041565
1766399535644120300,-15.858879638671874,0.02076941914856434,0.01466076634824276,0.009773843921720982
1766399535654130000,-15.8488701171875,0.02076941914856434,0.013439035043120384,-0.006108652334660292
1766399535664139800,-15.838860107421874,0.018325956538319588,0.006108652334660292,0.00733038317412138
1766399535674149600,-15.828850341796874,0.018325956538319588,0.0012217304902151227,0.019547687843441963
1766399535684159200,-15.8188408203125,0.019547687843441963,-0.0012217304902151227,0.00855211354792118
1766399535694199600,-15.808800537109375,0.015882495790719986,-0.00366519158706069,-0.00855211354792118
1766399535704209400,-15.79879052734375,0.01466076634824276,-0.0012217304902151227,-0.012217304669320583
1766399535734269200,-15.768730712890624,0.02076941914856434,0.00366519158706069,0.018325956538319588
1766399535744279000,-15.758720947265624,0.02076941914856434,-0.00855211354792118,-0.00855211354792118
1766399535764329000,-15.738671142578125,0.013439035043120384,-0.009773843921720982,-0.0354301854968071
1766399535774369300,-15.728630615234374,0.015882495790719986,-0.010995574295520782,-0.02076941914856434
1766399535784379100,-15.718620849609374,0.010995574295520782,-0.01466076634824276,-0.02687807008624077
1766399535794419200,-15.708580810546875,0.010995574295520782,-0.015882495790719986,-0.042760565876960754
1766399535844529200,-15.658470947265625,0.004886921960860491,0.02321287989616394,0.05864306539297104
1766399535854539000,-15.6484609375,0.0012217304902151227,0.024434609338641167,0.059864792972803116
1766399535864579300,-15.638420654296874,-0.004886921960860491,0.02932153269648552,0.021991148591041565
1766399535874589000,-15.6284111328125,-0.004886921960860491,0.028099801391363144,-0.00733038317412138
1766399535884598800,-15.618401123046874,-0.00855211354792118,0.028099801391363144,0.00366519158706069
1766399535894608600,-15.608391357421874,-0.042760565876960754,-0.036651913076639175,0.21135938167572021
1766399535914658600,-15.588341552734375,-0.021991148591041565,0.01466076634824276,-0.0354301854968071
1766399535964738000,-15.538261962890624,0.004886921960860491,-0.03787364438176155,-0.018325956538319588
1766399535974808800,-15.528191162109374,-0.00855211354792118,-0.03298672288656235,-0.06230825558304787
1766399535984849000,-15.518151123046875,-0.015882495790719986,-0.02687807008624077,-0.05375614017248154
1766399535994858800,-15.508141357421875,-0.02076941914856434,-0.02321287989616394,-0.03787364438176155
1766399536004868600,-15.49813134765625,-0.01710422709584236,-0.02076941914856434,-0.06475171446800232
1766399536014878200,-15.488121826171875,-0.015882495790719986,-0.01466076634824276,-0.08796459436416626
1766399536024888000,-15.47811181640625,-0.018325956538319588,-0.010995574295520782,-0.07452555745840073
1766399536034898000,-15.46810205078125,-0.01466076634824276,-0.012217304669320583,-0.05375614017248154
1766399536074936800,-15.428063232421875,0.00855211354792118,0.02076941914856434,0.05253441259264946
1766399536084946700,-15.41805322265625,0.012217304669320583,0.02932153269648552,0.06841690838336945
1766399536094956500,-15.40804345703125,0.00733038317412138,0.03298672288656235,0.04642575979232788
1766399536114976000,-15.38802392578125,-0.006108652334660292,0.013439035043120384,-0.006108652334660292
1766399536124985900,-15.37801416015625,-0.006108652334660292,0.00366519158706069,-0.028099801391363144
1766399536135026000,-15.36797412109375,-0.0024434609804302454,0.00366519158706069,-0.03787364438176155
1766399536145035800,-15.357964111328124,-0.00366519158706069,0.006108652334660292,-0.01710422709584236
1766399536165086000,-15.3379140625,0.004886921960860491,0.02076941914856434,0.04886921867728233
1766399536185135900,-15.317864013671874,0.00855211354792118,-0.00733038317412138,-0.0012217304902151227
1766399536195176200,-15.30782373046875,0.00855211354792118,-0.013439035043120384,-0.021991148591041565
1766399536215195600,-15.287804443359375,0.004886921960860491,-0.01710422709584236,-0.018325956538319588
1766399536225236000,-15.277763916015624,0.00366519158706069,-0.021991148591041565,-0.028099801391363144
1766399536265244400,-15.237755615234375,-0.006108652334660292,0.019547687843441963,-0.00855211354792118
1766399536275284700,-15.22771533203125,-0.00366519158706069,0.024434609338641167,0.024434609338641167
1766399536285325000,-15.217675048828125,-0.00366519158706069,0.02076941914856434,0.024434609338641167
1766399536295335000,-15.2076650390625,-0.0012217304902151227,0.03298672288656235,0.006108652334660292
1766399536305344500,-15.197655517578125,0.0024434609804302454,0.0354301854968071,0.0024434609804302454
1766399536315354400,-15.187645751953125,0,0.025656340643763542,0.00855211354792118
1766399536325364200,-15.1776357421875,0.0012217304902151227,0.01710422709584236,-0.004886921960860491
1766399536355424000,-15.147575927734374,-0.0012217304902151227,-0.0012217304902151227,-0.009773843921720982
1766399536365433900,-15.137566162109374,-0.0024434609804302454,0,-0.010995574295520782
1766399536375443500,-15.127556640625,-0.0012217304902151227,0.0024434609804302454,-0.018325956538319588
1766399536385453300,-15.117546630859374,0,0.00855211354792118,-0.02687807008624077
1766399536395463000,-15.107537109375,0,0.00855211354792118,-0.028099801391363144
1766399536405503200,-15.097496826171875,-0.00366519158706069,0.006108652334660292,-0.006108652334660292
1766399536415513000,-15.08748681640625,0,0.02076941914856434,0.00855211354792118
1766399536425461800,-15.077538330078125,-0.0024434609804302454,0.019547687843441963,0.004886921960860491
1766399536435502000,-15.067497802734374,0.0012217304902151227,0.018325956538319588,0.00733038317412138
1766399536465531400,-15.037468505859374,0.004886921960860491,0.012217304669320583,-0.013439035043120384
1766399536475632600,-15.027367431640625,0.004886921960860491,0,-0.013439035043120384
1766399536485612000,-15.017387939453124,0.006108652334660292,-0.009773843921720982,0.0012217304902151227
1766399536495621600,-15.00737841796875,0.00366519158706069,-0.012217304669320583,0.010995574295520782
1766399536505601000,-14.99739892578125,0.0024434609804302454,-0.00733038317412138,0.0024434609804302454
1766399536525681400,-14.977318603515625,-0.0012217304902151227,0.00733038317412138,-0.006108652334660292
1766399536555772000,-14.94722802734375,0,0,0.01466076634824276
1766399536565751000,-14.9372490234375,-0.0024434609804302454,-0.00855211354792118,-0.02076941914856434
1766399536575761000,-14.927239013671874,-0.004886921960860491,-0.009773843921720982,-0.04642575979232788
1766399536585740000,-14.917260009765625,-0.006108652334660292,-0.012217304669320583,-0.0403171069920063
1766399536595780400,-14.9072197265625,-0.004886921960860491,-0.01710422709584236,-0.03298672288656235
1766399536605790200,-14.897209716796874,-0.0012217304902151227,-0.010995574295520782,-0.06352998316287994
1766399536615800000,-14.887199951171874,-0.006108652334660292,-0.0024434609804302454,-0.09162978827953339
1766399536625779200,-14.877220703125,-0.00366519158706069,0.006108652334660292,-0.05864306539297104
1766399536635819500,-14.867180419921874,0,0.013439035043120384,-0.004886921960860491
1766399536675858400,-14.8271416015625,0.01710422709584236,-0.009773843921720982,-0.02321287989616394
1766399536685868300,-14.817131591796874,0.018325956538319588,-0.01710422709584236,-0.02321287989616394
1766399536695878100,-14.807121826171874,0.01710422709584236,-0.025656340643763542,-0.03787364438176155
1766399536705826800,-14.797173095703124,0.004886921960860491,-0.021991148591041565,-0.036651913076639175
1766399536715867100,-14.7871328125,0.004886921960860491,-0.018325956538319588,0.010995574295520782
1766399536755997700,-14.747002197265624,0.0012217304902151227,-0.04153883829712868,-0.06352998316287994
1766399536766007600,-14.736992431640624,0.012217304669320583,-0.06719517707824707,-0.05864306539297104
1766399536776017200,-14.72698291015625,0.019547687843441963,-0.09896016865968704,-0.0757472887635231
1766399536796097800,-14.706902099609374,0.045204028487205505,-0.1612684279680252,-0.1514945775270462
1766399536816148000,-14.68685205078125,0.22602014243602753,-0.19792033731937408,-0.3640756905078888
1766399536826157600,-14.676842529296875,0.1771509200334549,-0.2028072625398636,-0.6805039048194885
1766399536866227200,-14.636772705078124,0.2626720666885376,-0.2687807083129883,-0.7257078886032104
1766399536876267500,-14.626732421875,0.2626720666885376,-0.28588494658470154,-0.7831292152404785
1766399536886277000,-14.616722900390625,0.26145032048225403,-0.28955012559890747,-0.6890559792518616
1766399536896287000,-14.606713134765625,0.2565633952617645,-0.294437050819397,-0.5351179838180542
1766399536906266400,-14.596733642578124,0.26511552929878235,-0.2981022298336029,-0.43127086758613586
1766399536916367600,-14.58663232421875,0.27611109614372253,-0.3029891550540924,-0.4349360466003418
1766399536926346800,-14.5766533203125,0.27000242471694946,-0.30054569244384766,-0.49235737323760986
1766399536936356600,-14.566643310546874,0.2541199326515198,-0.2785545587539673,-0.5290092825889587
1766399536956376000,-14.5466240234375,0.27977627515792847,-0.24556782841682434,-0.6548475623130798
1766399536976395500,-14.5266044921875,0.25045475363731384,-0.1820378452539444,-0.8063421249389648
1766399536986405400,-14.5165947265625,0.26511552929878235,-0.09285151958465576,-0.6670648455619812
1766399536996415200,-14.506584716796874,0.2724458873271942,-0.0403171069920063,-0.394618958234787
1766399537006424800,-14.4965751953125,0.26511552929878235,-0.021991148591041565,-0.10384709388017654
1766399537016434700,-14.4865654296875,0.2773328125476837,0.030543262138962746,0.08552113175392151
1766399537026444500,-14.476555419921874,0.2822197377681732,0.08674286305904388,0.11972958594560623
1766399537036454100,-14.4665458984375,0.27611109614372253,0.1160643994808197,0.1014036312699318
1766399537076523800,-14.426476318359375,0.16493362188339233,0.17592918872833252,0.11850785464048386
1766399537086533600,-14.41646630859375,0.13439035415649414,0.21991148591041565,0.18325957655906677
1766399537106522600,-14.396477294921874,0.07208210229873657,0.2724458873271942,0.5363397002220154
1766399537116532500,-14.386467529296874,0.02687807008624077,0.1368338167667389,0.6695083379745483
1766399537126542000,-14.3764580078125,0.012217304669320583,0.08918632566928864,0.6792821288108826
1766399537136552000,-14.366447998046874,0.010995574295520782,0.04153883829712868,0.5229006409645081
1766399537156571400,-14.3464287109375,-0.02321287989616394,0.0403171069920063,0.15515977144241333
1766399537176590800,-14.3264091796875,-0.03176499158143997,0.004886921960860491,0.1319468915462494
1766399537186600700,-14.3163994140625,-0.04153883829712868,-0.01710422709584236,0.16859880089759827
1766399537196671500,-14.30632861328125,-0.05253441259264946,-0.012217304669320583,0.2076941877603531
1766399537206651000,-14.29634912109375,-0.07208210229873657,0.010995574295520782,0.24068090319633484
1766399537216660500,-14.286339599609375,-0.08918632566928864,0.03176499158143997,0.27000242471694946
1766399537226670300,-14.27632958984375,-0.08674286305904388,0.04764748737215996,0.2687807083129883
1766399537236710700,-14.266289306640624,-0.07330382615327835,0.0659734457731247,0.20036379992961884
1766399537246720300,-14.25627978515625,-0.07452555745840073,0.07208210229873657,0.0708603709936142
1766399537286820400,-14.2161796875,-0.03787364438176155,0.14294247329235077,0.2015855312347412
1766399537296830200,-14.206169677734374,-0.02076941914856434,0.14049901068210602,0.23090706765651703
1766399537306840000,-14.196159912109374,0,0.12828169763088226,0.2272418737411499
1766399537316849700,-14.186150390625,0.010995574295520782,0.1258382350206375,0.22968533635139465
1766399537326890000,-14.176110107421875,0.024434609338641167,0.11850785464048386,0.2724458873271942
1766399537336930300,-14.166069580078124,0.045204028487205505,0.1160643994808197,0.3017674386501312
1766399537387070700,-14.11592919921875,0.08796459436416626,0.009773843921720982,-0.1270599663257599
1766399537397080600,-14.10591943359375,0.08552113175392151,-0.02687807008624077,-0.18448130786418915
1766399537407090200,-14.095909912109375,0.1270599663257599,-0.045204028487205505,-0.12950342893600464
1766399537417161000,-14.085839111328125,0.18570303916931152,-0.08185594528913498,-0.05253441259264946
1766399537427140400,-14.075859619140624,0.25045475363731384,-0.07941248267889023,-0.024434609338641167
1766399537437150000,-14.06585009765625,0.3335324227809906,-0.05497787147760391,-0.039095375686883926
1766399537447129300,-14.05587060546875,0.40683624148368835,-0.036651913076639175,-0.09040805697441101
1766399537457169700,-14.045830322265624,0.44104471802711487,-0.004886921960860491,-0.14294247329235077
1766399537497208600,-14.00579150390625,0.4789183437824249,-0.06475171446800232,-0.03787364438176155
1766399537507218400,-13.995781494140624,0.46670106053352356,-0.09285151958465576,-0.13805554807186127
1766399537517228300,-13.985771728515624,0.45326200127601624,-0.10751228034496307,-0.26022860407829285
1766399537527238000,-13.97576220703125,0.44715335965156555,-0.05253441259264946,-0.3323107063770294
1766399537537278200,-13.9657216796875,0.4251621961593628,-0.04764748737215996,-0.29077184200286865
1766399537547288000,-13.9557119140625,0.394618958234787,-0.04764748737215996,-0.12095131725072861
1766399537557297700,-13.945702392578125,0.3933972120285034,-0.039095375686883926,0.08185594528913498
1766399537567307500,-13.9356923828125,0.3787364661693573,-0.010995574295520782,0.14049901068210602
1766399537597367300,-13.9056328125,0.3127630054950714,-0.024434609338641167,-0.07696902006864548
1766399537627396600,-13.875603271484374,0.2785545587539673,-0.07452555745840073,0.07696902006864548
1766399537637406500,-13.865593505859374,0.26511552929878235,-0.0806342139840126,0.01466076634824276
1766399537647416000,-13.855583984375,0.2528982162475586,-0.08185594528913498,-0.039095375686883926
1766399537657395500,-13.8456044921875,0.2638937830924988,-0.09162978827953339,-0.04642575979232788
1766399537667405000,-13.835594970703125,0.2675589919090271,-0.09651670604944229,-0.01466076634824276
1766399537677415000,-13.825585205078125,0.2577851414680481,-0.08185594528913498,0.045204028487205505
1766399537687394300,-13.815605712890624,0.24434609711170197,-0.06963863968849182,0.11362093687057495
1766399537717484500,-13.785515380859374,0.18570303916931152,-0.10262536257505417,-0.05742133408784866
1766399537727494400,-13.775505615234374,0.17837265133857727,-0.09896016865968704,-0.14294247329235077
1766399537737504000,-13.76549609375,0.15882496535778046,-0.10384709388017654,-0.15393804013729095
1766399537747483400,-13.7555166015625,0.14416420459747314,-0.10384709388017654,-0.06108652427792549
1766399537757523500,-13.7454765625,0.14905111491680145,-0.1014036312699318,0.06841690838336945
1766399537767533300,-13.735466796875,0.1563815027475357,-0.08552113175392151,0.1111774742603302
1766399537777543200,-13.725456787109374,0.16004669666290283,-0.06475171446800232,0.07452555745840073
1766399537787583500,-13.71541650390625,0.1514945775270462,-0.04764748737215996,0.01466076634824276
1766399537807633400,-13.69536669921875,0.1270599663257599,-0.02932153269648552,-0.03420845419168472
1766399537817673700,-13.685326171875,0.12950342893600464,-0.02076941914856434,0
1766399537827683600,-13.67531640625,0.1514945775270462,-0.02076941914856434,0.013439035043120384
1766399537837723600,-13.6652763671875,0.16982053220272064,-0.00733038317412138,-0.009773843921720982
1766399537847703000,-13.655296875,0.16737708449363708,0.00733038317412138,-0.05253441259264946
1766399537857743400,-13.645256591796874,0.16859880089759827,0.0012217304902151227,-0.06352998316287994
1766399537867753000,-13.6352470703125,0.1771509200334549,0.021991148591041565,-0.00855211354792118
1766399537877762800,-13.6252373046875,0.1771509200334549,0.021991148591041565,-0.00855211354792118
1766399537887803100,-13.61519677734375,0.17837265133857727,0.01466076634824276,0.06719517707824707
1766399537917863000,-13.58513720703125,0.15882496535778046,-0.009773843921720982,-0.1160643994808197
1766399537927903200,-13.5750966796875,0.1563815027475357,-0.02321287989616394,-0.22846360504627228
1766399537937943600,-13.565056396484374,0.14416420459747314,-0.0354301854968071,-0.25534167885780334
1766399537947953200,-13.555046875,0.14416420459747314,-0.04886921867728233,-0.21135938167572021
1766399537957963000,-13.545037109375,0.15760323405265808,-0.039095375686883926,-0.1258382350206375
1766399537967972900,-13.535027099609374,0.15271630883216858,-0.042760565876960754,-0.08185594528913498
1766399537978043600,-13.524956298828124,0.15393804013729095,-0.025656340643763542,-0.09285151958465576
1766399537988022800,-13.514977294921875,0.16004669666290283,-0.02321287989616394,-0.12950342893600464
1766399538018082600,-13.48491748046875,0.15882496535778046,-0.004886921960860491,-0.20402899384498596
1766399538028092400,-13.474907470703124,0.16004669666290283,0,-0.24068090319633484
1766399538038132700,-13.4648671875,0.16371189057826996,-0.00733038317412138,-0.27611109614372253
1766399538048142600,-13.454857421875,0.1771509200334549,-0.012217304669320583,-0.29077184200286865
1766399538058182700,-13.4448173828125,0.17592918872833252,-0.013439035043120384,-0.2638937830924988
1766399538068192500,-13.434807373046874,0.14782938361167908,-0.02076941914856434,-0.18081611394882202
1766399538078263300,-13.42473681640625,0.1270599663257599,-0.02687807008624077,-0.06719517707824707
1766399538088273200,-13.414726806640624,0.13805554807186127,-0.02932153269648552,-0.010995574295520782
1766399538118333000,-13.3846669921875,0.05253441259264946,-0.09162978827953339,-0.35674530267715454
1766399538128342800,-13.3746572265625,0.051312681287527084,-0.10506882518529892,-0.3017674386501312
1766399538138352400,-13.364647705078125,0.025656340643763542,-0.11239920556545258,-0.19547687470912933
1766399538148362200,-13.3546376953125,-0.01466076634824276,-0.12461651116609573,-0.1514945775270462
1766399538158433000,-13.34456689453125,-0.036651913076639175,-0.1258382350206375,-0.1270599663257599
1766399538168412200,-13.334587890625,-0.0354301854968071,-0.13439035415649414,-0.10384709388017654
1766399538178422000,-13.324577880859374,-0.02932153269648552,-0.14905111491680145,-0.11239920556545258
1766399538188432000,-13.314568115234374,-0.03176499158143997,-0.16004669666290283,-0.14905111491680145
1766399538198441500,-13.30455859375,-0.030543262138962746,-0.15393804013729095,-0.19303341209888458
1766399538228532000,-13.274468017578124,-0.025656340643763542,-0.15760323405265808,-0.4434881806373596
1766399538238541600,-13.26445849609375,-0.04886921867728233,-0.15760323405265808,-0.5070181488990784
1766399538248582000,-13.254418212890625,-0.06352998316287994,-0.1466076523065567,-0.4813618063926697
1766399538258591700,-13.244408203125,-0.04153883829712868,-0.1319468915462494,-0.4092797040939331
1766399538268632000,-13.234367919921874,-0.030543262138962746,-0.07452555745840073,-0.34208452701568604
1766399538288651500,-13.214348388671874,-0.07208210229873657,0.010995574295520782,-0.26511552929878235
1766399538298691800,-13.20430810546875,-0.0659734457731247,0.03787364438176155,-0.23945917189121246
