time,seconds_elapsed,z,y,x
1766399502206360000,-49.29663989257813,-23.399999618530273,3.4800000190734863,25.3799991607666
1766399502236389400,-49.26661059570313,-22.920000076293945,3.8999998569488525,25.739999771118164
1766399502256439300,-49.246560791015625,-23.34000015258789,4.199999809265137,25.619998931884766
1766399502266449200,-49.23655078125,-23.100000381469727,4.079999923706055,25.5
1766399502276428300,-49.22657177734375,-22.920000076293945,4.019999980926514,25.5
1766399502286468600,-49.216531494140625,-22.260000228881836,3.8399999141693115,26.03999900817871
1766399502296478500,-49.206521484375,-21.719999313354492,3.240000009536743,26.579999923706055
1766399502306488300,-49.19651171875,-22.020000457763672,3.299999952316284,26.51999855041504
1766399502316498000,-49.186502197265625,-22.31999969482422,3.419999837875366,26.81999969482422
1766399502346588400,-49.15641162109375,-22.920000076293945,3.5399999618530273,26.34000015258789
1766399502356598000,-49.146402099609375,-22.020000457763672,3.359999895095825,26.34000015258789
1766399502366638300,-49.13636157226563,-21.420000076293945,3.359999895095825,26.34000015258789
1766399502376678700,-49.1263212890625,-20.81999969482422,3.240000009536743,26.639999389648438
1766399502406708000,-49.0962919921875,-21.899999618530273,3.7799999713897705,25.739999771118164
1766399502416748300,-49.08625170898438,-22.19999885559082,3.8399999141693115,26.219999313354492
1766399502456787200,-49.046212890625,-22.920000076293945,3.059999942779541,24.420000076293945
1766399502466797000,-49.03620288085938,-22.19999885559082,2.6399998664855957,24.600000381469727
1766399502476807000,-49.02619311523438,-21.600000381469727,2.3399999141693115,25.01999855041504
1766399502486877700,-49.01612231445313,-21.119998931884766,2.3999998569488525,24.899999618530273
1766399502506866700,-48.99613330078125,-20.03999900817871,3.9599997997283936,25.260000228881836
1766399502516876300,-48.986123779296875,-21.239999771118164,4.199999809265137,25.31999969482422
1766399502526886100,-48.97611376953125,-21.899999618530273,4.019999980926514,25.31999969482422
1766399502556946000,-48.94605419921875,-21.84000015258789,3.8999998569488525,24.53999900817871
1766399502566955800,-48.93604418945313,-21.959999084472656,3.7200000286102295,24.119998931884766
1766399502576935000,-48.926065185546875,-21.479999542236328,3.6599998474121094,24.65999984741211
1766399502587005700,-48.915994384765625,-21,3.5999999046325684,24.779998779296875
1766399502597015600,-48.905984375,-22.260000228881836,3.7200000286102295,25.079999923706055
1766399502607025400,-48.895974609375,-22.079999923706055,4.019999980926514,24.719999313354492
1766399502617096200,-48.88590380859375,-22.920000076293945,4.259999752044678,24.35999870300293
1766399502627105800,-48.875894287109375,-23.51999855041504,4.079999923706055,23.69999885559082
1766399502657165600,-48.84583447265625,-23.81999969482422,4.559999942779541,24.65999984741211
1766399502667175400,-48.83582446289063,-23.8799991607666,4.619999885559082,24.239999771118164
1766399502677185300,-48.82581469726563,-23.8799991607666,4.559999942779541,23.8799991607666
1766399502687195000,-48.81580517578125,-24.059999465942383,4.079999923706055,22.920000076293945
1766399502697235200,-48.805764892578125,-24,4.199999809265137,22.19999885559082
1766399502707275500,-48.79572436523438,-24.299999237060547,4.380000114440918,21.779998779296875
1766399502717255000,-48.7857451171875,-25.139999389648438,4.199999809265137,21.35999870300293
1766399502727264500,-48.775735595703125,-24.84000015258789,4.440000057220459,21.420000076293945
1766399502737274400,-48.7657255859375,-25.920000076293945,4.440000057220459,21.53999900817871
1766399502767334100,-48.73566577148438,-25.979999542236328,6.239999771118164,20.34000015258789
1766399502777374500,-48.72562548828125,-25.920000076293945,7.079999923706055,19.020000457763672
1766399502787384300,-48.71561572265625,-26.099998474121094,6.960000038146973,18.479999542236328
1766399502797394000,-48.705606201171875,-25.079999923706055,7.37999963760376,17.8799991607666
1766399502807434200,-48.69556567382813,-24.899999618530273,7.5,18.239999771118164
1766399502817444000,-48.68555590820313,-24.35999870300293,7.679999828338623,19.020000457763672
1766399502827453700,-48.67554638671875,-24,8.15999984741211,18.479999542236328
1766399502837433000,-48.66556689453125,-24.239999771118164,8.880000114440918,18.65999984741211
1766399502857483000,-48.64551708984375,-25.139999389648438,10.800000190734863,17.459999084472656
1766399502877502700,-48.62549731445313,-25.979999542236328,11.75999927520752,17.81999969482422
1766399502887512300,-48.61548779296875,-25.619998931884766,12.479999542236328,18.600000381469727
1766399502897522200,-48.60547778320313,-24.719999313354492,13.380000114440918,19.139999389648438
1766399502907593000,-48.59540698242188,-24.18000030517578,13.5,19.85999870300293
1766399502917602800,-48.58539721679688,-23.81999969482422,14.34000015258789,20.219999313354492
1766399502927643000,-48.575357177734375,-23.100000381469727,14.639999389648438,20.579999923706055
1766399502937652700,-48.56534716796875,-22.739999771118164,14.460000038146973,20.8799991607666
1766399502997772300,-48.505227783203125,-22.979999542236328,14.34000015258789,22.19999885559082
1766399503007812600,-48.4951875,-22.85999870300293,14.039999961853027,22.799999237060547
1766399503027832300,-48.47516772460938,-22.619998931884766,13.4399995803833,23.579999923706055
1766399508125001000,-43.3779990234375,-24.479999542236328,6,25.619998931884766
1766399508174710800,-43.32828930664063,-26.099998474121094,0.35999998450279236,24.479999542236328
1766399508224851200,-43.27814868164062,-26.939998626708984,1.9799998998641968,25.3799991607666
1766399508234860800,-43.26813916015625,-27.479999542236328,1.559999942779541,25.260000228881836
1766399508275022000,-43.22797802734375,-26.03999900817871,0.8999999761581421,25.139999389648438
1766399508285031700,-43.21796826171875,-26.15999984741211,1.2599999904632568,25.3799991607666
1766399508315122200,-43.1878779296875,-25.68000030517578,0.17999999225139618,24.299999237060547
1766399508375080700,-43.127919189453124,-25.85999870300293,-0.05999999865889549,25.31999969482422
1766399508425190700,-43.077809326171874,-25.5,1.0799999237060547,24.959999084472656
1766399508475361500,-43.027638427734374,-25.260000228881836,0.7199999690055847,24.53999900817871
1766399508495411500,-43.00758862304688,-25.920000076293945,0.17999999225139618,23.939998626708984
1766399508505451800,-42.99754833984375,-25.920000076293945,-0.23999999463558197,24.299999237060547
1766399508515461600,-42.987538330078124,-25.979999542236328,-0.17999999225139618,24.84000015258789
1766399508525471200,-42.97752880859375,-25.979999542236328,-0.5999999642372131,25.01999855041504
1766399508535542300,-42.967457763671874,-26.34000015258789,-0.41999998688697815,25.139999389648438
1766399508545552000,-42.9574482421875,-26.8799991607666,0.35999998450279236,25.5
1766399508575703300,-42.927296630859374,-25.5,-0.05999999865889549,25.559999465942383
1766399508585713200,-42.917286865234374,-24.479999542236328,-0.29999998211860657,25.3799991607666
1766399508595722800,-42.90727734375,-24.600000381469727,-0.5999999642372131,24.600000381469727
1766399508605732600,-42.897267333984374,-24.299999237060547,-0.6599999666213989,25.139999389648438
1766399508615742500,-42.887257568359374,-25.01999855041504,-0.8999999761581421,24.719999313354492
1766399508625752000,-42.877248046875,-26.459999084472656,-1.0199999809265137,24.53999900817871
1766399508635762000,-42.867238037109374,-27.719999313354492,-1.6200000047683716,24.479999542236328
1766399508645802200,-42.85719775390625,-28.139999389648438,-1.0799999237060547,24.779998779296875
1766399508665821700,-42.83717822265625,-28.139999389648438,-1.1399999856948853,25.3799991607666
1766399508685841200,-42.81715893554688,-27.059999465942383,-0.8399999737739563,25.439998626708984
1766399508695881500,-42.807118408203124,-26.51999855041504,-0.7799999713897705,25.68000030517578
1766399508705891300,-42.797108642578124,-25.920000076293945,-1.6200000047683716,24.299999237060547
1766399508715962000,-42.787037841796874,-27.299999237060547,-2.2799999713897705,24.119998931884766
1766399508726002400,-42.77699755859375,-26.81999969482422,-2.3999998569488525,23.8799991607666
1766399508736012000,-42.76698803710938,-27,-2.3399999141693115,23.939998626708984
1766399508746022000,-42.75697802734375,-27.599998474121094,-2.0399999618530273,24.899999618530273
1766399508786091500,-42.716908447265624,-26.34000015258789,-3,24.299999237060547
1766399508796101000,-42.70689892578125,-26.399999618530273,-3.4800000190734863,24.479999542236328
1766399508806111000,-42.696888916015624,-26.399999618530273,-3.059999942779541,24.65999984741211
1766399508816181800,-42.686818359375,-26.939998626708984,-3,24.84000015258789
1766399508836232000,-42.66676806640625,-26.03999900817871,-3.059999942779541,24.84000015258789
1766399508846272000,-42.65672802734375,-25.979999542236328,-3.7799999713897705,25.079999923706055
1766399508876362500,-42.626637451171874,-26.69999885559082,-4.319999694824219,24.53999900817871
1766399508886372000,-42.6166279296875,-26.459999084472656,-3.8399999141693115,24.239999771118164
1766399508896412400,-42.60658764648438,-26.69999885559082,-4.079999923706055,24.420000076293945
1766399508906422300,-42.59657763671875,-26.51999855041504,-3.7200000286102295,25.31999969482422
1766399508916462600,-42.586537353515624,-27.059999465942383,-3.419999837875366,25.619998931884766
1766399508926472200,-42.57652783203125,-27.53999900817871,-3.299999952316284,25.979999542236328
1766399508936482000,-42.56651806640625,-27.599998474121094,-2.93999981880188,26.279998779296875
1766399508946461400,-42.55653857421875,-27.65999984741211,-2.93999981880188,25.85999870300293
1766399508976521200,-42.526478759765624,-25.920000076293945,-2.819999933242798,26.15999984741211
1766399509016621300,-42.486378662109374,-27.059999465942383,-3.299999952316284,24.53999900817871
1766399509026631000,-42.476369140625,-27.239999771118164,-3.7799999713897705,25.260000228881836
1766399509036671200,-42.46632885742188,-27.18000030517578,-4.079999923706055,25.079999923706055
1766399509046711600,-42.456288330078124,-27.119998931884766,-4.199999809265137,25.68000030517578
1766399509056751900,-42.446248046875,-27.059999465942383,-4.319999694824219,25.559999465942383
1766399509076801800,-42.4261982421875,-27.35999870300293,-3.5999999046325684,25.619998931884766
1766399509086811600,-42.416188232421874,-26.579999923706055,-3.9599997997283936,25.31999969482422
1766399509096882400,-42.40611767578125,-26.219999313354492,-3.8399999141693115,25.31999969482422
1766399509116932600,-42.3860673828125,-24.899999618530273,-3.5399999618530273,25.85999870300293
1766399509126942200,-42.37605786132813,-25.920000076293945,-3.4800000190734863,26.459999084472656
1766399509136982500,-42.366017578125,-26.219999313354492,-3.419999837875366,26.34000015258789
1766399509146992400,-42.356007568359374,-26.81999969482422,-3.7799999713897705,26.279998779296875
1766399509157002000,-42.345998046875,-27.420000076293945,-4.139999866485596,25.68000030517578
1766399509197102000,-42.30589794921875,-25.559999465942383,-3.5399999618530273,26.51999855041504
1766399509207173000,-42.295826904296874,-25.979999542236328,-3.299999952316284,26.099998474121094
1766399509217182700,-42.2858173828125,-26.639999389648438,-3,25.85999870300293
1766399509227192600,-42.275807373046874,-26.399999618530273,-2.879999876022339,26.34000015258789
1766399509237233000,-42.26576708984375,-26.8799991607666,-3.240000009536743,25.920000076293945
1766399509247303700,-42.2556962890625,-27.119998931884766,-3.5999999046325684,25.85999870300293
1766399509287403800,-42.21559619140625,-26.15999984741211,-4.619999885559082,25.3799991607666
1766399509297413400,-42.20558666992188,-26.579999923706055,-3.8399999141693115,24.84000015258789
1766399509307423200,-42.19557666015625,-26.399999618530273,-3.419999837875366,24.719999313354492
1766399509317433000,-42.18556689453125,-25.920000076293945,-3.299999952316284,24.84000015258789
1766399509327442700,-42.17555737304688,-25.439998626708984,-3.5399999618530273,24.65999984741211
1766399509337483000,-42.16551708984375,-25.619998931884766,-4.139999866485596,24.719999313354492
1766399509347492900,-42.155507080078124,-25.920000076293945,-4.440000057220459,24.899999618530273
1766399509357502700,-42.145497314453124,-26.760000228881836,-5.099999904632568,24.65999984741211
1766399509367542800,-42.13545727539063,-27.119998931884766,-4.319999694824219,25.079999923706055
1766399509417652700,-42.08534716796875,-27.059999465942383,-4.319999694824219,25.5
1766399509427662600,-42.07533740234375,-26.69999885559082,-4.5,25.619998931884766
1766399509437672200,-42.06532788085938,-25.979999542236328,-4.440000057220459,25.559999465942383
1766399509447682000,-42.05531787109375,-25.079999923706055,-4.440000057220459,25.85999870300293
1766399509457722400,-42.045277587890624,-23.81999969482422,-3.8399999141693115,26.34000015258789
1766399509467732000,-42.03526806640625,-24.35999870300293,-3.9599997997283936,26.639999389648438
1766399509477741800,-42.025258056640624,-25.31999969482422,-3.7200000286102295,26.639999389648438
1766399509527912700,-41.97508740234375,-25.079999923706055,-3.4800000190734863,25.799999237060547
1766399509537953000,-41.965046875,-24.84000015258789,-4.019999980926514,25.68000030517578
1766399509558003200,-41.944996826171874,-25.31999969482422,-4.259999752044678,24.84000015258789
1766399509568012800,-41.9349873046875,-25.739999771118164,-3.9599997997283936,25.19999885559082
1766399509578053000,-41.92494677734375,-24.84000015258789,-3.5399999618530273,25.619998931884766
1766399509618153200,-41.8848466796875,-24.84000015258789,-4.559999942779541,24.779998779296875
1766399509628163000,-41.8748369140625,-25.619998931884766,-4.139999866485596,24.779998779296875
1766399509638172700,-41.86482739257813,-26.099998474121094,-3.8399999141693115,24.719999313354492
1766399509648182500,-41.8548173828125,-25.619998931884766,-3.7799999713897705,24.84000015258789
1766399509668232400,-41.834767578125,-25.19999885559082,-2.819999933242798,25.19999885559082
1766399509688252200,-41.814747802734374,-25.920000076293945,-2.1599998474121094,25.5
1766399509698292500,-41.80470751953125,-26.099998474121094,-2.700000047683716,25.19999885559082
1766399509728382700,-41.7746171875,-23.81999969482422,-4.019999980926514,25.139999389648438
1766399509748371700,-41.754628173828124,-23.8799991607666,-4.739999771118164,25.31999969482422
1766399509768391200,-41.73460888671875,-25.19999885559082,-4.799999713897705,25.079999923706055
1766399509778431500,-41.72456860351563,-25.439998626708984,-4.859999656677246,24.719999313354492
1766399509788441300,-41.71455859375,-25.260000228881836,-4.019999980926514,25.19999885559082
1766399509798451200,-41.704548828125,-25.68000030517578,-3.8399999141693115,25.31999969482422
1766399509838551300,-41.66444873046875,-24.53999900817871,-3.8999998569488525,24.84000015258789
1766399509848530400,-41.654469482421874,-24.119998931884766,-3.7200000286102295,24.719999313354492
1766399509858570800,-41.64442919921875,-24.420000076293945,-3.8999998569488525,24.84000015258789
1766399509868580400,-41.63441967773438,-23.8799991607666,-4.199999809265137,24.65999984741211
1766399509878590200,-41.62440991210938,-24.18000030517578,-4.920000076293945,24.53999900817871
1766399509888569600,-41.614430419921874,-25.01999855041504,-4.199999809265137,24.53999900817871
1766399509898609700,-41.60439038085938,-25.139999389648438,-3.8999998569488525,24.299999237060547
1766399509938709800,-41.56429028320313,-24.84000015258789,-3.299999952316284,25.559999465942383
1766399509948719600,-41.5542802734375,-25.260000228881836,-3.6599998474121094,25.85999870300293
1766399509968739000,-41.53426098632813,-26.03999900817871,-4.440000057220459,25.31999969482422
1766399509978749000,-41.5242509765625,-26.51999855041504,-4.619999885559082,24.959999084472656
1766399509988758800,-41.5142412109375,-26.219999313354492,-4.019999980926514,24.959999084472656
1766399509998768400,-41.50423168945313,-25.739999771118164,-4.199999809265137,24.959999084472656
1766399510038807600,-41.4641923828125,-26.34000015258789,-4.139999866485596,25.85999870300293
1766399510048848000,-41.454152099609374,-26.69999885559082,-3.7200000286102295,26.03999900817871
1766399510058888200,-41.44411181640625,-26.399999618530273,-3.5399999618530273,25.68000030517578
1766399510068897800,-41.43410229492188,-26.219999313354492,-3.4800000190734863,25.799999237060547
1766399510078938000,-41.424061767578124,-26.15999984741211,-3.5399999618530273,25.920000076293945
1766399510088917500,-41.41408251953125,-25.920000076293945,-3.7799999713897705,25.31999969482422
1766399510098957600,-41.40404248046875,-25.920000076293945,-3.7799999713897705,25.139999389648438
1766399510108967400,-41.394032470703124,-26.099998474121094,-3.9599997997283936,25.139999389648438
1766399510138996700,-41.364003173828124,-25.979999542236328,-3.4800000190734863,26.03999900817871
1766399510149006600,-41.353993408203124,-25.739999771118164,-3.119999885559082,26.399999618530273
1766399510159016200,-41.34398388671875,-26.579999923706055,-3.5399999618530273,26.34000015258789
1766399510169087000,-41.3339130859375,-26.81999969482422,-3.359999895095825,26.34000015258789
1766399510179096800,-41.323903076171874,-26.579999923706055,-3.419999837875366,26.279998779296875
1766399510199208000,-41.3037919921875,-25.85999870300293,-3.299999952316284,26.639999389648438
1766399510249348400,-41.253651611328124,-26.459999084472656,-3.6599998474121094,25.979999542236328
1766399510259388700,-41.243611328125,-26.69999885559082,-3.8999998569488525,25.079999923706055
1766399510269398300,-41.23360180664063,-26.459999084472656,-3.8999998569488525,24.899999618530273
1766399510279408000,-41.223591796875,-26.399999618530273,-4.139999866485596,24.65999984741211
1766399510289418000,-41.21358203125,-25.739999771118164,-4.019999980926514,25.079999923706055
1766399510299458000,-41.2035419921875,-25.85999870300293,-4.199999809265137,24.899999618530273
1766399510309468000,-41.193531982421874,-25.979999542236328,-3.8399999141693115,25.079999923706055
1766399510319477800,-41.183522216796874,-26.69999885559082,-3.7799999713897705,25.5
1766399510369679000,-41.13332080078125,-24.719999313354492,-3.8999998569488525,25.01999855041504
1766399510379719400,-41.123280517578124,-24.479999542236328,-4.259999752044678,25.01999855041504
1766399510389729300,-41.113270751953124,-25.619998931884766,-3.7799999713897705,25.439998626708984
1766399510399739000,-41.10326123046875,-25.260000228881836,-3.6599998474121094,25.559999465942383
1766399510409718300,-41.09328173828125,-25.3799991607666,-3.8999998569488525,25.739999771118164
1766399510419758300,-41.08324169921875,-25.979999542236328,-3.240000009536743,25.799999237060547
1766399510449757200,-41.05324291992188,-24.239999771118164,-3.179999828338623,25.5
1766399510459797500,-41.043202392578124,-23.69999885559082,-3.4800000190734863,24.959999084472656
1766399510469807400,-41.033192626953124,-23.760000228881836,-3.299999952316284,25.079999923706055
1766399510479817000,-41.02318310546875,-24.299999237060547,-2.700000047683716,25.439998626708984
1766399510489826800,-41.013173095703124,-24.18000030517578,-3.299999952316284,25.260000228881836
1766399510509846300,-40.99315380859375,-24,-2.3999998569488525,26.459999084472656
1766399510519856000,-40.983143798828124,-23.15999984741211,-2.5199999809265137,26.15999984741211
1766399510529866000,-40.973134033203124,-23.399999618530273,-2.2799999713897705,26.399999618530273
1766399510559956200,-40.943043701171874,-24.479999542236328,-3.8399999141693115,25.079999923706055
1766399510569966000,-40.933033935546874,-24.65999984741211,-3.8999998569488525,24.779998779296875
1766399510580067300,-40.9229326171875,-24.479999542236328,-4.079999923706055,24.779998779296875
1766399510590046500,-40.91295361328125,-25.079999923706055,-3.419999837875366,24.600000381469727
1766399510610066200,-40.892933837890624,-23.939998626708984,-3.179999828338623,24.779998779296875
1766399510620167400,-40.88283251953125,-23.579999923706055,-3.4800000190734863,24.479999542236328
1766399510630146600,-40.872853515625,-22.31999969482422,-3.9599997997283936,24.239999771118164
1766399510660267500,-40.842732421875,-24.84000015258789,-3.7200000286102295,25.68000030517578
1766399510670277400,-40.83272265625,-25.85999870300293,-3.359999895095825,25.68000030517578
1766399510680287000,-40.82271313476563,-26.099998474121094,-4.199999809265137,24.959999084472656
1766399510690388200,-40.81261181640625,-25.5,-4.019999980926514,25.439998626708984
1766399510700398000,-40.802601806640624,-25.19999885559082,-3.9599997997283936,25.3799991607666
1766399510710408000,-40.792592041015624,-25.619998931884766,-3.8399999141693115,25.439998626708984
1766399510720417500,-40.78258251953125,-24.719999313354492,-3.419999837875366,25.68000030517578
1766399510730457900,-40.77254223632813,-24.600000381469727,-3.240000009536743,26.099998474121094
1766399510740467700,-40.7625322265625,-24.479999542236328,-3.240000009536743,26.459999084472656
1766399510770527500,-40.732472412109374,-24.119998931884766,-3.4800000190734863,26.69999885559082
1766399510780598300,-40.722401611328124,-24.719999313354492,-3.299999952316284,26.399999618530273
1766399510790577700,-40.71242236328125,-25.19999885559082,-3.7200000286102295,25.920000076293945
1766399510800617700,-40.70238232421875,-24.84000015258789,-3.5399999618530273,25.439998626708984
1766399510810658000,-40.69234204101563,-25.979999542236328,-3.419999837875366,25.01999855041504
1766399510820668000,-40.68233203125,-25.260000228881836,-3.7200000286102295,24.719999313354492
1766399510830677800,-40.672322265625,-25.5,-3.7799999713897705,24.84000015258789
1766399510840687400,-40.66231274414063,-26.099998474121094,-3.8399999141693115,25.139999389648438
1766399510860706800,-40.64229321289063,-26.15999984741211,-4.380000114440918,25.01999855041504
1766399510870716700,-40.63228344726563,-24.779998779296875,-4.980000019073486,25.19999885559082
1766399510880726500,-40.6222734375,-24.53999900817871,-5.339999675750732,24.899999618530273
1766399510890766800,-40.612233154296874,-24.059999465942383,-4.980000019073486,25.619998931884766
1766399510900776400,-40.6022236328125,-23.51999855041504,-5.400000095367432,25.260000228881836
1766399510910786300,-40.592213623046874,-24.479999542236328,-4.559999942779541,25.139999389648438
1766399510920796200,-40.582203857421874,-24.84000015258789,-4.380000114440918,25.31999969482422
1766399510930836200,-40.57216381835938,-25.799999237060547,-4.079999923706055,25.079999923706055
1766399510940876500,-40.56212353515625,-26.459999084472656,-3.5399999618530273,25.19999885559082
1766399511001057300,-40.501942626953124,-25.139999389648438,-2.5799999237060547,25.559999465942383
1766399511021107500,-40.481892578125,-24.18000030517578,-2.4600000381469727,26.399999618530273
1766399511031117000,-40.47188305664063,-23.579999923706055,-2.2799999713897705,26.69999885559082
1766399511041127000,-40.461873046875,-23.279998779296875,-1.6799999475479126,26.34000015258789
1766399511051136500,-40.45186352539063,-23.939998626708984,-2.1599998474121094,25.739999771118164
1766399511061146400,-40.441853515625,-24.479999542236328,-1.9199999570846558,25.260000228881836
1766399511071156200,-40.43184375,-24.65999984741211,-2.4600000381469727,25.260000228881836
1766399511091206100,-40.4117939453125,-25.079999923706055,-2.4600000381469727,25.139999389648438
1766399511101216000,-40.401783935546874,-25.079999923706055,-1.9799998998641968,25.68000030517578
1766399511121235500,-40.3817646484375,-25.01999855041504,-1.9199999570846558,25.68000030517578
1766399511131245300,-40.371754638671874,-24.420000076293945,-2.5199999809265137,25.619998931884766
1766399511141255000,-40.3617451171875,-25.079999923706055,-3.299999952316284,24.84000015258789
1766399511151295200,-40.35170483398438,-26.099998474121094,-3,24.719999313354492
1766399511161305000,-40.34169482421875,-26.219999313354492,-2.6399998664855957,24.779998779296875
1766399511171315000,-40.33168505859375,-27.35999870300293,-2.0399999618530273,25.139999389648438
1766399511181355000,-40.32164501953125,-27.35999870300293,-1.4399999380111694,25.920000076293945
1766399511191364900,-40.31163525390625,-26.939998626708984,-1.4399999380111694,26.459999084472656
1766399511201374700,-40.301625244140624,-27.899999618530273,-1.3199999332427979,25.799999237060547
1766399511211384300,-40.29161572265625,-27.059999465942383,-1.9799998998641968,25.619998931884766
1766399511221424600,-40.28157543945313,-26.939998626708984,-2.5199999809265137,24.65999984741211
1766399511231465000,-40.27153515625,-26.579999923706055,-2.819999933242798,24.420000076293945
1766399511241505300,-40.26149462890625,-25.619998931884766,-2.879999876022339,24.959999084472656
1766399511251576000,-40.251423828125,-26.099998474121094,-2.3999998569488525,25.260000228881836
1766399511261586000,-40.2414140625,-26.219999313354492,-1.7400000095367432,25.85999870300293
1766399511271595500,-40.23140454101563,-26.81999969482422,-1.7400000095367432,25.439998626708984
1766399511311665200,-40.1913349609375,-27.779998779296875,-1.1399999856948853,24.53999900817871
1766399511321675000,-40.181324951171874,-27.899999618530273,-1.2599999904632568,24.959999084472656
1766399511331715300,-40.17128466796875,-27.299999237060547,-1.3199999332427979,25.260000228881836
1766399511341755600,-40.161244384765624,-26.579999923706055,-1.9799998998641968,25.260000228881836
1766399511361775000,-40.141224853515624,-25.31999969482422,-2.2799999713897705,25.439998626708984
1766399511371784700,-40.13121533203125,-25.31999969482422,-2.3399999141693115,24.84000015258789
1766399511401875200,-40.101124755859374,-26.459999084472656,-1.7999999523162842,25.5
1766399511411915500,-40.09108447265625,-26.51999855041504,-2.0399999618530273,25.31999969482422
1766399511421925000,-40.08107495117188,-26.15999984741211,-2.2200000286102295,24.959999084472656
1766399511431935000,-40.07106494140625,-25.979999542236328,-2.0399999618530273,25.01999855041504
1766399511442005800,-40.060994140625,-26.760000228881836,-1.1999999284744263,24.719999313354492
1766399511452046000,-40.050953857421874,-27.18000030517578,-1.0799999237060547,24.53999900817871
1766399511462056000,-40.040944091796874,-26.69999885559082,-1.559999942779541,24.53999900817871
1766399511472035000,-40.03096484375,-27.599998474121094,-1.7400000095367432,24.779998779296875
1766399511482105900,-40.02089404296875,-28.139999389648438,-2.2799999713897705,24.600000381469727
1766399511542256000,-39.960743896484374,-26.69999885559082,-1.559999942779541,25.01999855041504
1766399511552265700,-39.950734375,-27.18000030517578,-1.3199999332427979,24.84000015258789
1766399511562275600,-39.940724365234374,-27.420000076293945,-1.9799998998641968,24.239999771118164
1766399511572285200,-39.93071484375,-28.01999855041504,-1.7400000095367432,24.719999313354492
1766399511582295000,-39.920705078125,-27.599998474121094,-1.7999999523162842,24.899999618530273
1766399511622395100,-39.88060498046875,-27.53999900817871,-2.5799999237060547,24.479999542236328
1766399511632405000,-39.870594970703124,-26.69999885559082,-1.7999999523162842,24.959999084472656
1766399511642475800,-39.860524169921874,-26.639999389648438,-1.9199999570846558,24.959999084472656
1766399511652516000,-39.85048388671875,-26.639999389648438,-1.1999999284744263,25.5
1766399511662525700,-39.84047436523438,-26.34000015258789,-1.3799999952316284,25.31999969482422
1766399511672535600,-39.83046435546875,-26.81999969482422,-1.559999942779541,25.19999885559082
1766399511682576000,-39.820424072265624,-26.459999084472656,-1.6200000047683716,25.619998931884766
1766399511692616200,-39.8103837890625,-26.34000015258789,-1.1999999284744263,26.03999900817871
1766399511732655000,-39.77034497070313,-25.979999542236328,-1.3199999332427979,25.68000030517578
1766399511752674800,-39.7503251953125,-26.399999618530273,-2.5199999809265137,25.619998931884766
1766399511762745600,-39.74025439453125,-26.760000228881836,-2.2799999713897705,25.19999885559082
1766399511772755200,-39.73024487304688,-27.479999542236328,-2.4600000381469727,25.01999855041504
1766399511782765000,-39.72023486328125,-27.599998474121094,-2.1599998474121094,25.139999389648438
1766399511792775000,-39.71022509765625,-28.079999923706055,-1.8600000143051147,25.139999389648438
1766399511802784500,-39.70021557617188,-27.65999984741211,-1.6799999475479126,25.739999771118164
1766399511842884600,-39.66011547851563,-26.81999969482422,-2.2200000286102295,25.01999855041504
1766399511862904300,-39.640095703125,-27.84000015258789,-1.9199999570846558,25.5
1766399511872914000,-39.63008618164063,-28.01999855041504,-2.0999999046325684,25.559999465942383
1766399511882923800,-39.620076171875,-27.719999313354492,-1.6799999475479126,25.3799991607666
1766399511892933400,-39.61006665039063,-28.19999885559082,-1.9199999570846558,24.959999084472656
1766399511902973700,-39.6000263671875,-28.3799991607666,-1.8600000143051147,24.53999900817871
1766399511912983600,-39.590016357421874,-28.01999855041504,-1.6200000047683716,24.65999984741211
1766399511953144600,-39.54985546875,-26.760000228881836,-1.6799999475479126,24.959999084472656
1766399511973164300,-39.529835693359374,-27.18000030517578,-2.3399999141693115,24.65999984741211
1766399511983174000,-39.519826171875,-27.779998779296875,-2.0999999046325684,24.600000381469727
1766399511993183700,-39.509816162109374,-28.439998626708984,-1.7400000095367432,25.799999237060547
1766399512003193600,-39.499806396484374,-28.5,-2.1599998474121094,25.3799991607666
1766399512013234000,-39.48976611328125,-27.959999084472656,-2.700000047683716,25.139999389648438
1766399512043263000,-39.45973706054688,-26.81999969482422,-2.5799999237060547,24.479999542236328
1766399512053303300,-39.44969677734375,-26.760000228881836,-1.9199999570846558,24.719999313354492
1766399512063313200,-39.439686767578124,-25.5,-1.9799998998641968,25.439998626708984
1766399512073323000,-39.429677001953124,-25.979999542236328,-2.3399999141693115,24.719999313354492
1766399512083363000,-39.41963696289063,-26.639999389648438,-2.0999999046325684,24.65999984741211
1766399512093434000,-39.40956591796875,-26.81999969482422,-1.8600000143051147,24.35999870300293
1766399512103443700,-39.39955639648438,-28.079999923706055,-1.9799998998641968,24.119998931884766
1766399512113453600,-39.38954638671875,-28.01999855041504,-1.9799998998641968,24.719999313354492
1766399512133503500,-39.36949658203125,-26.760000228881836,-2.1599998474121094,24.899999618530273
1766399512143543800,-39.35945629882813,-25.799999237060547,-1.559999942779541,24.959999084472656
1766399512153553700,-39.3494462890625,-25.979999542236328,-1.3199999332427979,24.479999542236328
1766399512163563300,-39.33943676757813,-25.799999237060547,-1.4399999380111694,24.719999313354492
1766399512173603600,-39.329396484375,-26.279998779296875,-1.5,24.479999542236328
1766399512183613400,-39.319386474609374,-26.399999618530273,-2.2799999713897705,24.65999984741211
1766399512193623300,-39.309376708984374,-25.799999237060547,-2.3999998569488525,24.959999084472656
1766399512203663400,-39.29933666992188,-26.579999923706055,-2.2799999713897705,25.31999969482422
1766399512213734400,-39.289265625,-26.81999969482422,-2.4600000381469727,25.260000228881836
1766399512223744000,-39.27925610351563,-27.35999870300293,-2.1599998474121094,24.84000015258789
1766399512263813600,-39.239186279296874,-28.139999389648438,-2.6399998664855957,24.959999084472656
1766399512273792800,-39.22920727539063,-28.01999855041504,-2.4600000381469727,25.01999855041504
1766399512283802600,-39.219197265625,-27.65999984741211,-2.0999999046325684,25.079999923706055
1766399512293812500,-39.2091875,-28.01999855041504,-2.5199999809265137,24.899999618530273
1766399512303852800,-39.199147216796874,-28.19999885559082,-2.0999999046325684,24.84000015258789
1766399512313862400,-39.1891376953125,-28.01999855041504,-1.7400000095367432,25.68000030517578
1766399512323933200,-39.17906689453125,-27.299999237060547,-0.9599999785423279,25.85999870300293
1766399512374012700,-39.1289873046875,-27.479999542236328,-2.3999998569488525,23.81999969482422
1766399512384083500,-39.11891650390625,-27.599998474121094,-2.2799999713897705,24.65999984741211
1766399512394093000,-39.10890698242188,-27.53999900817871,-2.1599998474121094,25.139999389648438
1766399512404103000,-39.09889697265625,-27.53999900817871,-2.0999999046325684,24.959999084472656
1766399512414143200,-39.088856689453124,-27.84000015258789,-2.0399999618530273,25.079999923706055
1766399512424183600,-39.07881640625,-27.420000076293945,-1.7999999523162842,24.600000381469727
1766399512434162700,-39.06883740234375,-28.260000228881836,-1.3799999952316284,25.139999389648438
1766399512464192000,-39.03880810546875,-27.479999542236328,-0.9599999785423279,25.19999885559082
1766399512504261600,-38.99873828125,-26.099998474121094,-2.3999998569488525,24.600000381469727
1766399512514240800,-38.98875927734375,-26.34000015258789,-2.0399999618530273,25.01999855041504
1766399512534321400,-38.9686787109375,-28.260000228881836,-2.2200000286102295,24.959999084472656
1766399512544331300,-38.958668701171874,-28.19999885559082,-2.2200000286102295,25.01999855041504
1766399512564320300,-38.9386796875,-27.779998779296875,-1.1399999856948853,25.559999465942383
1766399512574330000,-38.928669921875,-27.420000076293945,-1.3199999332427979,25.85999870300293
1766399512584339700,-38.91866040039063,-27.18000030517578,-1.0199999809265137,26.03999900817871
1766399512594349600,-38.908650390625,-26.51999855041504,-1.1999999284744263,26.099998474121094
1766399512614430200,-38.88856982421875,-26.579999923706055,-1.6200000047683716,24.479999542236328
1766399512624439800,-38.87856030273438,-26.34000015258789,-2.5799999237060547,23.81999969482422
1766399512634449700,-38.86855029296875,-26.69999885559082,-2.700000047683716,23.459999084472656
1766399512654530300,-38.8484697265625,-26.03999900817871,-3,24.239999771118164
1766399512694660900,-38.808339111328124,-26.81999969482422,-2.5799999237060547,24.959999084472656
1766399512704701200,-38.798298828125,-27.299999237060547,-2.3999998569488525,24.84000015258789
1766399512714710800,-38.78828930664063,-26.81999969482422,-1.7999999523162842,25.079999923706055
1766399512724751000,-38.778248779296874,-27.18000030517578,-1.9199999570846558,25.01999855041504
1766399512734791400,-38.76820849609375,-27.599998474121094,-2.1599998474121094,24.84000015258789
1766399512744801300,-38.75819873046875,-26.8799991607666,-1.9799998998641968,24.959999084472656
1766399512754811000,-38.74818920898438,-26.939998626708984,-1.9799998998641968,25.079999923706055
1766399512794911000,-38.70808911132813,-25.920000076293945,-1.4399999380111694,24.479999542236328
1766399512804951300,-38.698048583984374,-26.760000228881836,-1.9199999570846558,24.059999465942383
1766399512814991600,-38.68800830078125,-27.53999900817871,-1.9799998998641968,24.420000076293945
1766399512825001500,-38.67799853515625,-28.439998626708984,-1.8600000143051147,24.35999870300293
1766399512835011000,-38.66798901367188,-28.079999923706055,-1.8600000143051147,24.779998779296875
1766399512845021000,-38.65797900390625,-27.779998779296875,-1.3799999952316284,24.719999313354492
1766399512855030800,-38.64796923828125,-27.420000076293945,-0.7199999690055847,24.84000015258789
1766399512865040400,-38.63795971679688,-27.53999900817871,-0.8399999737739563,24.239999771118164
1766399512915150300,-38.587849609375,-26.03999900817871,-1.1399999856948853,25.439998626708984
1766399512925221000,-38.57777880859375,-26.03999900817871,-1.7999999523162842,24.53999900817871
1766399512945301800,-38.5576982421875,-25.979999542236328,-2.0399999618530273,24
1766399512955281000,-38.547718994140624,-26.579999923706055,-2.1599998474121094,23.8799991607666
1766399512965290800,-38.537709228515624,-27.18000030517578,-1.9199999570846558,24.420000076293945
1766399512975331000,-38.5276689453125,-27.599998474121094,-2.3399999141693115,24.119998931884766
1766399513005421300,-38.49757861328125,-25.979999542236328,-2.0399999618530273,23.639999389648438
1766399513015492000,-38.4875078125,-25.68000030517578,-2.1599998474121094,23.760000228881836
1766399513025563000,-38.47743701171875,-26.34000015258789,-2.2200000286102295,23.399999618530273
1766399513035572700,-38.46742724609375,-25.619998931884766,-2.3399999141693115,23.760000228881836
1766399513045582300,-38.45741772460938,-26.219999313354492,-2.2200000286102295,24
1766399513055592200,-38.44740771484375,-26.459999084472656,-2.0999999046325684,23.8799991607666
1766399513065632500,-38.437367431640624,-25.979999542236328,-2.4600000381469727,24.119998931884766
1766399513075642400,-38.427357666015624,-27.18000030517578,-2.700000047683716,23.8799991607666
1766399513115681300,-38.387318603515624,-27.599998474121094,-1.4399999380111694,23.51999855041504
1766399513125691100,-38.377308837890624,-27.420000076293945,-1.559999942779541,23.69999885559082
1766399513135731500,-38.3672685546875,-28.19999885559082,-1.559999942779541,23.8799991607666
1766399513145741000,-38.35725903320313,-27.18000030517578,-1.4399999380111694,24.059999465942383
1766399513165730000,-38.33727001953125,-26.8799991607666,-1.6799999475479126,23.81999969482422
1766399513175770400,-38.32722973632813,-26.639999389648438,-1.3799999952316284,24.53999900817871
1766399513215840000,-38.287159912109374,-28.01999855041504,-2.93999981880188,23.219999313354492
1766399513225880300,-38.27711962890625,-27.719999313354492,-2.759999990463257,23.579999923706055
1766399513235890000,-38.26711010742188,-27.53999900817871,-2.3399999141693115,23.760000228881836
1766399513245899800,-38.25710034179688,-27.119998931884766,-2.819999933242798,23.8799991607666
1766399513255940000,-38.247059814453124,-26.219999313354492,-3.299999952316284,23.579999923706055
1766399513265980400,-38.23701953125,-26.81999969482422,-3.5399999618530273,23.579999923706055
1766399513275990000,-38.22701000976563,-27.059999465942383,-3.119999885559082,23.939998626708984
1766399513286030300,-38.2169697265625,-27.719999313354492,-3.059999942779541,24.18000030517578
1766399513306050000,-38.196949951171874,-28.01999855041504,-2.759999990463257,24.84000015258789
1766399513316059600,-38.1869404296875,-27.18000030517578,-3.119999885559082,25.139999389648438
1766399513326069500,-38.176930419921874,-27.059999465942383,-3.119999885559082,25.079999923706055
1766399513336079400,-38.166920654296874,-27.18000030517578,-3,24.779998779296875
1766399513346089000,-38.1569111328125,-27.779998779296875,-2.6399998664855957,24.479999542236328
1766399513356098800,-38.146901123046874,-28.559999465942383,-2.1599998474121094,24.35999870300293
1766399513376118300,-38.1268818359375,-28.079999923706055,-1.559999942779541,25.31999969482422
1766399513386128100,-38.116871826171874,-27.239999771118164,-1.559999942779541,25.559999465942383
1766399513426136600,-38.07686352539063,-25.559999465942383,-3.240000009536743,24.779998779296875
1766399513436146400,-38.066853515625,-25.920000076293945,-2.700000047683716,25.01999855041504
1766399513446156000,-38.05684399414063,-25.559999465942383,-2.93999981880188,25.079999923706055
1766399513456166000,-38.04683422851563,-26.399999618530273,-2.3399999141693115,25.139999389648438
1766399513466206200,-38.036793701171874,-26.81999969482422,-2.2200000286102295,24.65999984741211
1766399513476185300,-38.02681469726563,-27.53999900817871,-2.3999998569488525,24.18000030517578
1766399513486195200,-38.0168046875,-28.31999969482422,-2.1599998474121094,23.939998626708984
1766399513526234400,-37.976765625,-27.299999237060547,-2.0399999618530273,25.619998931884766
1766399513536274700,-37.966725341796874,-27,-2.819999933242798,25.01999855041504
1766399513546284300,-37.9567158203125,-25.979999542236328,-3,25.31999969482422
1766399513556294100,-37.946705810546874,-26.279998779296875,-2.5799999237060547,25.139999389648438
1766399513566334500,-37.93666552734375,-26.279998779296875,-2.759999990463257,24.719999313354492
1766399513576344000,-37.92665600585938,-27.239999771118164,-2.5199999809265137,24.65999984741211
1766399513586354000,-37.91664599609375,-27.420000076293945,-2.1599998474121094,24.959999084472656
1766399513626423600,-37.876576416015624,-28.01999855041504,-2.6399998664855957,24.420000076293945
1766399513636433200,-37.86656689453125,-27.959999084472656,-2.6399998664855957,24.299999237060547
1766399513646412500,-37.85658740234375,-27.65999984741211,-2.3999998569488525,24.600000381469727
1766399513656422100,-37.84657788085938,-26.8799991607666,-2.3399999141693115,25.260000228881836
1766399513676441900,-37.82655810546875,-26.03999900817871,-2.700000047683716,25.260000228881836
1766399513686451500,-37.81654858398438,-25.559999465942383,-2.700000047683716,25.01999855041504
1766399513716450300,-37.7865498046875,-26.81999969482422,-2.3999998569488525,25.079999923706055
1766399513726521000,-37.77647900390625,-27.84000015258789,-2.819999933242798,24.65999984741211
1766399513736500500,-37.76649951171875,-27.35999870300293,-2.700000047683716,24.059999465942383
1766399513746510000,-37.75648999023438,-27.599998474121094,-2.819999933242798,23.939998626708984
1766399513756520000,-37.74647998046875,-27.65999984741211,-2.3399999141693115,24.53999900817871
1766399513766529800,-37.73647021484375,-27.420000076293945,-2.1599998474121094,24.600000381469727
1766399513776569900,-37.72643017578125,-27.599998474121094,-2.2200000286102295,24.84000015258789
1766399513786610200,-37.71638989257813,-27,-2.2200000286102295,25.31999969482422
1766399513836720000,-37.66627978515625,-26.8799991607666,-1.5,23.81999969482422
1766399513846730000,-37.65627001953125,-27.059999465942383,-1.4399999380111694,24.059999465942383
1766399513856739600,-37.64626049804688,-27.239999771118164,-1.6799999475479126,24.299999237060547
1766399513866749400,-37.63625048828125,-27.719999313354492,-2.3399999141693115,24.18000030517578
1766399513876759300,-37.62624072265625,-27.53999900817871,-2.3999998569488525,24.899999618530273
1766399513896809200,-37.606190673828124,-27.18000030517578,-2.3999998569488525,24.53999900817871
1766399513926808000,-37.57619189453125,-27.119998931884766,-1.8600000143051147,24.479999542236328
1766399513936848400,-37.566151611328124,-27.719999313354492,-1.9799998998641968,24.479999542236328
1766399513946888700,-37.556111328125,-27.119998931884766,-1.7999999523162842,24.899999618530273
1766399513956898300,-37.54610180664063,-27.059999465942383,-1.7999999523162842,24.719999313354492
1766399513966877700,-37.536122314453124,-26.639999389648438,-2.2799999713897705,24.059999465942383
1766399513976917800,-37.52608227539063,-25.979999542236328,-2.4600000381469727,24.119998931884766
1766399513986927600,-37.516072265625,-26.459999084472656,-2.4600000381469727,23.51999855041504
1766399513996937500,-37.5060625,-26.579999923706055,-2.93999981880188,23.639999389648438
1766399514006916600,-37.49608349609375,-26.399999618530273,-2.700000047683716,23.760000228881836
1766399514036976400,-37.46602368164063,-26.15999984741211,-1.7999999523162842,24.059999465942383
1766399514046955800,-37.456044189453124,-26.579999923706055,-1.1999999284744263,24.299999237060547
1766399514057026600,-37.445973388671874,-26.51999855041504,-1.3799999952316284,24.18000030517578
1766399514067067000,-37.43593310546875,-26.8799991607666,-1.0199999809265137,23.939998626708984
1766399514077076500,-37.42592358398438,-26.8799991607666,-0.9599999785423279,24.299999237060547
1766399514087056000,-37.415944091796874,-27.479999542236328,-0.9599999785423279,24.779998779296875
1766399514097126700,-37.405873291015624,-27.119998931884766,-0.8999999761581421,24.779998779296875
1766399514107136300,-37.39586376953125,-27.420000076293945,-0.8399999737739563,25.19999885559082
1766399514137257200,-37.36574267578125,-28.19999885559082,-1.2599999904632568,24.779998779296875
1766399514147267000,-37.35573291015625,-28.439998626708984,-0.9599999785423279,24.420000076293945
1766399514157246200,-37.34575390625,-27.899999618530273,-0.8399999737739563,24.239999771118164
1766399514177296400,-37.32570361328125,-26.51999855041504,-1.6799999475479126,24.53999900817871
1766399514187306000,-37.31569409179688,-26.099998474121094,-1.9199999570846558,24.719999313354492
1766399514197315800,-37.30568408203125,-26.399999618530273,-1.9199999570846558,24.84000015258789
1766399514207295000,-37.295705078125,-26.939998626708984,-1.559999942779541,24.479999542236328
1766399514217335300,-37.28566479492188,-27.479999542236328,-1.3799999952316284,24.899999618530273
1766399514237355000,-37.26564501953125,-26.579999923706055,-0.7199999690055847,25.01999855041504
1766399514247334100,-37.255665771484374,-26.579999923706055,-0.8399999737739563,25.139999389648438
1766399514267384000,-37.23561596679688,-25.559999465942383,-1.1399999856948853,25.799999237060547
1766399514277394000,-37.22560620117188,-25.68000030517578,-0.8399999737739563,25.68000030517578
1766399514287373300,-37.215626708984374,-25.260000228881836,-1.3199999332427979,25.19999885559082
1766399514297413400,-37.20558666992188,-26.459999084472656,-1.1999999284744263,24.84000015258789
1766399514307423200,-37.19557666015625,-26.939998626708984,-0.7799999713897705,24.65999984741211
1766399514327442700,-37.17555737304688,-27.719999313354492,-0.8999999761581421,25.3799991607666
1766399514357472000,-37.14552807617188,-26.279998779296875,-1.6200000047683716,24.53999900817871
1766399514367481900,-37.13551806640625,-25.739999771118164,-1.2599999904632568,24.600000381469727
1766399514377522200,-37.125477783203124,-25.31999969482422,-1.5,24.779998779296875
1766399514387562500,-37.1154375,-25.920000076293945,-1.8600000143051147,24.35999870300293
1766399514397572000,-37.10542797851563,-26.399999618530273,-1.6799999475479126,23.8799991607666
1766399514407582000,-37.09541796875,-26.399999618530273,-2.4600000381469727,23.939998626708984
1766399514417591800,-37.085408203125,-26.51999855041504,-2.4600000381469727,23.459999084472656
1766399514427601400,-37.07539868164063,-25.799999237060547,-2.2200000286102295,24.059999465942383
1766399514457692000,-37.04530810546875,-24.779998779296875,-1.1399999856948853,24.779998779296875
1766399514467701500,-37.03529858398438,-25.619998931884766,-1.0799999237060547,24.84000015258789
1766399514497792000,-37.0052080078125,-27.959999084472656,-0.8399999737739563,24.420000076293945
1766399514507801600,-36.99519848632813,-27.420000076293945,-1.0199999809265137,23.8799991607666
1766399514517781000,-36.985218994140624,-27.119998931884766,-1.0799999237060547,24.239999771118164
1766399514527760100,-36.97523999023438,-26.219999313354492,-1.7400000095367432,23.81999969482422
1766399514537800400,-36.965199462890624,-25.920000076293945,-1.7999999523162842,24
1766399514567829800,-36.935170166015624,-26.34000015258789,-1.3199999332427979,24.35999870300293
1766399514577900500,-36.925099365234374,-25.85999870300293,-1.6799999475479126,24.119998931884766
1766399514587940900,-36.91505908203125,-26.15999984741211,-1.7999999523162842,24.600000381469727
1766399514597950500,-36.90504956054688,-26.8799991607666,-2.0399999618530273,24.35999870300293
1766399514607960300,-36.89503979492188,-26.69999885559082,-1.8600000143051147,23.939998626708984
1766399514618000600,-36.884999267578124,-27.18000030517578,-1.5,24.18000030517578
1766399514628041000,-36.874958984375,-26.81999969482422,-1.5,24.35999870300293
1766399514638050800,-36.86494921875,-26.459999084472656,-1.1399999856948853,24.420000076293945
1766399514658070300,-36.8449296875,-25.920000076293945,-1.7999999523162842,24.65999984741211
1766399514668079900,-36.83492016601563,-26.03999900817871,-1.7400000095367432,23.8799991607666
1766399514678089700,-36.82491015625,-26.459999084472656,-2.0999999046325684,24.479999542236328
1766399514688099600,-36.814900390625,-27.299999237060547,-1.6799999475479126,25.01999855041504
1766399514698109200,-36.80489086914063,-27.119998931884766,-2.2799999713897705,24.479999542236328
1766399514708149500,-36.7948505859375,-27.479999542236328,-2.3399999141693115,24.84000015258789
1766399514718159400,-36.784840576171874,-27.53999900817871,-2.3399999141693115,24.239999771118164
1766399514728169200,-36.774830810546874,-27.65999984741211,-2.4600000381469727,24.239999771118164
1766399514738240000,-36.764760009765624,-28.260000228881836,-1.7999999523162842,24.959999084472656
1766399514788411000,-36.714589111328124,-27.059999465942383,-1.2599999904632568,24.65999984741211
1766399514798420500,-36.70457958984375,-27.479999542236328,-1.559999942779541,25.079999923706055
1766399514808460800,-36.69453930664063,-27.599998474121094,-1.4399999380111694,25.139999389648438
1766399514818501000,-36.684498779296874,-27.35999870300293,-1.4399999380111694,25.260000228881836
1766399514828511000,-36.674489013671874,-27,-2.1599998474121094,24.959999084472656
1766399514838520600,-36.6644794921875,-26.51999855041504,-2.2200000286102295,24.959999084472656
1766399514848561000,-36.65443920898438,-26.34000015258789,-2.3399999141693115,25.139999389648438
1766399514888691500,-36.61430859375,-27.18000030517578,-1.4399999380111694,25.079999923706055
1766399514898701300,-36.604298583984374,-27.599998474121094,-1.9199999570846558,24.53999900817871
1766399514908741600,-36.59425830078125,-28.139999389648438,-1.6799999475479126,24.600000381469727
1766399514918720800,-36.584279296875,-27.719999313354492,-2.1599998474121094,25.439998626708984
1766399514928761000,-36.57423901367188,-27.959999084472656,-2.3399999141693115,25.260000228881836
1766399514938771000,-36.56422900390625,-27.84000015258789,-2.3999998569488525,25.439998626708984
1766399514948780500,-36.55421948242188,-27.779998779296875,-3,25.439998626708984
1766399514998890500,-36.50410961914063,-25.3799991607666,-1.6799999475479126,24.719999313354492
1766399515008961300,-36.49403881835938,-26.15999984741211,-1.6799999475479126,24.959999084472656
1766399515018971100,-36.48402880859375,-26.760000228881836,-1.1999999284744263,25.3799991607666
1766399515028980700,-36.47401928710938,-26.399999618530273,-0.7199999690055847,26.219999313354492
1766399515038990600,-36.46400952148438,-26.279998779296875,-1.0799999237060547,26.459999084472656
1766399515049000400,-36.45399951171875,-25.739999771118164,-1.5,25.799999237060547
1766399515059010000,-36.44398999023438,-24.779998779296875,-1.6200000047683716,26.03999900817871
1766399515099110100,-36.40388989257813,-26.69999885559082,-1.3799999952316284,25.19999885559082
1766399515109120000,-36.3938798828125,-26.639999389648438,-1.1399999856948853,25.619998931884766
1766399515119129900,-36.3838701171875,-26.8799991607666,-1.3199999332427979,25.739999771118164
1766399515129170200,-36.373829833984374,-27.059999465942383,-1.6200000047683716,25.31999969482422
1766399515139179800,-36.3638203125,-26.279998779296875,-1.6200000047683716,25.19999885559082
1766399515149189600,-36.353810302734374,-25.68000030517578,-1.559999942779541,25.260000228881836
1766399515189289700,-36.313710205078124,-26.219999313354492,-0.8999999761581421,25.31999969482422
1766399515199299600,-36.303700439453124,-26.639999389648438,-0.7199999690055847,25.559999465942383
1766399515209309200,-36.29369091796875,-26.760000228881836,-1.0799999237060547,25.139999389648438
1766399515219319000,-36.283680908203124,-27.35999870300293,-0.9599999785423279,25.19999885559082
1766399515229328600,-36.27367138671875,-26.760000228881836,-1.1999999284744263,25.5
1766399515239338500,-36.26366162109375,-26.939998626708984,-1.5,25.139999389648438
1766399515249378800,-36.25362109375,-26.939998626708984,-1.0199999809265137,24.959999084472656
1766399515299397000,-36.203602783203124,-25.920000076293945,-1.0199999809265137,25.85999870300293
1766399515309407000,-36.193593017578124,-26.03999900817871,-0.8999999761581421,25.139999389648438
1766399515319416600,-36.18358349609375,-26.760000228881836,-0.7799999713897705,25.19999885559082
1766399515329426400,-36.173573486328124,-27.18000030517578,-1.0799999237060547,25.19999885559082
1766399515339436300,-36.163563720703124,-27.599998474121094,-1.2599999904632568,25.439998626708984
1766399515349446000,-36.15355419921875,-28.079999923706055,-1.6200000047683716,25.3799991607666
1766399515359425300,-36.14357470703125,-28.3799991607666,-1.3199999332427979,25.079999923706055
1766399515409504500,-36.09349560546875,-27.420000076293945,-1.3199999332427979,25.139999389648438
1766399515419544800,-36.083455078125,-27.35999870300293,-1.1999999284744263,24.719999313354492
1766399515429554700,-36.0734453125,-27.719999313354492,-1.0199999809265137,24.959999084472656
1766399515439564300,-36.06343579101563,-28.3799991607666,-0.8999999761581421,24.779998779296875
1766399515449574100,-36.05342578125,-28.01999855041504,-1.3799999952316284,24.779998779296875
1766399515459584000,-36.043416015625,-28.260000228881836,-1.2599999904632568,25.079999923706055
1766399515479664400,-36.02333569335938,-26.579999923706055,-1.1999999284744263,25.01999855041504
1766399515499775500,-36.003224609375,-25.5,-1.1999999284744263,25.19999885559082
1766399515509815800,-35.99318408203125,-25.920000076293945,-1.5,24.65999984741211
1766399515519825700,-35.98317431640625,-26.459999084472656,-1.4399999380111694,25.139999389648438
1766399515529835300,-35.97316479492188,-27.779998779296875,-1.559999942779541,24.959999084472656
1766399515539845000,-35.96315478515625,-27.65999984741211,-1.4399999380111694,25.079999923706055
1766399515549855000,-35.95314501953125,-27.84000015258789,-1.2599999904632568,25.739999771118164
1766399515559864600,-35.94313549804688,-28.079999923706055,-1.6799999475479126,25.799999237060547
1766399515569874400,-35.93312548828125,-27.599998474121094,-1.3799999952316284,25.920000076293945
1766399515609913600,-35.89308642578125,-25.799999237060547,-2.0399999618530273,25.01999855041504
1766399515629963500,-35.873036376953124,-25.3799991607666,-1.6200000047683716,24.959999084472656
1766399515639973400,-35.863026611328124,-25.260000228881836,-1.6200000047683716,24.600000381469727
1766399515650013700,-35.852986328125,-25.68000030517578,-1.5,24.600000381469727
1766399515660023300,-35.84297680664063,-25.31999969482422,-2.1599998474121094,24.53999900817871
1766399515700153900,-35.80284619140625,-25.559999465942383,-1.8600000143051147,25.079999923706055
1766399515710163700,-35.792836181640624,-25.139999389648438,-1.9199999570846558,25.260000228881836
1766399515720173600,-35.782826416015624,-24.479999542236328,-2.819999933242798,25.19999885559082
1766399515730214000,-35.7727861328125,-25.079999923706055,-2.759999990463257,25.439998626708984
1766399515740284700,-35.76271533203125,-25.5,-2.4600000381469727,25.439998626708984
1766399515750324700,-35.75267529296875,-26.099998474121094,-2.5799999237060547,25.439998626708984
1766399515760334600,-35.74266552734375,-26.8799991607666,-1.9799998998641968,24.84000015258789
1766399515770344400,-35.732655517578124,-27.239999771118164,-2.2200000286102295,24.600000381469727
1766399515810444500,-35.692555419921874,-26.81999969482422,-2.3399999141693115,24.65999984741211
1766399515820454100,-35.6825458984375,-26.399999618530273,-1.9799998998641968,25.31999969482422
1766399515830464000,-35.672535888671874,-25.559999465942383,-1.6799999475479126,25.139999389648438
1766399515840473900,-35.662526123046874,-24.959999084472656,-2.0999999046325684,25.260000228881836
1766399515850483500,-35.6525166015625,-25.079999923706055,-2.0399999618530273,24.18000030517578
1766399515860523800,-35.64247631835938,-25.739999771118164,-2.879999876022339,23.639999389648438
1766399515870594600,-35.63240551757813,-26.760000228881836,-3.5399999618530273,24.119998931884766
1766399515880604400,-35.6223955078125,-27.719999313354492,-3.299999952316284,24.239999771118164
1766399515900624000,-35.60237622070313,-26.760000228881836,-2.2799999713897705,25.079999923706055
1766399515920674000,-35.582325927734374,-25.619998931884766,-1.3799999952316284,24.719999313354492
1766399515930714400,-35.57228564453125,-25.079999923706055,-1.6200000047683716,24.479999542236328
1766399515940724000,-35.56227612304688,-25.19999885559082,-2.4600000381469727,25.01999855041504
1766399515950794800,-35.55220532226563,-24.84000015258789,-2.879999876022339,24.479999542236328
1766399515960774100,-35.542225830078124,-25.19999885559082,-3.179999828338623,24.600000381469727
1766399515970814500,-35.532185546875,-25.19999885559082,-3.299999952316284,24.65999984741211
1766399515980824000,-35.52217602539063,-25.920000076293945,-2.5799999237060547,24
1766399516020893700,-35.482106201171874,-24.899999618530273,-2.819999933242798,23.69999885559082
1766399516030903600,-35.472096435546874,-24.899999618530273,-2.3999998569488525,24.059999465942383
1766399516040913200,-35.4620869140625,-26.099998474121094,-2.5799999237060547,24.600000381469727
1766399516050923000,-35.452076904296874,-26.81999969482422,-1.9199999570846558,25.01999855041504
1766399516060993800,-35.442006103515624,-26.69999885559082,-1.0799999237060547,25.3799991607666
1766399516071034000,-35.4319658203125,-26.760000228881836,-1.1399999856948853,25.19999885559082
1766399516081044000,-35.4219560546875,-26.639999389648438,-1.5,24.899999618530273
1766399516091053600,-35.41194653320313,-26.760000228881836,-1.9199999570846558,24.899999618530273
1766399516121144000,-35.38185595703125,-25.68000030517578,-1.9199999570846558,25.5
1766399516131153700,-35.37184643554688,-24.959999084472656,-1.3799999952316284,25.3799991607666
1766399516141163500,-35.36183642578125,-25.559999465942383,-1.6200000047683716,25.139999389648438
1766399516151173000,-35.35182690429688,-26.15999984741211,-1.6799999475479126,24.600000381469727
1766399516161183000,-35.34181713867188,-26.939998626708984,-1.9199999570846558,24.479999542236328
1766399516171192800,-35.33180712890625,-28.260000228881836,-2.3999998569488525,24.53999900817871
1766399516181233200,-35.321766845703124,-27.899999618530273,-2.2200000286102295,24.420000076293945
1766399516191242800,-35.31175732421875,-27.959999084472656,-1.9799998998641968,24.84000015258789
1766399516231342800,-35.2716572265625,-26.579999923706055,-2.93999981880188,24
1766399516241383200,-35.26161694335938,-26.099998474121094,-2.6399998664855957,24.899999618530273
1766399516251423500,-35.251576416015624,-26.15999984741211,-2.2200000286102295,25.68000030517578
1766399516261433300,-35.241566650390624,-26.03999900817871,-1.7999999523162842,25.619998931884766
1766399516271443000,-35.23155712890625,-26.399999618530273,-1.559999942779541,25.739999771118164
1766399516281483300,-35.22151684570313,-26.399999618530273,-1.7999999523162842,25.01999855041504
1766399516291523600,-35.211476318359374,-27,-1.5,24.899999618530273
1766399516331593200,-35.17140673828125,-26.69999885559082,-2.3399999141693115,24.899999618530273
1766399516341602800,-35.16139721679688,-26.03999900817871,-2.0999999046325684,24.779998779296875
1766399516351612700,-35.15138720703125,-25.19999885559082,-1.7400000095367432,25.01999855041504
1766399516361622500,-35.14137744140625,-24.779998779296875,-1.8600000143051147,25.139999389648438
1766399516371662800,-35.131337158203124,-25.3799991607666,-1.8600000143051147,25.31999969482422
1766399516381703000,-35.12129711914063,-25.619998931884766,-1.4399999380111694,25.439998626708984
1766399516391743200,-35.1112568359375,-26.399999618530273,-1.559999942779541,25.079999923706055
1766399516401753000,-35.101246826171874,-26.8799991607666,-1.3199999332427979,25.139999389648438
1766399516431812900,-35.07118725585938,-26.939998626708984,-2.0999999046325684,24.119998931884766
1766399516441822700,-35.06117724609375,-25.979999542236328,-2.1599998474121094,24.959999084472656
1766399516451832300,-35.05116772460938,-25.979999542236328,-2.2799999713897705,25.139999389648438
1766399516461872600,-35.04112744140625,-25.739999771118164,-2.0999999046325684,25.079999923706055
1766399516471913000,-35.03108715820313,-26.03999900817871,-1.8600000143051147,25.01999855041504
1766399516481922800,-35.0210771484375,-26.939998626708984,-1.7400000095367432,24.420000076293945
1766399516491932400,-35.01106762695313,-26.639999389648438,-1.559999942779541,24.779998779296875
1766399516501972700,-35.00102734375,-27.18000030517578,-1.7400000095367432,24.779998779296875
1766399516562153500,-34.940846435546874,-26.34000015258789,-1.8600000143051147,25.19999885559082
1766399516572193800,-34.93080615234375,-26.219999313354492,-1.6799999475479126,25.439998626708984
1766399516592213200,-34.91078686523438,-27.479999542236328,-1.0199999809265137,25.079999923706055
1766399516602223000,-34.90077685546875,-27.53999900817871,-1.0199999809265137,25.439998626708984
1766399516622273000,-34.88072705078125,-26.279998779296875,-1.9199999570846558,25.559999465942383
1766399516642292700,-34.860707275390624,-24.899999618530273,-1.3199999332427979,24.899999618530273
1766399516662373000,-34.840626953125,-26.69999885559082,-1.5,24.899999618530273
1766399516672383000,-34.830616943359374,-26.219999313354492,-1.559999942779541,25.139999389648438
1766399516682423300,-34.82057666015625,-27.299999237060547,-1.7999999523162842,25.079999923706055
1766399516692463600,-34.810536376953124,-27.479999542236328,-1.559999942779541,24.959999084472656
1766399516702534400,-34.800465576171874,-27.119998931884766,-1.2599999904632568,24.719999313354492
1766399516712574700,-34.79042529296875,-27.599998474121094,-1.0799999237060547,24.719999313354492
1766399516722584300,-34.78041577148438,-27.299999237060547,-1.0799999237060547,25.01999855041504
1766399516752674800,-34.7503251953125,-26.279998779296875,-0.7199999690055847,25.619998931884766
1766399516782734600,-34.720265380859374,-25.979999542236328,-1.3199999332427979,25.260000228881836
1766399516792775000,-34.71022509765625,-26.639999389648438,-1.7999999523162842,24.959999084472656
1766399516802754000,-34.700245849609374,-27.059999465942383,-1.8600000143051147,24.959999084472656
1766399516812764000,-34.690236083984374,-27.84000015258789,-1.5,25.19999885559082
1766399516822773500,-34.6802265625,-27.239999771118164,-1.2599999904632568,25.439998626708984
1766399516852802800,-34.650197265625,-26.15999984741211,-1.8600000143051147,24.600000381469727
1766399516862873600,-34.64012646484375,-27.239999771118164,-1.8600000143051147,24.420000076293945
1766399516872883500,-34.630116455078124,-27.059999465942383,-1.559999942779541,24.239999771118164
1766399516882923800,-34.620076171875,-26.8799991607666,-1.5,23.81999969482422
1766399516892964000,-34.610035888671874,-25.920000076293945,-1.3799999952316284,24.899999618530273
1766399516902973700,-34.6000263671875,-24.65999984741211,-1.4399999380111694,24.899999618530273
1766399516912983600,-34.590016357421874,-24.420000076293945,-2.1599998474121094,24.959999084472656
1766399516922993400,-34.580006591796874,-23.939998626708984,-1.7400000095367432,25.799999237060547
1766399516933033500,-34.56996655273438,-24.84000015258789,-1.9199999570846558,25.139999389648438
1766399516973072600,-34.52992724609375,-26.279998779296875,-1.8600000143051147,24.84000015258789
1766399516983082500,-34.51991748046875,-26.279998779296875,-1.7400000095367432,24.18000030517578
1766399516993092000,-34.50990795898438,-26.51999855041504,-1.559999942779541,23.760000228881836
1766399517003102000,-34.49989794921875,-25.799999237060547,-1.4399999380111694,24.239999771118164
1766399517013111800,-34.48988818359375,-25.3799991607666,-1.1399999856948853,24.119998931884766
1766399517023152000,-34.479847900390624,-24.959999084472656,-1.3799999952316284,24.600000381469727
1766399517033161700,-34.46983837890625,-24.600000381469727,-2.1599998474121094,24.779998779296875
1766399517053212000,-34.4497880859375,-25.559999465942383,-2.5199999809265137,24.53999900817871
1766399517063252200,-34.439747802734374,-26.579999923706055,-2.4600000381469727,24.479999542236328
1766399517073261800,-34.42973828125,-27.420000076293945,-2.2200000286102295,24.479999542236328
1766399517083271700,-34.419728271484374,-27.479999542236328,-1.8600000143051147,24.959999084472656
1766399517093312000,-34.40968798828125,-27.53999900817871,-1.9199999570846558,24.959999084472656
1766399517103321600,-34.39967846679688,-27.719999313354492,-1.7999999523162842,25.139999389648438
1766399517113331500,-34.38966845703125,-27.53999900817871,-1.1999999284744263,25.260000228881836
1766399517123341300,-34.37965869140625,-27.420000076293945,-1.559999942779541,25.19999885559082
1766399517133351000,-34.36964916992188,-26.34000015258789,-1.3799999952316284,25.739999771118164
1766399517193409500,-34.30959057617188,-27.479999542236328,-1.3199999332427979,24.420000076293945
1766399517203419400,-34.29958056640625,-26.760000228881836,-1.9799998998641968,24.65999984741211
1766399517213429000,-34.28957104492188,-27.420000076293945,-2.3999998569488525,24.119998931884766
1766399517233448700,-34.26955126953125,-27,-2.6399998664855957,24
1766399517243427800,-34.259572265625,-27.420000076293945,-2.700000047683716,23.760000228881836
1766399517253407200,-34.2495927734375,-27.479999542236328,-2.2799999713897705,23.760000228881836
1766399517283528000,-34.21947216796875,-29.03999900817871,-1.0799999237060547,22.920000076293945
1766399517293568300,-34.209431640625,-29.34000015258789,-1.4399999380111694,22.739999771118164
1766399517303608600,-34.199391357421874,-28.920000076293945,-1.3199999332427979,22.260000228881836
1766399517313649000,-34.18935107421875,-28.920000076293945,-1.0199999809265137,22.19999885559082
1766399517323658500,-34.17934155273438,-29.279998779296875,-1.1399999856948853,22.020000457763672
1766399517333698800,-34.16930126953125,-29.459999084472656,-0.9599999785423279,21.899999618530273
1766399517343769600,-34.15923046875,-29.579999923706055,-0.6599999666213989,22.260000228881836
1766399517383900400,-34.119099609375,-28.260000228881836,-0.8399999737739563,21.84000015258789
1766399517403920000,-34.099080078125,-28.19999885559082,-1.5,21.35999870300293
1766399517413960200,-34.089039794921874,-28.920000076293945,-1.3199999332427979,21.779998779296875
1766399517424000500,-34.07899951171875,-28.739999771118164,-1.1999999284744263,21.53999900817871
1766399517434010000,-34.06898999023438,-29.34000015258789,-1.3799999952316284,21.299999237060547
1766399517454029600,-34.04897045898438,-28.01999855041504,-1.0799999237060547,21.719999313354492
1766399517484059000,-34.01894116210938,-27.479999542236328,-2.0399999618530273,22.020000457763672
1766399517494068700,-34.00893115234375,-27.899999618530273,-1.4399999380111694,21.299999237060547
1766399517504078600,-33.99892138671875,-28.799999237060547,-1.5,21.18000030517578
1766399517514088200,-33.98891186523438,-29.15999984741211,-0.7199999690055847,21.719999313354492
1766399517524098000,-33.97890185546875,-28.979999542236328,-1.0199999809265137,21.719999313354492
1766399517534108000,-33.96889208984375,-28.739999771118164,-1.3199999332427979,22.3799991607666
1766399517544148200,-33.958851806640624,-28.619998931884766,-1.559999942779541,22.19999885559082
1766399517554219000,-33.948781005859374,-28.31999969482422,-1.7400000095367432,21.719999313354492
1766399517574269000,-33.92873095703125,-28.739999771118164,-1.7400000095367432,21.059999465942383
1766399517584339700,-33.91866040039063,-28.3799991607666,-1.9799998998641968,21.18000030517578
1766399517594380000,-33.908619873046874,-27.84000015258789,-2.0399999618530273,21.420000076293945
1766399517604420400,-33.89857958984375,-27.719999313354492,-1.6799999475479126,21.239999771118164
1766399517614430200,-33.88856982421875,-27.119998931884766,-1.3799999952316284,22.020000457763672
1766399517624470300,-33.87852978515625,-27.239999771118164,-1.4399999380111694,22.19999885559082
1766399517634541000,-33.868458984375,-28.139999389648438,-2.0999999046325684,21.719999313354492
1766399517644551000,-33.858448974609374,-27.84000015258789,-2.0399999618530273,21.600000381469727
1766399517654560800,-33.848439208984374,-28.079999923706055,-1.6799999475479126,21.119998931884766
1766399517664570400,-33.8384296875,-27.420000076293945,-1.2599999904632568,21.059999465942383
1766399517704609500,-33.798390380859374,-28.439998626708984,-1.6200000047683716,22.139999389648438
1766399517714619400,-33.788380615234374,-28.31999969482422,-1.2599999904632568,22.799999237060547
1766399517724690200,-33.778309814453124,-28.979999542236328,-1.6799999475479126,22.3799991607666
1766399517734699800,-33.76830029296875,-29.34000015258789,-1.3799999952316284,21.959999084472656
1766399517744740000,-33.75826000976563,-28.739999771118164,-1.3199999332427979,22.139999389648438
1766399517754750000,-33.74825,-29.099998474121094,-2.0399999618530273,22.260000228881836
1766399517764759600,-33.73824047851563,-29.34000015258789,-1.8600000143051147,22.5
1766399517774800000,-33.7282001953125,-29.579999923706055,-2.2799999713897705,22.799999237060547
1766399517794819600,-33.708180419921874,-28.979999542236328,-1.9799998998641968,22.31999969482422
1766399517804798700,-33.698201171875,-27.959999084472656,-1.8600000143051147,22.5
1766399517814839000,-33.688160888671874,-27.119998931884766,-1.6799999475479126,22.619998931884766
1766399517824909800,-33.678090087890624,-27.959999084472656,-1.9799998998641968,22.020000457763672
1766399517834919700,-33.668080322265624,-28.19999885559082,-1.6200000047683716,22.5
1766399517844898800,-33.65810107421875,-28.799999237060547,-2.3999998569488525,22.079999923706055
1766399517854939100,-33.648060791015624,-29.15999984741211,-2.3999998569488525,21.959999084472656
1766399517864949000,-33.638051025390624,-28.5,-2.819999933242798,21.719999313354492
1766399517874958600,-33.62804150390625,-28.3799991607666,-2.4600000381469727,21.899999618530273
1766399517894978300,-33.608021728515624,-27.84000015258789,-2.3999998569488525,22.079999923706055
1766399517905018400,-33.59798168945313,-27.53999900817871,-2.0999999046325684,22.68000030517578
1766399517915058700,-33.58794140625,-26.939998626708984,-2.759999990463257,22.5
1766399517955128300,-33.54787158203125,-29.03999900817871,-1.559999942779541,22.139999389648438
1766399517965107500,-33.537892578125,-28.439998626708984,-1.0799999237060547,21.420000076293945
1766399517975147800,-33.52785229492188,-29.03999900817871,-0.9599999785423279,21
1766399517985157600,-33.51784228515625,-28.31999969482422,-0.9599999785423279,21.059999465942383
1766399518005207600,-33.49779248046875,-29.939998626708984,-1.0199999809265137,20.100000381469727
1766399518015217400,-33.487782470703124,-29.760000228881836,-1.4399999380111694,19.559999465942383
1766399518025227300,-33.477772705078124,-30.119998931884766,-1.1999999284744263,18.65999984741211
1766399518035236900,-33.46776318359375,-30.119998931884766,-0.7799999713897705,17.69999885559082
1766399518045246700,-33.457753173828124,-30.17999839782715,-0.11999999731779099,17.219999313354492
1766399518055256600,-33.447743408203124,-31.139999389648438,1.0199999809265137,16.619998931884766
1766399518065266200,-33.43773388671875,-31.31999969482422,0.9599999785423279,16.5
1766399518075337000,-33.4276630859375,-31.739999771118164,1.6200000047683716,16.31999969482422
1766399518105427500,-33.397572509765624,-31.85999870300293,4.799999713897705,15.119999885559082
1766399518115437000,-33.38756298828125,-31.920000076293945,5.819999694824219,14.519999504089355
1766399518125416400,-33.37758349609375,-31.799999237060547,6.480000019073486,13.979999542236328
1766399518135456800,-33.367543212890624,-31.979999542236328,7.019999980926514,13.319999694824219
1766399518145466400,-33.35753369140625,-31.67999839782715,7.079999923706055,12.239999771118164
1766399518155476200,-33.347523681640624,-31.5,7.859999656677246,12.119999885559082
1766399518165455400,-33.33754467773438,-32.34000015258789,7.919999599456787,11.15999984741211
1766399518175495700,-33.32750439453125,-33.23999786376953,8.639999389648438,11.039999961853027
1766399518205494500,-33.29750537109375,-32.81999969482422,11.34000015258789,10.079999923706055
1766399518215534800,-33.287465087890624,-32.099998474121094,12.119999885559082,9.65999984741211
1766399518225544700,-33.277455322265624,-31.67999839782715,13.139999389648438,9.420000076293945
1766399518235554300,-33.26744580078125,-31.439998626708984,13.799999237060547,9.179999351501465
1766399518245533700,-33.25746630859375,-31.739999771118164,13.979999542236328,8.699999809265137
1766399518255573800,-33.24742626953125,-31.260000228881836,14.9399995803833,8.639999389648438
1766399518265614000,-33.23738598632813,-31.3799991607666,15.899999618530273,8.880000114440918
1766399518325734000,-33.17726611328125,-28.01999855041504,16.68000030517578,8.880000114440918
1766399518335743500,-33.16725659179688,-28.68000030517578,16.799999237060547,8.519999504089355
1766399518345814300,-33.15718579101563,-27.959999084472656,17.100000381469727,8.34000015258789
1766399518355824000,-33.14717578125,-28.739999771118164,17.100000381469727,8.220000267028809
1766399518365834000,-33.137166015625,-28.799999237060547,17.15999984741211,8.579999923706055
1766399518375874000,-33.1271259765625,-28.31999969482422,17.03999900817871,8.819999694824219
1766399528791978500,-22.711021484375,-26.579999923706055,12.719999313354492,13.199999809265137
1766399528801819000,-22.70118115234375,-25.5,4.199999809265137,21.35999870300293
1766399528811659300,-22.6913408203125,-25.01999855041504,-0.11999999731779099,25.559999465942383
1766399528821569000,-22.681430908203126,-24.899999618530273,-0.23999999463558197,25.260000228881836
1766399528841588500,-22.66141162109375,-23.459999084472656,0,25.31999969482422
1766399528851598300,-22.651401611328126,-23.69999885559082,0.23999999463558197,25.3799991607666
1766399528861608000,-22.64139208984375,-24.119998931884766,0.47999998927116394,25.559999465942383
1766399528871709400,-22.63129052734375,-24.18000030517578,0.7199999690055847,25.68000030517578
1766399528941808000,-22.56119189453125,-23.459999084472656,-1.4399999380111694,25.3799991607666
1766399528951848400,-22.551151611328127,-23.81999969482422,-1.0799999237060547,25.439998626708984
1766399529001958400,-22.50104150390625,-24.479999542236328,-0.5999999642372131,25.19999885559082
1766399529052037600,-22.45096240234375,-23.219999313354492,-0.8999999761581421,25.439998626708984
1766399529062047500,-22.440952392578126,-23.15999984741211,-0.8399999737739563,25.439998626708984
1766399529072057300,-22.430942626953126,-23.81999969482422,-0.8399999737739563,25.559999465942383
1766399529092107300,-22.410892822265627,-24.299999237060547,-1.5,25.739999771118164
1766399529112126700,-22.390873291015627,-24.119998931884766,-1.3199999332427979,25.920000076293945
1766399529142156000,-22.360843994140627,-24.600000381469727,-1.7999999523162842,25.3799991607666
1766399529152196400,-22.3508037109375,-24.719999313354492,-1.6799999475479126,25.3799991607666
1766399529162206200,-22.340793701171876,-24.479999542236328,-1.3199999332427979,25.139999389648438
1766399529172215800,-22.3307841796875,-23.8799991607666,-1.5,25.68000030517578
1766399529182256000,-22.320743896484377,-23.219999313354492,-1.1399999856948853,26.279998779296875
1766399529192266000,-22.310734130859377,-22.979999542236328,-1.0799999237060547,25.68000030517578
1766399529202275800,-22.30072412109375,-22.85999870300293,-1.5,25.559999465942383
1766399529212285400,-22.290714599609377,-23.279998779296875,-1.3199999332427979,25.079999923706055
1766399529222295300,-22.28070458984375,-23.51999855041504,-0.8399999737739563,24.899999618530273
1766399529272374500,-22.23062548828125,-24.35999870300293,-1.1399999856948853,25.079999923706055
1766399529282414800,-22.220585205078127,-23.8799991607666,-1.3199999332427979,25.3799991607666
1766399529292424700,-22.2105751953125,-23.939998626708984,-1.4399999380111694,25.260000228881836
1766399529302434600,-22.2005654296875,-23.399999618530273,-1.1399999856948853,25.439998626708984
1766399529312444200,-22.190555908203127,-23.639999389648438,-1.6799999475479126,24.779998779296875
1766399529322454000,-22.1805458984375,-23.399999618530273,-2.0399999618530273,24.53999900817871
1766399529392644400,-22.110355712890627,-22.739999771118164,-1.0199999809265137,25.19999885559082
1766399529412663800,-22.090336181640627,-23.639999389648438,-1.5,24.35999870300293
1766399529422704000,-22.0802958984375,-23.8799991607666,-1.1999999284744263,24.65999984741211
1766399529442723800,-22.060276123046876,-24.84000015258789,-1.0799999237060547,25.3799991607666
1766399529512883700,-21.9901162109375,-24.059999465942383,-1.4399999380111694,25.139999389648438
1766399529552983800,-21.95001611328125,-25.079999923706055,-1.7400000095367432,25.5
1766399529583074000,-21.919926025390627,-23.459999084472656,-0.9599999785423279,25.799999237060547
1766399529593144800,-21.909855224609377,-23.34000015258789,-1.0799999237060547,25.31999969482422
1766399529603154700,-21.89984521484375,-23.69999885559082,-0.8999999761581421,25.5
1766399529683385300,-21.81961474609375,-25.439998626708984,-2.5199999809265137,24.53999900817871
1766399529763524600,-21.739475341796876,-23.399999618530273,-1.0799999237060547,24.779998779296875
1766399529773565000,-21.72943505859375,-23.81999969482422,-0.6599999666213989,24.899999618530273
1766399529783574500,-21.719425537109377,-24.719999313354492,-0.8999999761581421,25.079999923706055
1766399529803685600,-21.699314453125,-24.779998779296875,-1.3799999952316284,25.559999465942383
1766399529813726000,-21.689274169921877,-25.619998931884766,-1.7400000095367432,25.799999237060547
1766399529843816200,-21.659183837890627,-24.18000030517578,-1.559999942779541,25.619998931884766
1766399529853856500,-21.6491435546875,-23.279998779296875,-1.0799999237060547,25.5
1766399529863836000,-21.6391640625,-22.799999237060547,-0.7199999690055847,25.619998931884766
1766399529873906700,-21.62909326171875,-23.15999984741211,-1.0199999809265137,25.079999923706055
1766399529883916300,-21.619083740234377,-23.760000228881836,-1.1399999856948853,24.779998779296875
1766399529914067700,-21.588932373046877,-25.31999969482422,-1.3199999332427979,24.899999618530273
1766399529924077600,-21.57892236328125,-25.739999771118164,-1.559999942779541,24.899999618530273
1766399529944127500,-21.55887255859375,-26.34000015258789,-1.4399999380111694,24.35999870300293
1766399529954167800,-21.548832275390627,-26.399999618530273,-1.559999942779541,24.18000030517578
1766399529964177700,-21.538822265625,-25.559999465942383,-1.5,24.299999237060547
1766399529974218000,-21.528781982421876,-25.619998931884766,-1.6799999475479126,24.479999542236328
1766399529984227600,-21.5187724609375,-25.5,-1.1399999856948853,25.079999923706055
1766399529994298400,-21.50870166015625,-25.3799991607666,-1.0199999809265137,25.19999885559082
1766399530044408300,-21.458591796875,-24.959999084472656,-1.0799999237060547,24.84000015258789
1766399530054418200,-21.448581787109376,-25.260000228881836,-1.0199999809265137,24.18000030517578
1766399530064427800,-21.438572265625,-25.439998626708984,-1.1399999856948853,24.239999771118164
1766399530094518300,-21.408481689453126,-24.299999237060547,-1.1999999284744263,25.01999855041504
1766399530104528000,-21.39847216796875,-24.119998931884766,-0.47999998927116394,25.260000228881836
1766399530174749000,-21.3282509765625,-22.799999237060547,-1.6200000047683716,24.65999984741211
1766399530184789200,-21.318210693359376,-23.639999389648438,-1.2599999904632568,24.420000076293945
1766399530204808700,-21.29819140625,-24.420000076293945,-1.2599999904632568,24.84000015258789
1766399530234868500,-21.268131591796877,-25.139999389648438,-1.7400000095367432,24.959999084472656
1766399530274938000,-21.228061767578126,-23.399999618530273,-1.6200000047683716,24.779998779296875
1766399530294957600,-21.20804248046875,-24.119998931884766,-1.1999999284744263,24.719999313354492
1766399530305028400,-21.1979716796875,-24.18000030517578,-1.7999999523162842,24.899999618530273
1766399530325048000,-21.177951904296876,-24.53999900817871,-1.1999999284744263,25.3799991607666
1766399530335118800,-21.167881103515626,-24.35999870300293,-1.3799999952316284,25.31999969482422
1766399530345098000,-21.157902099609377,-24.18000030517578,-0.6599999666213989,25.559999465942383
1766399530355138300,-21.14786181640625,-23.639999389648438,-1.1999999284744263,25.920000076293945
1766399530365148200,-21.137851806640626,-23.81999969482422,-1.1999999284744263,25.799999237060547
1766399530375188200,-21.127811767578127,-23.8799991607666,-0.7799999713897705,26.219999313354492
1766399530385259300,-21.11774072265625,-24.18000030517578,-1.0799999237060547,26.099998474121094
1766399530395330000,-21.107669921875,-24.959999084472656,-1.0799999237060547,25.68000030517578
1766399530405400800,-21.09759912109375,-24.719999313354492,-1.4399999380111694,25.739999771118164
1766399530435491000,-21.067509033203127,-25.079999923706055,-1.3799999952316284,25.3799991607666
1766399530475591200,-21.027408935546877,-22.3799991607666,-1.3799999952316284,25.85999870300293
1766399530485601000,-21.01739892578125,-23.03999900817871,-0.7199999690055847,25.920000076293945
1766399530495641300,-21.007358642578126,-23.51999855041504,-0.47999998927116394,26.219999313354492
1766399530505651000,-20.99734912109375,-23.81999969482422,-0.23999999463558197,25.439998626708984
1766399530515721700,-20.9872783203125,-23.34000015258789,-0.5399999618530273,25.31999969482422
1766399530535772000,-20.96722802734375,-24.84000015258789,-1.1399999856948853,24.719999313354492
1766399530545751000,-20.9572490234375,-25.01999855041504,-1.9799998998641968,25.079999923706055
1766399530555761000,-20.947239013671876,-25.739999771118164,-1.7999999523162842,24.899999618530273
1766399530565801200,-20.93719873046875,-25.619998931884766,-1.6799999475479126,24.479999542236328
1766399530575810800,-20.927189208984377,-25.19999885559082,-1.5,24.84000015258789
1766399530585820700,-20.917179443359377,-25.260000228881836,-0.8399999737739563,24.53999900817871
1766399530595830500,-20.90716943359375,-24.959999084472656,-0.7199999690055847,24.779998779296875
1766399530605870600,-20.89712939453125,-24.899999618530273,-0.9599999785423279,24.65999984741211
1766399530615911000,-20.887089111328127,-24.600000381469727,-1.0199999809265137,25.260000228881836
1766399530665990400,-20.837009521484376,-24.719999313354492,-0.8999999761581421,25.3799991607666
1766399530686009900,-20.816990234375,-24.959999084472656,-0.5999999642372131,24.119998931884766
1766399530696019700,-20.806980224609376,-24.239999771118164,-0.9599999785423279,24
1766399530706029300,-20.796970703125,-24.53999900817871,-1.0199999809265137,24.059999465942383
1766399530716039200,-20.7869609375,-24.239999771118164,-0.8399999737739563,24.420000076293945
1766399530726049000,-20.776950927734376,-24.18000030517578,-1.0799999237060547,24.420000076293945
1766399530736058600,-20.76694140625,-24.35999870300293,-0.6599999666213989,24.53999900817871
1766399530806249200,-20.696750732421876,-24.119998931884766,0,25.559999465942383
1766399530876500500,-20.62649951171875,-23.81999969482422,-0.47999998927116394,25.559999465942383
1766399530906529800,-20.59647021484375,-24.18000030517578,-1.0199999809265137,25.559999465942383
1766399530986699500,-20.516300537109377,-23.15999984741211,-0.9599999785423279,24.959999084472656
1766399531006810600,-20.496189453125,-23.69999885559082,-0.5399999618530273,25.19999885559082
1766399531056890000,-20.44610986328125,-22.079999923706055,-1.0199999809265137,25.85999870300293
1766399531076909600,-20.42609033203125,-21.65999984741211,-1.1999999284744263,25.979999542236328
1766399531096959500,-20.40604052734375,-22.5,-1.1399999856948853,25.19999885559082
1766399531106969300,-20.39603076171875,-22.559999465942383,-1.3199999332427979,25.079999923706055
1766399531167119600,-20.33588037109375,-21.779998779296875,-0.5399999618530273,25.439998626708984
1766399531187139000,-20.31586083984375,-21.899999618530273,-0.8399999737739563,25.01999855041504
1766399531197209900,-20.3057900390625,-22.3799991607666,-0.8399999737739563,24.719999313354492
1766399531207219700,-20.2957802734375,-22.260000228881836,-1.2599999904632568,25.439998626708984
1766399531257390600,-20.245609375,-22.920000076293945,-1.3799999952316284,25.3799991607666
1766399531267369700,-20.23563037109375,-22.439998626708984,-1.2599999904632568,25.85999870300293
1766399531337651700,-20.165348388671877,-23.459999084472656,-0.35999998450279236,25.739999771118164
1766399531357702000,-20.145298095703126,-23.15999984741211,-1.3799999952316284,25.85999870300293
1766399531367681000,-20.135319091796877,-23.279998779296875,-1.0799999237060547,26.15999984741211
1766399531377691000,-20.12530908203125,-22.68000030517578,-0.8999999761581421,26.399999618530273
1766399531387731000,-20.11526904296875,-22.5,0.11999999731779099,26.8799991607666
1766399531407781000,-20.095218994140627,-21.84000015258789,-0.23999999463558197,26.459999084472656
1766399531427800600,-20.075199462890627,-22.739999771118164,-0.5399999618530273,25.5
1766399531447850800,-20.055149169921876,-23.399999618530273,-0.8999999761581421,25.979999542236328
1766399531507939800,-19.99506005859375,-21.239999771118164,-0.8999999761581421,25.799999237060547
1766399531527989800,-19.97501025390625,-22.260000228881836,-0.41999998688697815,25.799999237060547
1766399531548009500,-19.954990478515626,-23.100000381469727,-0.8399999737739563,26.03999900817871
1766399531558110700,-19.94488916015625,-23.459999084472656,-1.1999999284744263,25.68000030517578
1766399531568120600,-19.93487939453125,-22.979999542236328,-1.1399999856948853,25.619998931884766
1766399531588201000,-19.914799072265627,-22.85999870300293,-0.47999998927116394,25.439998626708984
1766399531598271700,-19.904728271484377,-21.65999984741211,-0.5999999642372131,25.739999771118164
1766399531638371800,-19.864628173828127,-23.51999855041504,-1.2599999904632568,25.439998626708984
1766399531648381700,-19.854618408203127,-23.579999923706055,-1.6799999475479126,25.3799991607666
1766399531658452500,-19.844547607421877,-24.600000381469727,-1.559999942779541,25.079999923706055
1766399531678563600,-19.8244365234375,-23.579999923706055,-0.41999998688697815,25.3799991607666
1766399531708593000,-19.794406982421876,-22.920000076293945,-0.23999999463558197,26.099998474121094
1766399531738652700,-19.764347412109377,-24.18000030517578,-0.5399999618530273,25.559999465942383
1766399531748693000,-19.75430712890625,-23.34000015258789,-0.7799999713897705,25.3799991607666
1766399531758702800,-19.744297119140626,-22.739999771118164,-0.6599999666213989,25.31999969482422
1766399531808782000,-19.694218017578127,-22.260000228881836,-0.47999998927116394,24.779998779296875
1766399531848882200,-19.654117919921877,-22.920000076293945,-0.05999999865889549,24.719999313354492
1766399531858922500,-19.644077392578126,-23.81999969482422,-0.41999998688697815,24.35999870300293
1766399531878972400,-19.624027587890627,-23.34000015258789,-0.47999998927116394,25.619998931884766
1766399531889043200,-19.613956787109377,-23.279998779296875,-0.41999998688697815,25.559999465942383
1766399531909063000,-19.59393701171875,-22.799999237060547,0.23999999463558197,26.34000015258789
1766399531939153200,-19.563846923828127,-23.579999923706055,-1.6200000047683716,25.619998931884766
1766399531949163000,-19.5538369140625,-24.420000076293945,-1.3799999952316284,25.079999923706055
1766399531959172600,-19.543827392578127,-24.239999771118164,-1.3799999952316284,24.719999313354492
1766399531999272700,-19.503727294921877,-24.479999542236328,-0.11999999731779099,25.559999465942383
1766399532029363200,-19.47363671875,-23.639999389648438,-0.7199999690055847,25.619998931884766
1766399532039372800,-19.463627197265627,-22.979999542236328,-0.8399999737739563,25.979999542236328
1766399532119695000,-19.383304931640627,-23.219999313354492,-1.2599999904632568,25.979999542236328
1766399532189946600,-19.313053466796877,-24.239999771118164,-0.5399999618530273,25.85999870300293
1766399532209966000,-19.293033935546877,-24,-1.4399999380111694,25.3799991607666
1766399532220006400,-19.28299365234375,-23.69999885559082,-1.1399999856948853,25.5
1766399532230016300,-19.272983642578126,-24.119998931884766,-0.41999998688697815,25.799999237060547
1766399532240026000,-19.262973876953126,-24.420000076293945,0,25.799999237060547
1766399532290166300,-19.212833740234377,-23.100000381469727,-0.11999999731779099,26.399999618530273
1766399532320287200,-19.182712646484376,-23.15999984741211,-0.23999999463558197,24.35999870300293
1766399532340368000,-19.162632080078126,-23.51999855041504,0.11999999731779099,25.139999389648438
1766399532350347000,-19.152653076171877,-23.459999084472656,0.47999998927116394,25.739999771118164
1766399532400457000,-19.10254296875,-21.18000030517578,-0.5999999642372131,26.459999084472656
1766399532430516700,-19.072483154296876,-23.399999618530273,-0.41999998688697815,25.979999542236328
1766399532440557000,-19.06244287109375,-23.939998626708984,-0.47999998927116394,25.979999542236328
1766399532450597400,-19.052402587890626,-23.69999885559082,-0.35999998450279236,26.51999855041504
1766399532470647300,-19.032352783203127,-22.920000076293945,-0.6599999666213989,26.579999923706055
1766399532490666800,-19.012333251953127,-22.020000457763672,-0.9599999785423279,26.099998474121094
1766399532510717000,-18.992282958984376,-22.5,-0.47999998927116394,26.399999618530273
1766399532520757200,-18.98224267578125,-22.85999870300293,-0.11999999731779099,26.34000015258789
1766399532540807200,-18.96219287109375,-24.719999313354492,-0.47999998927116394,25.01999855041504
1766399535113783800,-16.38921630859375,-22.979999542236328,-0.5999999642372131,25.439998626708984
1766399535123593700,-16.37940625,-24.059999465942383,0.05999999865889549,25.01999855041504
1766399535143343600,-16.359656494140626,-24.84000015258789,0.05999999865889549,25.799999237060547
1766399535163293700,-16.339706298828126,-24.65999984741211,0.17999999225139618,26.219999313354492
1766399535173203500,-16.329796630859374,-24.53999900817871,0.9599999785423279,26.099998474121094
1766399535203324400,-16.299675537109376,-23.219999313354492,0,25.85999870300293
1766399535273514800,-16.2294853515625,-24.059999465942383,-0.5399999618530273,25.3799991607666
1766399535353684500,-16.1493154296875,-23.100000381469727,-0.11999999731779099,25.739999771118164
1766399535403733200,-16.099266845703124,-24.479999542236328,0.11999999731779099,26.03999900817871
1766399535423783400,-16.079216552734376,-24.239999771118164,0.41999998688697815,26.459999084472656
1766399535433793000,-16.06920703125,-24.779998779296875,-0.29999998211860657,26.099998474121094
1766399535443833300,-16.059166748046874,-24.65999984741211,-0.05999999865889549,26.51999855041504
1766399535453843200,-16.04915673828125,-23.639999389648438,-0.5999999642372131,26.099998474121094
1766399535463852800,-16.039147216796874,-24.239999771118164,-0.5999999642372131,26.8799991607666
1766399535483872500,-16.01912744140625,-24.420000076293945,-0.5999999642372131,26.219999313354492
1766399535493882000,-16.009117919921874,-25.079999923706055,-1.0199999809265137,25.979999542236328
1766399535523911400,-15.979088623046875,-25.619998931884766,0.05999999865889549,26.219999313354492
1766399535533921300,-15.96907861328125,-25.799999237060547,1.0799999237060547,26.69999885559082
1766399535543931100,-15.95906884765625,-25.19999885559082,0.7799999713897705,26.579999923706055
1766399535553971200,-15.94902880859375,-24.479999542236328,0.47999998927116394,26.459999084472656
1766399535563981000,-15.93901904296875,-24,0,26.099998474121094
1766399535573991000,-15.929009033203124,-23.939998626708984,-0.7199999690055847,25.68000030517578
1766399535584000500,-15.91899951171875,-24.719999313354492,-0.29999998211860657,25.85999870300293
1766399535594010400,-15.90898974609375,-25.139999389648438,-0.35999998450279236,25.619998931884766
1766399535644120300,-15.858879638671874,-24.65999984741211,-0.29999998211860657,25.68000030517578
1766399535654130000,-15.8488701171875,-25.3799991607666,-0.5999999642372131,25.739999771118164
1766399535664139800,-15.838860107421874,-25.139999389648438,0,26.760000228881836
1766399535674149600,-15.828850341796874,-25.5,0.17999999225139618,26.51999855041504
1766399535684159200,-15.8188408203125,-25.3799991607666,0.17999999225139618,26.639999389648438
1766399535694199600,-15.808800537109375,-25.799999237060547,0.11999999731779099,26.8799991607666
1766399535734269200,-15.768730712890624,-25.139999389648438,-0.11999999731779099,26.03999900817871
1766399535744279000,-15.758720947265624,-24.479999542236328,-0.17999999225139618,26.279998779296875
1766399535764329000,-15.738671142578125,-24.959999084472656,0,26.459999084472656
1766399535774369300,-15.728630615234374,-26.03999900817871,0.35999998450279236,26.279998779296875
1766399535784379100,-15.718620849609374,-26.579999923706055,0.11999999731779099,26.279998779296875
1766399535794419200,-15.708580810546875,-26.760000228881836,-0.11999999731779099,25.979999542236328
1766399535844529200,-15.658470947265625,-27.239999771118164,-0.11999999731779099,26.34000015258789
1766399535854539000,-15.6484609375,-27,-0.17999999225139618,26.51999855041504
1766399535874589000,-15.6284111328125,-26.69999885559082,0.8399999737739563,26.579999923706055
1766399535884598800,-15.618401123046874,-26.399999618530273,0.5999999642372131,26.15999984741211
1766399535894608600,-15.608391357421874,-26.69999885559082,0.7799999713897705,26.399999618530273
1766399535914658600,-15.588341552734375,-26.639999389648438,0,25.920000076293945
1766399535954728200,-15.548271728515624,-26.15999984741211,-0.8399999737739563,26.15999984741211
1766399535974808800,-15.528191162109374,-25.31999969482422,-0.05999999865889549,26.639999389648438
1766399535984849000,-15.518151123046875,-26.099998474121094,0,26.099998474121094
1766399535994858800,-15.508141357421875,-25.5,0.7799999713897705,26.399999618530273
1766399536004868600,-15.49813134765625,-25.799999237060547,0.29999998211860657,26.459999084472656
1766399536014878200,-15.488121826171875,-26.399999618530273,0.23999999463558197,26.03999900817871
1766399536034898000,-15.46810205078125,-26.099998474121094,0.11999999731779099,25.85999870300293
1766399536074936800,-15.428063232421875,-23.15999984741211,-0.05999999865889549,25.68000030517578
1766399536084946700,-15.41805322265625,-23.579999923706055,-0.23999999463558197,25.619998931884766
1766399536094956500,-15.40804345703125,-24.299999237060547,-0.5399999618530273,25.3799991607666
1766399536114976000,-15.38802392578125,-25.19999885559082,-0.5999999642372131,25.079999923706055
1766399536124985900,-15.37801416015625,-25.139999389648438,-0.41999998688697815,25.079999923706055
1766399536135026000,-15.36797412109375,-24.719999313354492,0.23999999463558197,26.03999900817871
1766399536145035800,-15.357964111328124,-24.779998779296875,0.41999998688697815,25.920000076293945
1766399536165086000,-15.3379140625,-25.01999855041504,0.17999999225139618,25.619998931884766
1766399536185135900,-15.317864013671874,-24.35999870300293,-0.5999999642372131,25.01999855041504
1766399536195176200,-15.30782373046875,-24.239999771118164,-0.7199999690055847,25.19999885559082
1766399536215195600,-15.287804443359375,-24.84000015258789,-0.29999998211860657,25.079999923706055
1766399536225236000,-15.277763916015624,-25.260000228881836,-0.23999999463558197,25.799999237060547
1766399536265244400,-15.237755615234375,-26.03999900817871,-0.05999999865889549,25.920000076293945
1766399536275284700,-15.22771533203125,-25.619998931884766,-0.05999999865889549,26.51999855041504
1766399536285325000,-15.217675048828125,-24.53999900817871,-0.35999998450279236,26.639999389648438
1766399536295335000,-15.2076650390625,-24.53999900817871,-0.5399999618530273,26.639999389648438
1766399536305344500,-15.197655517578125,-24.719999313354492,-0.05999999865889549,26.579999923706055
1766399536315354400,-15.187645751953125,-25.739999771118164,0.17999999225139618,26.03999900817871
1766399536325364200,-15.1776357421875,-26.099998474121094,0,26.51999855041504
1766399536355424000,-15.147575927734374,-25.979999542236328,0.29999998211860657,26.760000228881836
1766399536365433900,-15.137566162109374,-26.219999313354492,1.1399999856948853,26.15999984741211
1766399536375443500,-15.127556640625,-25.68000030517578,1.0799999237060547,26.399999618530273
1766399536395463000,-15.107537109375,-25.139999389648438,0.17999999225139618,26.219999313354492
1766399536405503200,-15.097496826171875,-25.31999969482422,-0.05999999865889549,26.51999855041504
1766399536415513000,-15.08748681640625,-26.099998474121094,0.17999999225139618,26.099998474121094
1766399536425461800,-15.077538330078125,-26.03999900817871,0.29999998211860657,25.920000076293945
1766399536465531400,-15.037468505859374,-26.099998474121094,-0.5399999618530273,27
1766399536475632600,-15.027367431640625,-25.920000076293945,-0.35999998450279236,26.579999923706055
1766399536485612000,-15.017387939453124,-25.439998626708984,-0.35999998450279236,26.34000015258789
1766399536495621600,-15.00737841796875,-26.279998779296875,-0.11999999731779099,26.760000228881836
1766399536505601000,-14.99739892578125,-26.099998474121094,-0.11999999731779099,25.739999771118164
1766399536525681400,-14.977318603515625,-27,-0.35999998450279236,25.31999969482422
1766399536555772000,-14.94722802734375,-26.8799991607666,0.05999999865889549,25.979999542236328
1766399536565751000,-14.9372490234375,-26.51999855041504,-0.23999999463558197,25.920000076293945
1766399536575761000,-14.927239013671874,-25.799999237060547,-0.29999998211860657,26.15999984741211
1766399536585740000,-14.917260009765625,-25.979999542236328,0.05999999865889549,25.920000076293945
1766399536595780400,-14.9072197265625,-25.85999870300293,-0.41999998688697815,25.85999870300293
1766399536605790200,-14.897209716796874,-25.439998626708984,0.05999999865889549,25.3799991607666
1766399536615800000,-14.887199951171874,-25.68000030517578,0.47999998927116394,25.799999237060547
1766399536625779200,-14.877220703125,-25.01999855041504,0.11999999731779099,25.739999771118164
1766399536675858400,-14.8271416015625,-25.260000228881836,-0.05999999865889549,25.139999389648438
1766399536685868300,-14.817131591796874,-25.439998626708984,0.11999999731779099,25.68000030517578
1766399536695878100,-14.807121826171874,-24.959999084472656,0.6599999666213989,26.399999618530273
1766399536705826800,-14.797173095703124,-25.19999885559082,0.23999999463558197,26.51999855041504
1766399536715867100,-14.7871328125,-25.439998626708984,0.05999999865889549,26.34000015258789
1766399536755997700,-14.747002197265624,-24.719999313354492,-0.11999999731779099,26.099998474121094
1766399536766007600,-14.736992431640624,-25.439998626708984,-0.41999998688697815,25.799999237060547
1766399536776017200,-14.72698291015625,-25.260000228881836,-1.0199999809265137,25.439998626708984
1766399536796097800,-14.706902099609374,-25.85999870300293,-0.6599999666213989,25.439998626708984
1766399536816148000,-14.68685205078125,-25.139999389648438,0.11999999731779099,26.03999900817871
1766399536826157600,-14.676842529296875,-25.799999237060547,-0.05999999865889549,25.920000076293945
1766399536866227200,-14.636772705078124,-25.979999542236328,1.4399999380111694,25.979999542236328
1766399536876267500,-14.626732421875,-26.51999855041504,1.0799999237060547,25.799999237060547
1766399536886277000,-14.616722900390625,-26.81999969482422,0.9599999785423279,25.920000076293945
1766399536896287000,-14.606713134765625,-26.399999618530273,1.0799999237060547,25.920000076293945
1766399536906266400,-14.596733642578124,-26.639999389648438,0.23999999463558197,25.5
1766399536916367600,-14.58663232421875,-26.639999389648438,0.23999999463558197,25.3799991607666
1766399536926346800,-14.5766533203125,-26.15999984741211,0,25.439998626708984
1766399536946335700,-14.556664306640625,-26.760000228881836,0.29999998211860657,24.600000381469727
1766399536966386000,-14.536614013671874,-27.18000030517578,0.47999998927116394,24.239999771118164
1766399536976395500,-14.5266044921875,-27,-0.05999999865889549,24.059999465942383
1766399536986405400,-14.5165947265625,-26.760000228881836,0,24.299999237060547
1766399536996415200,-14.506584716796874,-26.459999084472656,-0.05999999865889549,24.779998779296875
1766399537006424800,-14.4965751953125,-26.34000015258789,0.6599999666213989,24.420000076293945
1766399537016434700,-14.4865654296875,-25.739999771118164,1.6799999475479126,25.079999923706055
1766399537026444500,-14.476555419921874,-26.51999855041504,1.4399999380111694,24.65999984741211
1766399537036454100,-14.4665458984375,-27.53999900817871,0.7799999713897705,23.760000228881836
1766399537076523800,-14.426476318359375,-27.479999542236328,0,24.84000015258789
1766399537086533600,-14.41646630859375,-27.420000076293945,0.17999999225139618,24.420000076293945
1766399537106522600,-14.396477294921874,-27.35999870300293,0.11999999731779099,24.899999618530273
1766399537116532500,-14.386467529296874,-26.51999855041504,-0.29999998211860657,24.84000015258789
1766399537126542000,-14.3764580078125,-25.920000076293945,-0.5399999618530273,25.01999855041504
1766399537136552000,-14.366447998046874,-24.959999084472656,-0.5999999642372131,25.079999923706055
1766399537166581200,-14.336418701171874,-27.059999465942383,-0.5999999642372131,25.31999969482422
1766399537176590800,-14.3264091796875,-28.19999885559082,-0.29999998211860657,25.31999969482422
1766399537186600700,-14.3163994140625,-27.65999984741211,-0.23999999463558197,25.31999969482422
1766399537196671500,-14.30632861328125,-27.959999084472656,-0.05999999865889549,25.5
1766399537206651000,-14.29634912109375,-28.079999923706055,0.17999999225139618,25.260000228881836
1766399537216660500,-14.286339599609375,-27.65999984741211,-0.47999998927116394,24.779998779296875
1766399537226670300,-14.27632958984375,-28.079999923706055,-0.8399999737739563,24.479999542236328
1766399537236710700,-14.266289306640624,-27.65999984741211,-1.2599999904632568,24.84000015258789
1766399537286820400,-14.2161796875,-26.279998779296875,-0.7799999713897705,25.01999855041504
1766399537296830200,-14.206169677734374,-26.8799991607666,-0.8999999761581421,24.779998779296875
1766399537306840000,-14.196159912109374,-26.760000228881836,-1.1999999284744263,24.779998779296875
1766399537316849700,-14.186150390625,-27.18000030517578,-1.0799999237060547,24.600000381469727
1766399537326890000,-14.176110107421875,-27.599998474121094,-0.7799999713897705,25.079999923706055
1766399537336930300,-14.166069580078124,-27.18000030517578,-1.559999942779541,25.559999465942383
1766399537387070700,-14.11592919921875,-25.920000076293945,0.17999999225139618,25.19999885559082
1766399537397080600,-14.10591943359375,-25.799999237060547,0.41999998688697815,25.19999885559082
1766399537407090200,-14.095909912109375,-26.279998779296875,0.23999999463558197,24.959999084472656
1766399537417161000,-14.085839111328125,-26.579999923706055,0.05999999865889549,24.899999618530273
1766399537427140400,-14.075859619140624,-26.399999618530273,-0.05999999865889549,25.439998626708984
1766399537437150000,-14.06585009765625,-26.69999885559082,-0.8399999737739563,24.959999084472656
1766399537447129300,-14.05587060546875,-26.399999618530273,-1.0199999809265137,24.899999618530273
1766399537457169700,-14.045830322265624,-25.799999237060547,-1.2599999904632568,25.01999855041504
1766399537497208600,-14.00579150390625,-27.599998474121094,-0.9599999785423279,24.53999900817871
1766399537507218400,-13.995781494140624,-27.239999771118164,-0.8399999737739563,24.53999900817871
1766399537517228300,-13.985771728515624,-27.899999618530273,-1.1999999284744263,24.420000076293945
1766399537527238000,-13.97576220703125,-27.65999984741211,-1.6200000047683716,24.53999900817871
1766399537537278200,-13.9657216796875,-27.420000076293945,-1.6799999475479126,24.53999900817871
1766399537547288000,-13.9557119140625,-26.760000228881836,-1.5,24.899999618530273
1766399537557297700,-13.945702392578125,-27.119998931884766,-1.0799999237060547,25.739999771118164
1766399537567307500,-13.9356923828125,-27,-0.8999999761581421,26.03999900817871
1766399537587357400,-13.915642578125,-27.84000015258789,-1.5,25.85999870300293
1766399537617386800,-13.88561328125,-26.8799991607666,-2.0399999618530273,24
1766399537627396600,-13.875603271484374,-26.579999923706055,-2.2799999713897705,24.479999542236328
1766399537637406500,-13.865593505859374,-27.059999465942383,-2.6399998664855957,24.299999237060547
1766399537647416000,-13.855583984375,-27.299999237060547,-2.879999876022339,23.81999969482422
1766399537657395500,-13.8456044921875,-27.65999984741211,-3.059999942779541,24.600000381469727
1766399537667405000,-13.835594970703125,-27.479999542236328,-3.059999942779541,24.18000030517578
1766399537677415000,-13.825585205078125,-27.119998931884766,-3.119999885559082,24.299999237060547
1766399537687394300,-13.815605712890624,-27,-3.240000009536743,24.420000076293945
1766399537717484500,-13.785515380859374,-27.779998779296875,-2.5799999237060547,24
1766399537727494400,-13.775505615234374,-27.35999870300293,-2.2799999713897705,24
1766399537737504000,-13.76549609375,-26.939998626708984,-1.9799998998641968,24.239999771118164
1766399537747483400,-13.7555166015625,-26.51999855041504,-1.9199999570846558,24.299999237060547
1766399537757523500,-13.7454765625,-26.099998474121094,-2.3399999141693115,24.35999870300293
1766399537767533300,-13.735466796875,-26.51999855041504,-2.0999999046325684,24.65999984741211
1766399537777543200,-13.725456787109374,-27.299999237060547,-2.2200000286102295,24.600000381469727
1766399537787583500,-13.71541650390625,-27.84000015258789,-2.759999990463257,24.420000076293945
1766399537807633400,-13.69536669921875,-27.53999900817871,-3,23.579999923706055
1766399537817673700,-13.685326171875,-26.639999389648438,-2.819999933242798,24.299999237060547
1766399537827683600,-13.67531640625,-25.85999870300293,-2.759999990463257,24.84000015258789
1766399537837723600,-13.6652763671875,-25.260000228881836,-2.879999876022339,24.600000381469727
1766399537847703000,-13.655296875,-25.139999389648438,-2.759999990463257,24.779998779296875
1766399537857743400,-13.645256591796874,-25.3799991607666,-3.299999952316284,24.059999465942383
1766399537867753000,-13.6352470703125,-25.5,-2.879999876022339,23.51999855041504
1766399537877762800,-13.6252373046875,-25.979999542236328,-2.4600000381469727,24.119998931884766
1766399537917863000,-13.58513720703125,-24.600000381469727,-3,24.119998931884766
1766399537927903200,-13.5750966796875,-25.01999855041504,-3.359999895095825,23.639999389648438
1766399537937943600,-13.565056396484374,-25.739999771118164,-3.5399999618530273,23.399999618530273
1766399537947953200,-13.555046875,-26.459999084472656,-4.079999923706055,22.979999542236328
1766399537957963000,-13.545037109375,-27.299999237060547,-3.6599998474121094,23.34000015258789
1766399537967972900,-13.535027099609374,-27.239999771118164,-3.4800000190734863,23.279998779296875
1766399537978043600,-13.524956298828124,-27.479999542236328,-3.059999942779541,23.34000015258789
1766399537988022800,-13.514977294921875,-26.639999389648438,-3.359999895095825,23.81999969482422
1766399538018082600,-13.48491748046875,-25.439998626708984,-3.119999885559082,23.579999923706055
1766399538028092400,-13.474907470703124,-26.279998779296875,-2.700000047683716,23.51999855041504
1766399538038132700,-13.4648671875,-27.18000030517578,-3,23.100000381469727
1766399538048142600,-13.454857421875,-27.599998474121094,-3.4800000190734863,22.979999542236328
1766399538058182700,-13.4448173828125,-27.53999900817871,-3.5999999046325684,23.51999855041504
1766399538068192500,-13.434807373046874,-27.35999870300293,-3.6599998474121094,23.219999313354492
1766399538078263300,-13.42473681640625,-27.059999465942383,-3.299999952316284,23.579999923706055
1766399538088273200,-13.414726806640624,-27.18000030517578,-2.6399998664855957,23.69999885559082
1766399538118333000,-13.3846669921875,-26.69999885559082,-3.059999942779541,23.760000228881836
1766399538128342800,-13.3746572265625,-26.34000015258789,-3.059999942779541,23.760000228881836
1766399538138352400,-13.364647705078125,-25.799999237060547,-2.1599998474121094,24.18000030517578
1766399538148362200,-13.3546376953125,-26.279998779296875,-2.759999990463257,24.239999771118164
1766399538158433000,-13.34456689453125,-27.059999465942383,-2.5799999237060547,23.459999084472656
1766399538168412200,-13.334587890625,-27.479999542236328,-3.119999885559082,23.15999984741211
1766399538178422000,-13.324577880859374,-28.260000228881836,-3.419999837875366,22.619998931884766
1766399538188432000,-13.314568115234374,-27.599998474121094,-3.119999885559082,22.739999771118164
1766399538198441500,-13.30455859375,-27.479999542236328,-2.879999876022339,22.559999465942383
1766399538228532000,-13.274468017578124,-26.03999900817871,-2.93999981880188,22.439998626708984
1766399538238541600,-13.26445849609375,-26.459999084472656,-3,22.559999465942383
1766399538248582000,-13.254418212890625,-26.760000228881836,-3.299999952316284,22.19999885559082
1766399538258591700,-13.244408203125,-27.420000076293945,-2.759999990463257,22.260000228881836
1766399538268632000,-13.234367919921874,-28.260000228881836,-2.0999999046325684,22.619998931884766
1766399538288651500,-13.214348388671874,-27.35999870300293,-2.2799999713897705,24.18000030517578
1766399538298691800,-13.20430810546875,-27,-2.4600000381469727,24.35999870300293
1766399538338730800,-13.164269287109375,-25.85999870300293,-1.1399999856948853,22.799999237060547
1766399538348771000,-13.15422900390625,-26.219999313354492,-1.0799999237060547,22.920000076293945
1766399538358811400,-13.144188720703125,-26.51999855041504,-1.5,22.920000076293945
1766399538368821200,-13.1341787109375,-27.239999771118164,-1.3799999952316284,22.739999771118164
1766399538378861600,-13.124138427734374,-26.579999923706055,-1.7400000095367432,22.979999542236328
1766399538388871200,-13.11412890625,-25.979999542236328,-1.7400000095367432,22.559999465942383
1766399538398911500,-13.104088623046875,-25.619998931884766,-1.8600000143051147,22.020000457763672
1766399538408921300,-13.09407861328125,-24.65999984741211,-1.8600000143051147,22.079999923706055
1766399538418961700,-13.084038330078124,-25.5,-1.0799999237060547,21.959999084472656
1766399538438981000,-13.064018798828124,-27.53999900817871,-0.5399999618530273,22.559999465942383
1766399538448991000,-13.054009033203124,-28.559999465942383,0,22.619998931884766
1766399538459000600,-13.04399951171875,-28.01999855041504,-0.5399999618530273,22.920000076293945
1766399538469010400,-13.033989501953124,-28.079999923706055,-0.41999998688697815,22.799999237060547
1766399538479050800,-13.02394921875,-27.779998779296875,-0.17999999225139618,23.15999984741211
1766399538489091000,-13.013908935546874,-27.84000015258789,0.05999999865889549,23.459999084472656
1766399538499161900,-13.003838134765624,-27.899999618530273,0.5399999618530273,23.279998779296875
1766399538509171500,-12.99382861328125,-27.35999870300293,0.05999999865889549,23.279998779296875
1766399538519181300,-12.983818603515624,-27.299999237060547,0.23999999463558197,23.81999969482422
1766399538549271600,-12.953728515625,-26.219999313354492,-0.5999999642372131,24.600000381469727
1766399538569291300,-12.933708740234374,-26.8799991607666,-0.8999999761581421,23.51999855041504
1766399538589280300,-12.9137197265625,-27.18000030517578,-0.41999998688697815,22.979999542236328
1766399538599289900,-12.903710205078125,-26.459999084472656,-0.41999998688697815,22.979999542236328
1766399538619309600,-12.8836904296875,-25.260000228881836,-0.8399999737739563,22.85999870300293
1766399538669419300,-12.833580810546875,-26.15999984741211,-0.5399999618530273,22.799999237060547
1766399538679429000,-12.82357080078125,-26.099998474121094,-1.0199999809265137,22.619998931884766
1766399538689439000,-12.81356103515625,-26.279998779296875,-1.3199999332427979,22.739999771118164
1766399538699479000,-12.80352099609375,-26.099998474121094,-1.3199999332427979,22.619998931884766
1766399538709489000,-12.793510986328124,-25.920000076293945,-1.2599999904632568,23.03999900817871
1766399538719529200,-12.783470703125,-25.260000228881836,-1.1399999856948853,23.459999084472656
1766399538729539000,-12.7734609375,-24.65999984741211,-0.8399999737739563,23.760000228881836
1766399538739579100,-12.7634208984375,-24.53999900817871,-1.3199999332427979,23.69999885559082
1766399538789719600,-12.713280517578125,-25.079999923706055,-0.5999999642372131,23.459999084472656
1766399538799760000,-12.703240234375,-25.619998931884766,-0.8999999761581421,23.459999084472656
1766399538809830700,-12.69316943359375,-25.559999465942383,-1.559999942779541,23.459999084472656
1766399538819840500,-12.683159423828124,-25.139999389648438,-1.7999999523162842,23.34000015258789
1766399538829850000,-12.67314990234375,-25.799999237060547,-2.1599998474121094,23.34000015258789
1766399538839860000,-12.66314013671875,-24.53999900817871,-1.4399999380111694,23.8799991607666
1766399538869889300,-12.63311083984375,-22.920000076293945,-0.6599999666213989,24.959999084472656
1766399538879960000,-12.6230400390625,-23.34000015258789,-1.0799999237060547,24.600000381469727
1766399538889939500,-12.613060546875,-23.760000228881836,-1.5,23.939998626708984
1766399538899979500,-12.6030205078125,-24.119998931884766,-1.5,23.69999885559082
1766399538909989400,-12.5930107421875,-23.51999855041504,-1.9199999570846558,23.100000381469727
1766399538919999200,-12.583000732421874,-22.85999870300293,-2.2200000286102295,22.31999969482422
1766399538930008800,-12.5729912109375,-22.31999969482422,-2.0399999618530273,22.979999542236328
1766399538940018700,-12.562981201171874,-23.100000381469727,-2.0999999046325684,22.979999542236328
1766399538950028500,-12.552971435546874,-23.8799991607666,-1.5,23.34000015258789
1766399538970078500,-12.532921630859375,-24.779998779296875,-0.47999998927116394,23.399999618530273
1766399538980088300,-12.52291162109375,-23.939998626708984,0.05999999865889549,23.459999084472656
1766399538990128600,-12.512871337890624,-24,-0.41999998688697815,23.100000381469727
1766399539000169000,-12.5028310546875,-25.139999389648438,-1.1399999856948853,23.03999900817871
1766399539010178600,-12.492821533203125,-25.01999855041504,-1.3799999952316284,23.100000381469727
1766399539020219000,-12.482781005859374,-24.899999618530273,-2.0399999618530273,22.68000030517578
1766399539030259200,-12.47274072265625,-25.260000228881836,-2.2200000286102295,22.979999542236328
1766399539040269000,-12.46273095703125,-24.779998779296875,-2.2200000286102295,22.68000030517578
1766399539050278700,-12.452721435546875,-24.719999313354492,-2.3399999141693115,22.139999389648438
1766399539080369200,-12.422630859375,-25.01999855041504,-1.559999942779541,21.84000015258789
1766399539100388600,-12.402611328125,-25.139999389648438,-0.8999999761581421,22.559999465942383
1766399539110429000,-12.392571044921874,-24.719999313354492,-1.559999942779541,21.84000015258789
1766399539120499700,-12.382500244140624,-25.19999885559082,-1.7400000095367432,21.719999313354492
1766399539130478800,-12.372521240234375,-24.53999900817871,-0.9599999785423279,22.799999237060547
1766399539140488700,-12.36251123046875,-24.84000015258789,-0.5399999618530273,22.85999870300293
1766399539150529000,-12.352470947265624,-25.260000228881836,-0.17999999225139618,23.459999084472656
1766399539160599800,-12.342400146484374,-24.959999084472656,-0.41999998688697815,23.51999855041504
1766399539190690000,-12.31231005859375,-24.959999084472656,-0.9599999785423279,22.920000076293945
1766399539200730400,-12.30226953125,-24.899999618530273,-1.0199999809265137,23.399999618530273
1766399539210740200,-12.292259765625,-24.600000381469727,-0.8399999737739563,23.279998779296875
1766399539220749800,-12.282250244140625,-24.059999465942383,-1.3799999952316284,23.399999618530273
1766399539230790100,-12.2722099609375,-23.579999923706055,-2.0999999046325684,23.279998779296875
1766399539240861000,-12.26213916015625,-24.18000030517578,-1.4399999380111694,23.100000381469727
1766399539250870800,-12.252129150390624,-24.479999542236328,-1.5,23.399999618530273
1766399539260941600,-12.242058349609374,-25.439998626708984,-1.3799999952316284,23.279998779296875
1766399539291031800,-12.21196826171875,-26.03999900817871,-1.3199999332427979,23.51999855041504
1766399539301041700,-12.201958251953124,-26.03999900817871,-1.8600000143051147,23.219999313354492
1766399539311112400,-12.191887451171874,-26.34000015258789,-2.2200000286102295,23.100000381469727
1766399539321122300,-12.181877685546874,-26.099998474121094,-1.7400000095367432,22.979999542236328
1766399539331132000,-12.1718681640625,-26.399999618530273,-1.559999942779541,23.399999618530273
1766399539341141800,-12.161858154296874,-27,-1.3199999332427979,23.8799991607666
1766399539351182000,-12.15181787109375,-27.299999237060547,-1.1399999856948853,24.18000030517578
1766399539361252900,-12.1417470703125,-27.65999984741211,-1.3199999332427979,23.760000228881836
1766399539371232000,-12.13176806640625,-27.299999237060547,-1.1999999284744263,23.639999389648438
1766399539411332000,-12.09166796875,-27.239999771118164,-1.3199999332427979,23.579999923706055
1766399539421342000,-12.081657958984374,-27.420000076293945,-0.23999999463558197,24.420000076293945
1766399539431351800,-12.071648193359374,-27.84000015258789,-0.29999998211860657,24.299999237060547
1766399539441361400,-12.061638671875,-27.959999084472656,0.23999999463558197,24.959999084472656
1766399539451401700,-12.051598388671875,-27.959999084472656,0.23999999463558197,24.899999618530273
1766399539471421200,-12.031578857421875,-27.059999465942383,-1.1999999284744263,24.779998779296875
1766399539481431000,-12.02156884765625,-27.18000030517578,-1.1999999284744263,24.119998931884766
1766399539511460400,-11.99153955078125,-26.939998626708984,-2.1599998474121094,23.459999084472656
1766399539521470200,-11.98152978515625,-26.760000228881836,-2.1599998474121094,23.279998779296875
1766399539531479800,-11.971520263671875,-27.059999465942383,-0.9599999785423279,23.939998626708984
1766399539541520100,-11.96147998046875,-26.51999855041504,-0.9599999785423279,23.81999969482422
1766399539551530000,-11.951469970703124,-26.81999969482422,-0.6599999666213989,23.939998626708984
1766399539561539600,-11.94146044921875,-27.239999771118164,-0.7799999713897705,24.239999771118164
1766399539601609200,-11.901390869140625,-28.19999885559082,-1.0799999237060547,23.8799991607666
1766399539611619000,-11.891380859375,-28.439998626708984,-0.6599999666213989,24.239999771118164
1766399539621628700,-11.881371337890625,-28.079999923706055,-0.5999999642372131,23.69999885559082
1766399539631669000,-11.8713310546875,-27.899999618530273,-0.6599999666213989,23.459999084472656
1766399539641678800,-11.861321044921874,-27.18000030517578,-0.6599999666213989,23.579999923706055
1766399539651688700,-11.851311279296874,-27.479999542236328,-0.8999999761581421,23.579999923706055
1766399539661698300,-11.8413017578125,-27.959999084472656,-0.7199999690055847,24.059999465942383
1766399539671708200,-11.831291748046874,-28.19999885559082,-1.3199999332427979,23.8799991607666
1766399539721848600,-11.7811513671875,-27.18000030517578,-0.8399999737739563,23.579999923706055
1766399539731827700,-11.77117236328125,-27.059999465942383,-1.0799999237060547,23.100000381469727
1766399539741837600,-11.761162353515624,-27.53999900817871,-0.9599999785423279,23.51999855041504
1766399539751847400,-11.751152587890624,-27.719999313354492,-0.9599999785423279,23.760000228881836
1766399539761857000,-11.74114306640625,-28.31999969482422,-0.9599999785423279,24.299999237060547
1766399539771867000,-11.731133056640624,-28.3799991607666,-0.7799999713897705,24.899999618530273
1766399539781907200,-11.7210927734375,-27.959999084472656,-1.0799999237060547,24.779998779296875
1766399539811905800,-11.69109423828125,-26.399999618530273,-0.6599999666213989,24.65999984741211
1766399539841965800,-11.6610341796875,-25.079999923706055,-1.1999999284744263,24.119998931884766
1766399539852006000,-11.650994140625,-24.779998779296875,-0.8999999761581421,24.059999465942383
1766399539862046200,-11.640953857421875,-25.260000228881836,-1.1399999856948853,24
1766399539872056000,-11.63094384765625,-25.68000030517578,-0.7799999713897705,24.600000381469727
