time,seconds_elapsed,z,y,x
1766399502206360000,-49.29663989257813,9.515480995178223,-1.7636258602142334,-1.586074948310852
1766399502246429700,-49.2565703125,9.508203506469727,-1.8095440864562988,-1.5779751539230347
1766399502256439300,-49.246560791015625,9.508652687072754,-1.8051880598068237,-1.5802572965621948
1766399502266449200,-49.23655078125,9.507731437683105,-1.8071532249450684,-1.5835509300231934
1766399502276428300,-49.22657177734375,9.505939483642578,-1.812807559967041,-1.587836742401123
1766399502286468600,-49.216531494140625,9.505409240722656,-1.8147021532058716,-1.5888468027114868
1766399502296478500,-49.206521484375,9.507549285888672,-1.8014951944351196,-1.591072678565979
1766399502306488300,-49.19651171875,9.513442039489746,-1.769549012184143,-1.5916975736618042
1766399502316498000,-49.186502197265625,9.516449928283691,-1.7551993131637573,-1.5896023511886597
1766399502346588400,-49.15641162109375,9.509917259216309,-1.7855229377746582,-1.5949221849441528
1766399502356598000,-49.146402099609375,9.506426811218262,-1.8031095266342163,-1.5959409475326538
1766399502366638300,-49.13636157226563,9.502979278564453,-1.8192760944366455,-1.5981289148330688
1766399502376678700,-49.1263212890625,9.500714302062988,-1.8292367458343506,-1.6002229452133179
1766399502406708000,-49.0962919921875,9.492547035217285,-1.8799036741256714,-1.5899341106414795
1766399502416748300,-49.08625170898438,9.491541862487793,-1.8876104354858398,-1.586803674697876
1766399502456787200,-49.046212890625,9.476025581359863,-1.972853422164917,-1.5758087635040283
1766399502466797000,-49.03620288085938,9.472737312316895,-1.9887633323669434,-1.5755810737609863
1766399502476807000,-49.02619311523438,9.46699047088623,-2.0150973796844482,-1.5766606330871582
1766399502486877700,-49.01612231445313,9.462082862854004,-2.035810947418213,-1.579509973526001
1766399502496856800,-49.00614306640625,9.456783294677734,-2.0564186573028564,-1.584547996520996
1766399502506866700,-48.99613330078125,9.451072692871094,-2.0780537128448486,-1.5903788805007935
1766399502516876300,-48.986123779296875,9.444149017333984,-2.0993916988372803,-1.6034330129623413
1766399502526886100,-48.97611376953125,9.435761451721191,-2.133507251739502,-1.607775092124939
1766399502536896000,-48.96610400390625,9.424466133117676,-2.1933274269104004,-1.593470573425293
1766399502556946000,-48.94605419921875,9.40035343170166,-2.3168129920959473,-1.5608075857162476
1766399502566955800,-48.93604418945313,9.368054389953613,-2.46720290184021,-1.524091362953186
1766399502576935000,-48.926065185546875,9.339520454406738,-2.5895111560821533,-1.4960510730743408
1766399502587005700,-48.915994384765625,9.32289981842041,-2.6569602489471436,-1.4813787937164307
1766399502597015600,-48.905984375,9.255086898803711,-2.9041693210601807,-1.442064642906189
1766399502607025400,-48.895974609375,9.197759628295898,-3.090580701828003,-1.4212383031845093
1766399502617096200,-48.88590380859375,9.132868766784668,-3.2835376262664795,-1.4069366455078125
1766399502627105800,-48.875894287109375,9.065180778503418,-3.467895269393921,-1.4023504257202148
1766399502657165600,-48.84583447265625,8.823225021362305,-4.017829418182373,-1.4758511781692505
1766399502667175400,-48.83582446289063,8.716046333312988,-4.225765228271484,-1.5309579372406006
1766399502677185300,-48.82581469726563,8.594762802124023,-4.443521022796631,-1.598609209060669
1766399502687195000,-48.81580517578125,8.457792282104492,-4.671009540557861,-1.6786340475082397
1766399502697235200,-48.805764892578125,8.384051322937012,-4.786247730255127,-1.7233407497406006
1766399502707275500,-48.79572436523438,8.127415657043457,-5.154271602630615,-1.8838788270950317
1766399502717255000,-48.7857451171875,8.033970832824707,-5.276530742645264,-1.9452276229858398
1766399502727264500,-48.775735595703125,7.7143988609313965,-5.657337665557861,-2.157072067260742
1766399502737274400,-48.7657255859375,7.593013286590576,-5.783882141113281,-2.2501680850982666
1766399502767334100,-48.73566577148438,6.7086262702941895,-6.498377799987793,-2.989283800125122
1766399502777374500,-48.72562548828125,6.252301216125488,-6.775907516479492,-3.3415846824645996
1766399502787384300,-48.71561572265625,5.925543308258057,-6.929813861846924,-3.610542058944702
1766399502797394000,-48.705606201171875,5.597086429595947,-7.057521343231201,-3.877422571182251
1766399502807434200,-48.69556567382813,5.425095558166504,-7.110271453857422,-4.022780418395996
1766399502817444000,-48.68555590820313,5.095619201660156,-7.191209316253662,-4.300181865692139
1766399502827453700,-48.67554638671875,4.610454559326172,-7.24995231628418,-4.727820873260498
1766399502837433000,-48.66556689453125,4.284852504730225,-7.251532554626465,-5.022520065307617
1766399502867492900,-48.63550708007813,3.460285186767578,-7.138594150543213,-5.765178680419922
1766399502877502700,-48.62549731445313,3.1458399295806885,-7.0398149490356445,-6.059298038482666
1766399502887512300,-48.61548779296875,2.746816635131836,-6.807337760925293,-6.502734184265137
1766399502897522200,-48.60547778320313,2.50085711479187,-6.618494510650635,-6.790555953979492
1766399502907593000,-48.59540698242188,2.2783987522125244,-6.404695987701416,-7.068181037902832
1766399502917602800,-48.58539721679688,2.1741836071014404,-6.291147708892822,-7.201720237731934
1766399502927643000,-48.575357177734375,1.9866076707839966,-6.051591873168945,-7.456676483154297
1766399502937652700,-48.56534716796875,1.7520337104797363,-5.672720909118652,-7.805191516876221
1766399502947693000,-48.55530688476563,1.682402491569519,-5.540702819824219,-7.914576530456543
1766399502997772300,-48.505227783203125,1.3474289178848267,-4.3362932205200195,-8.692030906677246
1766399503017822500,-48.48517749023438,1.3477692604064941,-3.897031784057617,-8.897586822509766
1766399503027832300,-48.47516772460938,1.349494218826294,-3.8266732692718506,-8.927812576293945
1766399508125001000,-43.3779990234375,9.656832695007324,-1.1527889966964722,-1.259777545928955
1766399508174710800,-43.32828930664063,9.65133285522461,-1.1468032598495483,-1.3065274953842163
1766399508224851200,-43.27814868164062,9.650858879089355,-1.0434504747390747,-1.3937468528747559
1766399508234860800,-43.26813916015625,9.651432037353516,-1.0304956436157227,-1.399398922920227
1766399508285031700,-43.21796826171875,9.656899452209473,-0.9865757822990417,-1.3933227062225342
1766399508295072000,-43.20792797851563,9.65850830078125,-0.973332941532135,-1.3914819955825806
1766399508335141600,-43.1678583984375,9.663766860961914,-0.9106464385986328,-1.3974014520645142
1766399508425190700,-43.077809326171874,9.653087615966797,-0.8933340311050415,-1.4799461364746094
1766399508475361500,-43.027638427734374,9.643209457397461,-0.9683896899223328,-1.4970394372940063
1766399508495411500,-43.00758862304688,9.649415969848633,-0.9248678088188171,-1.4845165014266968
1766399508505451800,-42.99754833984375,9.647171974182129,-0.9429692625999451,-1.487707257270813
1766399508515461600,-42.987538330078124,9.64497184753418,-0.9617727994918823,-1.489931583404541
1766399508525471200,-42.97752880859375,9.6444673538208,-0.9664254188537598,-1.490190029144287
1766399508535542300,-42.967457763671874,9.645210266113281,-0.9571137428283691,-1.4913915395736694
1766399508545552000,-42.9574482421875,9.646697044372559,-0.9474711418151855,-1.4879261255264282
1766399508575703300,-42.927296630859374,9.652595520019531,-0.9137231111526489,-1.4706759452819824
1766399508585713200,-42.917286865234374,9.65833854675293,-0.8766776919364929,-1.455443263053894
1766399508595722800,-42.90727734375,9.659699440002441,-0.8695659041404724,-1.4506703615188599
1766399508605732600,-42.897267333984374,9.662229537963867,-0.8518807291984558,-1.4443018436431885
1766399508615742500,-42.887257568359374,9.668806076049805,-0.8128883838653564,-1.422597885131836
1766399508625752000,-42.877248046875,9.672017097473145,-0.7969257831573486,-1.40975022315979
1766399508635762000,-42.867238037109374,9.6832914352417,-0.7392933368682861,-1.3629732131958008
1766399508645802200,-42.85719775390625,9.691656112670898,-0.6803057789802551,-1.3339276313781738
1766399508665821700,-42.83717822265625,9.708625793457031,-0.5040034055709839,-1.2880030870437622
1766399508675831600,-42.82716845703125,9.71170425415039,-0.46212878823280334,-1.2804795503616333
1766399508685841200,-42.81715893554688,9.717520713806152,-0.3454476296901703,-1.273125171661377
1766399508695881500,-42.807118408203124,9.72045612335205,-0.2554458677768707,-1.2719502449035645
1766399508705891300,-42.797108642578124,9.721602439880371,-0.20885464549064636,-1.2716948986053467
1766399508715962000,-42.787037841796874,9.722886085510254,-0.1183953657746315,-1.2735168933868408
1766399508726002400,-42.77699755859375,9.723033905029297,-0.019821185618638992,-1.2777314186096191
1766399508736012000,-42.76698803710938,9.721158981323242,0.09176543354988098,-1.2888096570968628
1766399508746022000,-42.75697802734375,9.714218139648438,0.2612481117248535,-1.317613959312439
1766399508786091500,-42.716908447265624,9.69310188293457,0.5664000511169434,-1.3759891986846924
1766399508796101000,-42.70689892578125,9.683370590209961,0.6852226257324219,-1.3903899192810059
1766399508806111000,-42.696888916015624,9.677644729614258,0.7553987503051758,-1.3938935995101929
1766399508816181800,-42.686818359375,9.676156997680664,0.784517765045166,-1.3881319761276245
1766399508836232000,-42.66676806640625,9.664366722106934,0.9123954176902771,-1.3920994997024536
1766399508846272000,-42.65672802734375,9.65499210357666,0.9892194867134094,-1.404618263244629
1766399508876362500,-42.626637451171874,9.634529113769531,1.093195915222168,-1.4666794538497925
1766399508886372000,-42.6166279296875,9.632381439208984,1.1056102514266968,-1.4714759588241577
1766399508896412400,-42.60658764648438,9.633728981018066,1.1023844480514526,-1.4650574922561646
1766399508906422300,-42.59657763671875,9.6377592086792,1.0728358030319214,-1.4604772329330444
1766399508916462600,-42.586537353515624,9.642982482910156,1.021470546722412,-1.46282958984375
1766399508926472200,-42.57652783203125,9.649426460266113,0.9568078517913818,-1.4640635251998901
1766399508936482000,-42.56651806640625,9.655935287475586,0.8890998959541321,-1.4638309478759766
1766399508946461400,-42.55653857421875,9.662054061889648,0.8261969089508057,-1.4603060483932495
1766399508986530800,-42.51646923828125,9.672281265258789,0.7023589611053467,-1.4574151039123535
1766399509016621300,-42.486378662109374,9.673545837402344,0.7051539421081543,-1.447636604309082
1766399509026631000,-42.476369140625,9.675164222717285,0.7046770453453064,-1.4370123147964478
1766399509036671200,-42.46632885742188,9.676294326782227,0.7122875452041626,-1.4256123304367065
1766399509046711600,-42.456288330078124,9.677189826965332,0.728202760219574,-1.4114153385162354
1766399509056751900,-42.446248046875,9.677841186523438,0.736893892288208,-1.402413249015808
1766399509076801800,-42.4261982421875,9.67711067199707,0.788841187953949,-1.3789995908737183
1766399509086811600,-42.416188232421874,9.67663288116455,0.7965342998504639,-1.3779358863830566
1766399509096882400,-42.40611767578125,9.675132751464844,0.8123194575309753,-1.3792496919631958
1766399509116932600,-42.3860673828125,9.672462463378906,0.8366715908050537,-1.3834154605865479
1766399509126942200,-42.37605786132813,9.67072868347168,0.8526978492736816,-1.3857483863830566
1766399509136982500,-42.366017578125,9.669703483581543,0.8625146746635437,-1.3868261575698853
1766399509146992400,-42.356007568359374,9.667997360229492,0.8764243125915527,-1.3899970054626465
1766399509157002000,-42.345998046875,9.666370391845703,0.8868976831436157,-1.3946638107299805
1766399509207173000,-42.295826904296874,9.665117263793945,0.8359852433204651,-1.4342330694198608
1766399509217182700,-42.2858173828125,9.666101455688477,0.7853979468345642,-1.4560279846191406
1766399509227192600,-42.275807373046874,9.667237281799316,0.7443251013755798,-1.4699939489364624
1766399509237233000,-42.26576708984375,9.677635192871094,0.6470385789871216,-1.4474451541900635
1766399509247303700,-42.2556962890625,9.679486274719238,0.6063516736030579,-1.4526770114898682
1766399509257344000,-42.245656005859374,9.682598114013672,0.577857255935669,-1.4435304403305054
1766399509287403800,-42.21559619140625,9.681816101074219,0.6447454690933228,-1.420255422592163
1766399509297413400,-42.20558666992188,9.6816987991333,0.6445751190185547,-1.4211348295211792
1766399509307423200,-42.19557666015625,9.681260108947754,0.640646755695343,-1.4258897304534912
1766399509317433000,-42.18556689453125,9.680058479309082,0.6210505962371826,-1.442620038986206
1766399509327442700,-42.17555737304688,9.679426193237305,0.6140408515930176,-1.4498456716537476
1766399509337483000,-42.16551708984375,9.677075386047363,0.6180928945541382,-1.4637527465820312
1766399509347492900,-42.155507080078124,9.678170204162598,0.6009621024131775,-1.463646650314331
1766399509357502700,-42.145497314453124,9.676989555358887,0.6019834876060486,-1.4710090160369873
1766399509367542800,-42.13545727539063,9.675789833068848,0.6093076467514038,-1.4758799076080322
1766399509417652700,-42.08534716796875,9.668591499328613,0.6334546208381653,-1.5124338865280151
1766399509427662600,-42.07533740234375,9.668028831481934,0.6346140503883362,-1.5155458450317383
1766399509437672200,-42.06532788085938,9.667305946350098,0.636663019657135,-1.5192900896072388
1766399509447682000,-42.05531787109375,9.666841506958008,0.6372655034065247,-1.5219910144805908
1766399509457722400,-42.045277587890624,9.66633415222168,0.6326855421066284,-1.5271109342575073
1766399509467732000,-42.03526806640625,9.666178703308105,0.619545042514801,-1.5334734916687012
1766399509477741800,-42.025258056640624,9.666214942932129,0.592483401298523,-1.543905258178711
1766399509527912700,-41.97508740234375,9.668196678161621,0.5221856236457825,-1.556817650794983
1766399509537953000,-41.965046875,9.669683456420898,0.5044987201690674,-1.5534130334854126
1766399509547963000,-41.955037109375,9.67052173614502,0.49451667070388794,-1.551404356956482
1766399509558003200,-41.944996826171874,9.6716890335083,0.4696023464202881,-1.5518662929534912
1766399509568012800,-41.9349873046875,9.672442436218262,0.456208199262619,-1.5511691570281982
1766399509578053000,-41.92494677734375,9.673384666442871,0.4522774815559387,-1.546433448791504
1766399509588063000,-41.91493701171875,9.674079895019531,0.4657105803489685,-1.5380743741989136
1766399509618153200,-41.8848466796875,9.67412281036377,0.4933355450630188,-1.5291715860366821
1766399509628163000,-41.8748369140625,9.67369556427002,0.47436273097991943,-1.5378450155258179
1766399509638172700,-41.86482739257813,9.673689842224121,0.46666526794433594,-1.5402348041534424
1766399509648182500,-41.8548173828125,9.673656463623047,0.4573090970516205,-1.5432484149932861
1766399509668232400,-41.834767578125,9.673564910888672,0.45505490899086,-1.5444906949996948
1766399509688252200,-41.814747802734374,9.673872947692871,0.4641203284263611,-1.5398622751235962
1766399509708302000,-41.79469799804688,9.675285339355469,0.46722641587257385,-1.5300136804580688
1766399509738331400,-41.76466870117188,9.675858497619629,0.4569755792617798,-1.529484510421753
1766399509748371700,-41.754628173828124,9.67594051361084,0.45584776997566223,-1.529300332069397
1766399509768391200,-41.73460888671875,9.676664352416992,0.4505746066570282,-1.5262806415557861
1766399509778431500,-41.72456860351563,9.677303314208984,0.4541556239128113,-1.5211609601974487
1766399509788441300,-41.71455859375,9.677742958068848,0.45911264419555664,-1.516867756843567
1766399509798451200,-41.704548828125,9.678030014038086,0.46490541100502014,-1.5132713317871094
1766399509838551300,-41.66444873046875,9.67702579498291,0.4763716161251068,-1.5161234140396118
1766399509848530400,-41.654469482421874,9.677007675170898,0.47675231099128723,-1.5161164999008179
1766399509858570800,-41.64442919921875,9.676689147949219,0.4789053797721863,-1.51747465133667
1766399509868580400,-41.63441967773438,9.676814079284668,0.4792678952217102,-1.5165600776672363
1766399509878590200,-41.62440991210938,9.676410675048828,0.4849512577056885,-1.5173317193984985
1766399509888569600,-41.614430419921874,9.676553726196289,0.4854566752910614,-1.516255259513855
1766399509898609700,-41.60439038085938,9.676733016967773,0.48507803678512573,-1.5152374505996704
1766399509938709800,-41.56429028320313,9.677830696105957,0.48784008622169495,-1.5073124170303345
1766399509948719600,-41.5542802734375,9.677821159362793,0.48551127314567566,-1.508123755455017
1766399509958729500,-41.5442705078125,9.67757797241211,0.47648581862449646,-1.5125552415847778
1766399509968739000,-41.53426098632813,9.67753791809082,0.47291019558906555,-1.5139399766921997
1766399509978749000,-41.5242509765625,9.677759170532227,0.47039976716041565,-1.5133064985275269
1766399509988758800,-41.5142412109375,9.677722930908203,0.46731501817703247,-1.514491319656372
1766399509998768400,-41.50423168945313,9.677777290344238,0.46754154562950134,-1.5140690803527832
1766399510008747800,-41.494252197265624,9.67767333984375,0.46952980756759644,-1.5141222476959229
1766399510038807600,-41.4641923828125,9.677146911621094,0.4610128700733185,-1.5200932025909424
1766399510048848000,-41.454152099609374,9.677386283874512,0.4552518427371979,-1.5203086137771606
1766399510058888200,-41.44411181640625,9.678059577941895,0.44612887501716614,-1.518717646598816
1766399510068897800,-41.43410229492188,9.678553581237793,0.43396082520484924,-1.519094705581665
1766399510078938000,-41.424061767578124,9.678563117980957,0.4300379157066345,-1.5201517343521118
1766399510088917500,-41.41408251953125,9.678692817687988,0.42691221833229065,-1.520211100578308
1766399510098957600,-41.40404248046875,9.678974151611328,0.42660611867904663,-1.5185041427612305
1766399510108967400,-41.394032470703124,9.678902626037598,0.42667949199676514,-1.5189369916915894
1766399510138996700,-41.364003173828124,9.679213523864746,0.4225892722606659,-1.5181033611297607
1766399510149006600,-41.353993408203124,9.679815292358398,0.41627487540245056,-1.5160049200057983
1766399510159016200,-41.34398388671875,9.681472778320312,0.4010968804359436,-1.5094965696334839
1766399510169087000,-41.3339130859375,9.682766914367676,0.39225950837135315,-1.503507137298584
1766399510179096800,-41.323903076171874,9.6834135055542,0.3896027207374573,-1.50003182888031
1766399510189137200,-41.31386279296875,9.684500694274902,0.38559675216674805,-1.494040608406067
1766399510199208000,-41.3037919921875,9.6850004196167,0.38247838616371155,-1.491600751876831
1766399510249348400,-41.253651611328124,9.685507774353027,0.3766144812107086,-1.4897987842559814
1766399510259388700,-41.243611328125,9.68549919128418,0.37758535146713257,-1.489604115486145
1766399510269398300,-41.23360180664063,9.685400009155273,0.3786764442920685,-1.4899706840515137
1766399510279408000,-41.223591796875,9.685500144958496,0.3785066306591034,-1.4893648624420166
1766399510289418000,-41.21358203125,9.68553638458252,0.37556466460227966,-1.4898730516433716
1766399510299458000,-41.2035419921875,9.6857328414917,0.3745267391204834,-1.4888625144958496
1766399510309468000,-41.193531982421874,9.685932159423828,0.3688002824783325,-1.4889949560165405
1766399510319477800,-41.183522216796874,9.68619155883789,0.36312904953956604,-1.4886951446533203
1766399510369679000,-41.13332080078125,9.68776798248291,0.3480832576751709,-1.4820154905319214
1766399510379719400,-41.123280517578124,9.687847137451172,0.3466686010360718,-1.4818285703659058
1766399510389729300,-41.113270751953124,9.687958717346191,0.3442407250404358,-1.481667399406433
1766399510399739000,-41.10326123046875,9.688035011291504,0.34138065576553345,-1.4818291664123535
1766399510409718300,-41.09328173828125,9.68825626373291,0.3414919376373291,-1.4803622961044312
1766399510419758300,-41.08324169921875,9.688300132751465,0.3427544832229614,-1.4797770977020264
1766399510449757200,-41.05324291992188,9.689136505126953,0.33775970339775085,-1.4754486083984375
1766399510459797500,-41.043202392578124,9.689177513122559,0.33705008029937744,-1.475342869758606
1766399510469807400,-41.033192626953124,9.689373016357422,0.33678561449050903,-1.4741158485412598
1766399510479817000,-41.02318310546875,9.689457893371582,0.3376629650592804,-1.4733537435531616
1766399510489826800,-41.013173095703124,9.689722061157227,0.34116339683532715,-1.4708138704299927
1766399510509846300,-40.99315380859375,9.69021987915039,0.33995217084884644,-1.4678047895431519
1766399510519856000,-40.983143798828124,9.6902494430542,0.3434273302555084,-1.4668036699295044
1766399510529866000,-40.973134033203124,9.690022468566895,0.3468594551086426,-1.4674896001815796
1766399510559956200,-40.943043701171874,9.688427925109863,0.35737165808677673,-1.475480556488037
1766399510569966000,-40.933033935546874,9.688239097595215,0.36096829175949097,-1.4758408069610596
1766399510580067300,-40.9229326171875,9.688350677490234,0.36153292655944824,-1.474968433380127
1766399510590046500,-40.91295361328125,9.688379287719727,0.36014631390571594,-1.475120186805725
1766399510600056300,-40.902943603515624,9.688115119934082,0.35740068554878235,-1.4775272607803345
1766399510610066200,-40.892933837890624,9.688053131103516,0.35611674189567566,-1.4782441854476929
1766399510620167400,-40.88283251953125,9.688042640686035,0.3495200574398041,-1.479882001876831
1766399510630146600,-40.872853515625,9.687907218933105,0.34649139642715454,-1.4814848899841309
1766399510660267500,-40.842732421875,9.688220977783203,0.34471771121025085,-1.4798377752304077
1766399510670277400,-40.83272265625,9.688176155090332,0.349569708108902,-1.478993535041809
1766399510680287000,-40.82271313476563,9.688039779663086,0.35286080837249756,-1.4791040420532227
1766399510690388200,-40.81261181640625,9.68777084350586,0.35613757371902466,-1.48008394241333
1766399510700398000,-40.802601806640624,9.687374114990234,0.3609941601753235,-1.4815069437026978
1766399510710408000,-40.792592041015624,9.68721866607666,0.36389169096946716,-1.4818148612976074
1766399510720417500,-40.78258251953125,9.687355995178223,0.3688848614692688,-1.4796749353408813
1766399510730457900,-40.77254223632813,9.687716484069824,0.3720480501651764,-1.476517677307129
1766399510740467700,-40.7625322265625,9.68837833404541,0.37276047468185425,-1.4719972610473633
1766399510770527500,-40.732472412109374,9.689818382263184,0.3739548623561859,-1.4621816873550415
1766399510780598300,-40.722401611328124,9.6902494430542,0.37758225202560425,-1.458386778831482
1766399510790577700,-40.71242236328125,9.690250396728516,0.3801792562007904,-1.457703709602356
1766399510800617700,-40.70238232421875,9.69025707244873,0.3866288363933563,-1.4559595584869385
1766399510810658000,-40.69234204101563,9.690140724182129,0.3896464407444,-1.4559276103973389
1766399510820668000,-40.68233203125,9.689854621887207,0.3894752562046051,-1.4578769207000732
1766399510830677800,-40.672322265625,9.689499855041504,0.3881845474243164,-1.4605804681777954
1766399510840687400,-40.66231274414063,9.689043045043945,0.3851296901702881,-1.4644181728363037
1766399510870716700,-40.63228344726563,9.688350677490234,0.3699670433998108,-1.4728801250457764
1766399510880726500,-40.6222734375,9.688350677490234,0.35886043310165405,-1.475623607635498
1766399510890766800,-40.612233154296874,9.68848991394043,0.34977957606315613,-1.476889729499817
1766399510900776400,-40.6022236328125,9.688560485839844,0.34568825364112854,-1.4773904085159302
1766399510910786300,-40.592213623046874,9.68889045715332,0.32686668634414673,-1.4795117378234863
1766399510920796200,-40.582203857421874,9.689094543457031,0.32143592834472656,-1.4793621301651
1766399510930836200,-40.57216381835938,9.689563751220703,0.29817909002304077,-1.4811547994613647
1766399510940876500,-40.56212353515625,9.68974781036377,0.24078181385993958,-1.49036705493927
1766399511011097600,-40.49190234375,9.700315475463867,-0.18095731735229492,-1.4288188219070435
1766399511021107500,-40.481892578125,9.701515197753906,-0.23070532083511353,-1.4134236574172974
1766399511031117000,-40.47188305664063,9.701915740966797,-0.25530052185058594,-1.40643310546875
1766399511041127000,-40.461873046875,9.703987121582031,-0.32431429624557495,-1.3776228427886963
1766399511051136500,-40.45186352539063,9.704901695251465,-0.36168739199638367,-1.3617810010910034
1766399511061146400,-40.441853515625,9.70685863494873,-0.38613948225975037,-1.3409581184387207
1766399511071156200,-40.43184375,9.708433151245117,-0.3956170976161957,-1.326724886894226
1766399511091206100,-40.4117939453125,9.714109420776367,-0.43092453479766846,-1.2730923891067505
1766399511101216000,-40.401783935546874,9.716364860534668,-0.4524034857749939,-1.2481845617294312
1766399511111225900,-40.391774169921874,9.71860408782959,-0.47247806191444397,-1.223067045211792
1766399511121235500,-40.3817646484375,9.72054386138916,-0.4860633909702301,-1.2021477222442627
1766399511131245300,-40.371754638671874,9.722500801086426,-0.494829386472702,-1.182582139968872
1766399511141255000,-40.3617451171875,9.724838256835938,-0.5034223198890686,-1.1595144271850586
1766399511151295200,-40.35170483398438,9.727474212646484,-0.5215907096862793,-1.1289771795272827
1766399511161305000,-40.34169482421875,9.72883129119873,-0.5338965058326721,-1.1113914251327515
1766399511171315000,-40.33168505859375,9.730567932128906,-0.5353180766105652,-1.0953876972198486
1766399511191364900,-40.31163525390625,9.73331356048584,-0.5270503163337708,-1.0748108625411987
1766399511201374700,-40.301625244140624,9.733848571777344,-0.5255646705627441,-1.0706850290298462
1766399511211384300,-40.29161572265625,9.73408317565918,-0.5307061076164246,-1.066003441810608
1766399511221424600,-40.28157543945313,9.733756065368652,-0.5330361723899841,-1.0678223371505737
1766399511231465000,-40.27153515625,9.733647346496582,-0.5333179235458374,-1.0686728954315186
1766399511241505300,-40.26149462890625,9.733697891235352,-0.5247078537940979,-1.0724658966064453
1766399511251576000,-40.251423828125,9.732307434082031,-0.5216301083564758,-1.0864992141723633
1766399511261586000,-40.2414140625,9.73035717010498,-0.533619225025177,-1.098083734512329
1766399511271595500,-40.23140454101563,9.728376388549805,-0.540022075176239,-1.1124062538146973
1766399511321675000,-40.181324951171874,9.717238426208496,-0.5882748961448669,-1.1830404996871948
1766399511331715300,-40.17128466796875,9.715069770812988,-0.6054244637489319,-1.192171573638916
1766399511341755600,-40.161244384765624,9.713858604431152,-0.6147998571395874,-1.197228193283081
1766399511351765200,-40.15123486328125,9.71279525756836,-0.6222130656242371,-1.202017068862915
1766399511361775000,-40.141224853515624,9.708590507507324,-0.6632738709449768,-1.2139705419540405
1766399511371784700,-40.13121533203125,9.707489013671875,-0.6746813058853149,-1.216492772102356
1766399511401875200,-40.101124755859374,9.703140258789062,-0.7603672742843628,-1.2005407810211182
1766399511411915500,-40.09108447265625,9.702875137329102,-0.7697349786758423,-1.1967086791992188
1766399511421925000,-40.08107495117188,9.70064640045166,-0.8038681149482727,-1.192328691482544
1766399511431935000,-40.07106494140625,9.69900131225586,-0.8279657959938049,-1.1892094612121582
1766399511442005800,-40.060994140625,9.697372436523438,-0.8499581217765808,-1.1869806051254272
1766399511452046000,-40.050953857421874,9.696269989013672,-0.8671156764030457,-1.1835739612579346
1766399511462056000,-40.040944091796874,9.695581436157227,-0.8811415433883667,-1.1788474321365356
1766399511472035000,-40.03096484375,9.694539070129395,-0.9016557931900024,-1.1718862056732178
1766399511482105900,-40.02089404296875,9.692963600158691,-0.9175768494606018,-1.1725594997406006
1766399511542256000,-39.960743896484374,9.684624671936035,-0.9782736897468567,-1.192236304283142
1766399511552265700,-39.950734375,9.683375358581543,-0.9896043539047241,-1.1930302381515503
1766399511562275600,-39.940724365234374,9.6806001663208,-0.9972258806228638,-1.2090905904769897
1766399511572285200,-39.93071484375,9.67924976348877,-1.0034836530685425,-1.2147142887115479
1766399511582295000,-39.920705078125,9.677452087402344,-1.0030224323272705,-1.2293306589126587
1766399511602375700,-39.900624267578124,9.675954818725586,-0.9862432479858398,-1.2544333934783936
1766399511622395100,-39.88060498046875,9.675789833068848,-0.9700215458869934,-1.2682784795761108
1766399511632405000,-39.870594970703124,9.674911499023438,-0.9702828526496887,-1.2747632265090942
1766399511642475800,-39.860524169921874,9.674163818359375,-0.9742339253425598,-1.2774274349212646
1766399511652516000,-39.85048388671875,9.673785209655762,-0.9778554439544678,-1.2775251865386963
1766399511662525700,-39.84047436523438,9.672942161560059,-0.9732266068458557,-1.2874040603637695
1766399511672535600,-39.83046435546875,9.672717094421387,-0.9683396816253662,-1.2927690744400024
1766399511682576000,-39.820424072265624,9.67357349395752,-0.9514681696891785,-1.2988717555999756
1766399511692616200,-39.8103837890625,9.674269676208496,-0.9426118731498718,-1.300146460533142
1766399511722645500,-39.7803544921875,9.674507141113281,-0.9373213648796082,-1.3021979331970215
1766399511742665000,-39.7603349609375,9.6770601272583,-0.9168734550476074,-1.2977817058563232
1766399511752674800,-39.7503251953125,9.678096771240234,-0.9167467355728149,-1.2901196479797363
1766399511762745600,-39.74025439453125,9.678292274475098,-0.9197221994400024,-1.2865285873413086
1766399511772755200,-39.73024487304688,9.678400993347168,-0.9315996766090393,-1.27713143825531
1766399511782765000,-39.72023486328125,9.67814826965332,-0.9384557604789734,-1.2740229368209839
1766399511792775000,-39.71022509765625,9.677582740783691,-0.9412272572517395,-1.2762733697891235
1766399511802784500,-39.70021557617188,9.678069114685059,-0.9253360033035278,-1.2841764688491821
1766399511842884600,-39.66011547851563,9.675724983215332,-0.8841155767440796,-1.3300676345825195
1766399511862904300,-39.640095703125,9.67314338684082,-0.8810320496559143,-1.3507307767868042
1766399511872914000,-39.63008618164063,9.672280311584473,-0.8835917711257935,-1.355230689048767
1766399511882923800,-39.620076171875,9.671142578125,-0.8870099186897278,-1.361100196838379
1766399511892933400,-39.61006665039063,9.670373916625977,-0.8898743987083435,-1.3646862506866455
1766399511902973700,-39.6000263671875,9.668354988098145,-0.8889126777648926,-1.3795362710952759
1766399511912983600,-39.590016357421874,9.667970657348633,-0.8842315673828125,-1.385233759880066
1766399511933064200,-39.569935791015624,9.665172576904297,-0.878261923789978,-1.4083609580993652
1766399511963154400,-39.539845458984374,9.661689758300781,-0.9068030118942261,-1.4141615629196167
1766399511973164300,-39.529835693359374,9.659926414489746,-0.9229630827903748,-1.4157495498657227
1766399511983174000,-39.519826171875,9.65841007232666,-0.9353343844413757,-1.4179738759994507
1766399511993183700,-39.509816162109374,9.657732009887695,-0.9494247436523438,-1.413220763206482
1766399512003193600,-39.499806396484374,9.655584335327148,-0.968665599822998,-1.4148404598236084
1766399512013234000,-39.48976611328125,9.652755737304688,-0.986504316329956,-1.4217989444732666
1766399512043263000,-39.45973706054688,9.649730682373047,-0.9979854822158813,-1.434262990951538
1766399512053303300,-39.44969677734375,9.6482572555542,-1.0069676637649536,-1.4378889799118042
1766399512063313200,-39.439686767578124,9.64783763885498,-1.0110929012298584,-1.4378139972686768
1766399512073323000,-39.429677001953124,9.64699935913086,-1.0176292657852173,-1.438827633857727
1766399512083363000,-39.41963696289063,9.647073745727539,-1.0212591886520386,-1.4357490539550781
1766399512093434000,-39.40956591796875,9.647603034973145,-1.0227640867233276,-1.4311200380325317
1766399512103443700,-39.39955639648438,9.648388862609863,-1.02129328250885,-1.4268656969070435
1766399512113453600,-39.38954638671875,9.649787902832031,-1.0211018323898315,-1.417508840560913
1766399512123463200,-39.37953686523438,9.651094436645508,-1.0253520011901855,-1.40549635887146
1766399512143543800,-39.35945629882813,9.653022766113281,-1.0376880168914795,-1.3830175399780273
1766399512163563300,-39.33943676757813,9.655503273010254,-1.0490294694900513,-1.3568973541259766
1766399512173603600,-39.329396484375,9.65653133392334,-1.0513328313827515,-1.3477756977081299
1766399512183613400,-39.319386474609374,9.658040046691895,-1.0488957166671753,-1.3388278484344482
1766399512193623300,-39.309376708984374,9.660544395446777,-1.0392588376998901,-1.3282370567321777
1766399512203663400,-39.29933666992188,9.663119316101074,-1.0314178466796875,-1.3155553340911865
1766399512213734400,-39.289265625,9.663576126098633,-1.0314466953277588,-1.3121765851974487
1766399512223744000,-39.27925610351563,9.663201332092285,-1.0394328832626343,-1.3086256980895996
1766399512263813600,-39.239186279296874,9.664637565612793,-1.0307157039642334,-1.3049112558364868
1766399512273792800,-39.22920727539063,9.664567947387695,-1.0312573909759521,-1.3050026893615723
1766399512283802600,-39.219197265625,9.664361000061035,-1.031184196472168,-1.3065842390060425
1766399512293812500,-39.2091875,9.663948059082031,-1.0349946022033691,-1.3066273927688599
1766399512303852800,-39.199147216796874,9.662579536437988,-1.0482492446899414,-1.306185245513916
1766399512313862400,-39.1891376953125,9.661559104919434,-1.0570906400680542,-1.3066068887710571
1766399512323933200,-39.17906689453125,9.660958290100098,-1.0626248121261597,-1.306559443473816
1766399512364002800,-39.1389970703125,9.660323143005371,-1.049330472946167,-1.3219102621078491
1766399512374012700,-39.1289873046875,9.659984588623047,-1.0511702299118042,-1.3229255676269531
1766399512384083500,-39.11891650390625,9.658310890197754,-1.0637649297714233,-1.3250693082809448
1766399512394093000,-39.10890698242188,9.657861709594727,-1.0697579383850098,-1.3235220909118652
1766399512404103000,-39.09889697265625,9.65788459777832,-1.0772141218185425,-1.3172937631607056
1766399512414143200,-39.088856689453124,9.657695770263672,-1.084492802619934,-1.312697172164917
1766399512424183600,-39.07881640625,9.656966209411621,-1.0934956073760986,-1.31059992313385
1766399512434162700,-39.06883740234375,9.656208038330078,-1.097550868988037,-1.3127856254577637
1766399512474201900,-39.028798095703124,9.656310081481934,-1.0821070671081543,-1.324805736541748
1766399512514240800,-38.98875927734375,9.656387329101562,-1.0648016929626465,-1.3381983041763306
1766399512524281000,-38.97871899414063,9.654622077941895,-1.0711982250213623,-1.345800757408142
1766399512534321400,-38.9686787109375,9.65408992767334,-1.0713884830474854,-1.3494670391082764
1766399512544331300,-38.958668701171874,9.653358459472656,-1.0733155012130737,-1.3531639575958252
1766399512564320300,-38.9386796875,9.650887489318848,-1.0725884437561035,-1.3712447881698608
1766399512574330000,-38.928669921875,9.65029239654541,-1.0681060552597046,-1.3789119720458984
1766399512584339700,-38.91866040039063,9.649604797363281,-1.0648994445800781,-1.3861808776855469
1766399512594349600,-38.908650390625,9.648584365844727,-1.0645304918289185,-1.3935472965240479
1766399512604390000,-38.898610107421874,9.645915031433105,-1.0744808912277222,-1.4043490886688232
1766399512614430200,-38.88856982421875,9.64449691772461,-1.079916000366211,-1.409912109375
1766399512624439800,-38.87856030273438,9.64031982421875,-1.1037414073944092,-1.4199926853179932
1766399512634449700,-38.86855029296875,9.637164115905762,-1.1181833744049072,-1.4300715923309326
1766399512654530300,-38.8484697265625,9.6329345703125,-1.1296665668487549,-1.4494175910949707
1766399512694660900,-38.808339111328124,9.622102737426758,-1.1741389036178589,-1.4855717420578003
1766399512704701200,-38.798298828125,9.620485305786133,-1.1841685771942139,-1.488085150718689
1766399512714710800,-38.78828930664063,9.619505882263184,-1.193688154220581,-1.4868056774139404
1766399512724751000,-38.778248779296874,9.61922836303711,-1.199449062347412,-1.4839680194854736
1766399512734791400,-38.76820849609375,9.617494583129883,-1.2161734104156494,-1.4815874099731445
1766399512744801300,-38.75819873046875,9.61672306060791,-1.2247612476348877,-1.479522943496704
1766399512754811000,-38.74818920898438,9.616650581359863,-1.2286276817321777,-1.4767827987670898
1766399512774891500,-38.7281083984375,9.616721153259277,-1.2396584749221802,-1.467076063156128
1766399512794911000,-38.70808911132813,9.61899185180664,-1.2391595840454102,-1.4525337219238281
1766399512804951300,-38.698048583984374,9.621163368225098,-1.2347443103790283,-1.4418730735778809
1766399512814991600,-38.68800830078125,9.623489379882812,-1.2336076498031616,-1.4272568225860596
1766399512825001500,-38.67799853515625,9.624894142150879,-1.23284113407135,-1.418414831161499
1766399512835011000,-38.66798901367188,9.625995635986328,-1.2419614791870117,-1.402895212173462
1766399512845021000,-38.65797900390625,9.626239776611328,-1.2585526704788208,-1.3863413333892822
1766399512855030800,-38.64796923828125,9.62574577331543,-1.2811249494552612,-1.3689894676208496
1766399512865040400,-38.63795971679688,9.625490188598633,-1.2921552658081055,-1.3603910207748413
1766399512895161300,-38.607838623046874,9.624408721923828,-1.3205561637878418,-1.340627908706665
1766399512915150300,-38.587849609375,9.621410369873047,-1.3525470495224,-1.33021879196167
1766399512925221000,-38.57777880859375,9.619035720825195,-1.3743706941604614,-1.325007677078247
1766399512945301800,-38.5576982421875,9.615595817565918,-1.4087904691696167,-1.3137738704681396
1766399512955281000,-38.547718994140624,9.613754272460938,-1.4242225885391235,-1.310608983039856
1766399512965290800,-38.537709228515624,9.611706733703613,-1.436536192893982,-1.3121975660324097
1766399512975331000,-38.5276689453125,9.60970687866211,-1.4460505247116089,-1.3163822889328003
1766399513005421300,-38.49757861328125,9.60633659362793,-1.4622400999069214,-1.3230799436569214
1766399513015492000,-38.4875078125,9.605864524841309,-1.4651800394058228,-1.3232557773590088
1766399513025563000,-38.47743701171875,9.604269981384277,-1.4751710891723633,-1.3237242698669434
1766399513035572700,-38.46742724609375,9.602740287780762,-1.4854637384414673,-1.3233181238174438
1766399513045582300,-38.45741772460938,9.600552558898926,-1.500576138496399,-1.3221378326416016
1766399513055592200,-38.44740771484375,9.599160194396973,-1.5112205743789673,-1.3201203346252441
1766399513065632500,-38.437367431640624,9.597776412963867,-1.5217479467391968,-1.3180872201919556
1766399513075642400,-38.427357666015624,9.597372055053711,-1.5258742570877075,-1.3162598609924316
1766399513085652000,-38.41734814453125,9.597511291503906,-1.529253363609314,-1.3113124370574951
1766399513115681300,-38.387318603515624,9.599566459655762,-1.5339471101760864,-1.2906264066696167
1766399513125691100,-38.377308837890624,9.599987983703613,-1.533108115196228,-1.2884857654571533
1766399513135731500,-38.3672685546875,9.600601196289062,-1.5323131084442139,-1.2848584651947021
1766399513145741000,-38.35725903320313,9.601929664611816,-1.5260541439056396,-1.2823737859725952
1766399513155720400,-38.347279541015624,9.602737426757812,-1.5227144956588745,-1.280294418334961
1766399513175770400,-38.32722973632813,9.60295581817627,-1.5139777660369873,-1.2889925241470337
1766399513215840000,-38.287159912109374,9.604705810546875,-1.4823147058486938,-1.3125402927398682
1766399513225880300,-38.27711962890625,9.605729103088379,-1.4758317470550537,-1.3123568296432495
1766399513235890000,-38.26711010742188,9.6075439453125,-1.4509334564208984,-1.3267565965652466
1766399513245899800,-38.25710034179688,9.608856201171875,-1.4337173700332642,-1.3359375
1766399513255940000,-38.247059814453124,9.60981273651123,-1.4156447649002075,-1.348275899887085
1766399513265980400,-38.23701953125,9.610555648803711,-1.398195505142212,-1.3611221313476562
1766399513275990000,-38.22701000976563,9.610615730285645,-1.3897324800491333,-1.36934232711792
1766399513286030300,-38.2169697265625,9.610723495483398,-1.3723924160003662,-1.3859738111495972
1766399513316059600,-38.1869404296875,9.61354923248291,-1.2986780405044556,-1.4364867210388184
1766399513326069500,-38.176930419921874,9.614424705505371,-1.2807813882827759,-1.4466581344604492
1766399513336079400,-38.166920654296874,9.61453914642334,-1.2652802467346191,-1.4594796895980835
1766399513346089000,-38.1569111328125,9.614665985107422,-1.2514067888259888,-1.4705629348754883
1766399513356098800,-38.146901123046874,9.614859580993652,-1.2437554597854614,-1.4757801294326782
1766399513376118300,-38.1268818359375,9.615665435791016,-1.2064754962921143,-1.5012625455856323
1766399513386128100,-38.116871826171874,9.616147994995117,-1.1913923025131226,-1.5101872682571411
1766399513426136600,-38.07686352539063,9.61695671081543,-1.179057002067566,-1.5147122144699097
1766399513436146400,-38.066853515625,9.617212295532227,-1.1781352758407593,-1.513810634613037
1766399513446156000,-38.05684399414063,9.617576599121094,-1.1714190244674683,-1.5167008638381958
1766399513456166000,-38.04683422851563,9.617639541625977,-1.1655899286270142,-1.5207916498184204
1766399513466206200,-38.036793701171874,9.617586135864258,-1.156266212463379,-1.5282238721847534
1766399513476185300,-38.02681469726563,9.617785453796387,-1.1494237184524536,-1.532124638557434
1766399513486195200,-38.0168046875,9.618051528930664,-1.1423317193984985,-1.53575599193573
1766399513526234400,-37.976765625,9.618820190429688,-1.12934148311615,-1.5405462980270386
1766399513536274700,-37.966725341796874,9.61905288696289,-1.1277248859405518,-1.5402743816375732
1766399513546284300,-37.9567158203125,9.61989974975586,-1.1244243383407593,-1.5373985767364502
1766399513556294100,-37.946705810546874,9.620678901672363,-1.119282603263855,-1.5362709760665894
1766399513566334500,-37.93666552734375,9.622241973876953,-1.1049317121505737,-1.5368694067001343
1766399513576344000,-37.92665600585938,9.623475074768066,-1.094087839126587,-1.5369093418121338
1766399513586354000,-37.91664599609375,9.624015808105469,-1.0883759260177612,-1.5375797748565674
1766399513626423600,-37.876576416015624,9.622142791748047,-1.0970988273620605,-1.5430924892425537
1766399513636433200,-37.86656689453125,9.622066497802734,-1.0918253660202026,-1.5472970008850098
1766399513646412500,-37.85658740234375,9.62297248840332,-1.0775991678237915,-1.5516307353973389
1766399513656422100,-37.84657788085938,9.623583793640137,-1.0673222541809082,-1.5549418926239014
1766399513676441900,-37.82655810546875,9.621672630310059,-1.0762919187545776,-1.5605729818344116
1766399513686451500,-37.81654858398438,9.620805740356445,-1.0870076417922974,-1.5584888458251953
1766399513716450300,-37.7865498046875,9.615665435791016,-1.157182216644287,-1.5395727157592773
1766399513726521000,-37.77647900390625,9.615328788757324,-1.1661577224731445,-1.534896731376648
1766399513736500500,-37.76649951171875,9.615680694580078,-1.1711102724075317,-1.5289121866226196
1766399513746510000,-37.75648999023438,9.616002082824707,-1.1792266368865967,-1.5206255912780762
1766399513756520000,-37.74647998046875,9.615857124328613,-1.1919044256210327,-1.511635184288025
1766399513766529800,-37.73647021484375,9.61568832397461,-1.2101478576660156,-1.4981508255004883
1766399513776569900,-37.72643017578125,9.615184783935547,-1.2333695888519287,-1.4823647737503052
1766399513786610200,-37.71638989257813,9.614204406738281,-1.2596774101257324,-1.4665144681930542
1766399513836720000,-37.66627978515625,9.61457347869873,-1.3213117122650146,-1.408715844154358
1766399513846730000,-37.65627001953125,9.614668846130371,-1.3283783197402954,-1.4014054536819458
1766399513856739600,-37.64626049804688,9.612960815429688,-1.3525338172912598,-1.3899692296981812
1766399513866749400,-37.63625048828125,9.60975170135498,-1.3906886577606201,-1.3744268417358398
1766399513876759300,-37.62624072265625,9.60845947265625,-1.4066081047058105,-1.3672404289245605
1766399513886799400,-37.61620068359375,9.608297348022461,-1.412013292312622,-1.3627997636795044
1766399513896809200,-37.606190673828124,9.608487129211426,-1.4156135320663452,-1.3577213287353516
1766399513926808000,-37.57619189453125,9.600075721740723,-1.4703723192214966,-1.3590179681777954
1766399513936848400,-37.566151611328124,9.596426010131836,-1.4912289381027222,-1.3620660305023193
1766399513946888700,-37.556111328125,9.592809677124023,-1.5118721723556519,-1.364782691001892
1766399513956898300,-37.54610180664063,9.592019081115723,-1.5166250467300415,-1.3650662899017334
1766399513966877700,-37.536122314453124,9.590351104736328,-1.5232219696044922,-1.3694367408752441
1766399513976917800,-37.52608227539063,9.58894157409668,-1.5273879766464233,-1.3746533393859863
1766399513986927600,-37.516072265625,9.587776184082031,-1.5301889181137085,-1.3796557188034058
1766399513996937500,-37.5060625,9.586030960083008,-1.5346156358718872,-1.3868529796600342
1766399514006916600,-37.49608349609375,9.583614349365234,-1.5423165559768677,-1.3949884176254272
1766399514036976400,-37.46602368164063,9.57686996459961,-1.5604469776153564,-1.4208998680114746
1766399514046955800,-37.456044189453124,9.575963973999023,-1.5593245029449463,-1.4282186031341553
1766399514057026600,-37.445973388671874,9.57502555847168,-1.5602335929870605,-1.4335072040557861
1766399514067067000,-37.43593310546875,9.573858261108398,-1.5620677471160889,-1.4392975568771362
1766399514077076500,-37.42592358398438,9.572757720947266,-1.563827395439148,-1.4446898698806763
1766399514087056000,-37.415944091796874,9.571045875549316,-1.5680818557739258,-1.4514106512069702
1766399514097126700,-37.405873291015624,9.570401191711426,-1.5697035789489746,-1.4539012908935547
1766399514107136300,-37.39586376953125,9.56904125213623,-1.5756785869598389,-1.456393837928772
1766399514137257200,-37.36574267578125,9.565648078918457,-1.589606523513794,-1.4635263681411743
1766399514147267000,-37.35573291015625,9.565187454223633,-1.589327335357666,-1.4668407440185547
1766399514157246200,-37.34575390625,9.564218521118164,-1.591650366783142,-1.4706312417984009
1766399514167256000,-37.335743896484374,9.563908576965332,-1.593515157699585,-1.4706259965896606
1766399514177296400,-37.32570361328125,9.563013076782227,-1.599913477897644,-1.4695038795471191
1766399514187306000,-37.31569409179688,9.561267852783203,-1.6112767457962036,-1.468445062637329
1766399514197315800,-37.30568408203125,9.56058120727539,-1.6163088083267212,-1.4673880338668823
1766399514207295000,-37.295705078125,9.56003189086914,-1.6223821640014648,-1.4642633199691772
1766399514217335300,-37.28566479492188,9.5597562789917,-1.6261239051818848,-1.4619042873382568
1766399514237355000,-37.26564501953125,9.558656692504883,-1.6342629194259644,-1.460017442703247
1766399514247334100,-37.255665771484374,9.558753967285156,-1.6360809803009033,-1.457344651222229
1766399514267384000,-37.23561596679688,9.559894561767578,-1.634233832359314,-1.4519221782684326
1766399514277394000,-37.22560620117188,9.559953689575195,-1.6361163854599,-1.449410319328308
1766399514287373300,-37.215626708984374,9.558674812316895,-1.6438199281692505,-1.449131965637207
1766399514297413400,-37.20558666992188,9.55728530883789,-1.6523910760879517,-1.4485458135604858
1766399514307423200,-37.19557666015625,9.556472778320312,-1.6583521366119385,-1.447098731994629
1766399514327442700,-37.17555737304688,9.556264877319336,-1.659321665763855,-1.4473557472229004
1766399514357472000,-37.14552807617188,9.5541410446167,-1.6772207021713257,-1.4407293796539307
1766399514367481900,-37.13551806640625,9.553685188293457,-1.6810647249221802,-1.439275860786438
1766399514377522200,-37.125477783203124,9.55355453491211,-1.6813231706619263,-1.4398376941680908
1766399514387562500,-37.1154375,9.553473472595215,-1.6803271770477295,-1.4415359497070312
1766399514397572000,-37.10542797851563,9.553509712219238,-1.6792887449264526,-1.4425048828125
1766399514407582000,-37.09541796875,9.553731918334961,-1.6769338846206665,-1.443777322769165
1766399514417591800,-37.085408203125,9.554132461547852,-1.6734119653701782,-1.4452154636383057
1766399514427601400,-37.07539868164063,9.554760932922363,-1.6687155961990356,-1.446484088897705
1766399514457692000,-37.04530810546875,9.554803848266602,-1.6664084196090698,-1.4488602876663208
1766399514467701500,-37.03529858398438,9.554669380187988,-1.6704069375991821,-1.4451394081115723
1766399514497792000,-37.0052080078125,9.552945137023926,-1.6851791143417358,-1.4393727779388428
1766399514507801600,-36.99519848632813,9.552250862121582,-1.685396671295166,-1.4437175989151
1766399514517781000,-36.985218994140624,9.551607131958008,-1.6813404560089111,-1.4526838064193726
1766399514527760100,-36.97523999023438,9.551676750183105,-1.6788486242294312,-1.4551018476486206
1766399514537800400,-36.965199462890624,9.551993370056152,-1.6736916303634644,-1.4589568376541138
1766399514567829800,-36.935170166015624,9.551523208618164,-1.6487576961517334,-1.4900959730148315
1766399514577900500,-36.925099365234374,9.553481101989746,-1.6322662830352783,-1.4956945180892944
1766399514587940900,-36.91505908203125,9.55392074584961,-1.6280887126922607,-1.497437596321106
1766399514597950500,-36.90504956054688,9.554159164428711,-1.6235920190811157,-1.5007914304733276
1766399514607960300,-36.89503979492188,9.554704666137695,-1.620503544807434,-1.5006604194641113
1766399514618000600,-36.884999267578124,9.556081771850586,-1.6109287738800049,-1.5022015571594238
1766399514628041000,-36.874958984375,9.55716323852539,-1.6056596040725708,-1.5009596347808838
1766399514638050800,-36.86494921875,9.557409286499023,-1.6054786443710327,-1.4995828866958618
1766399514658070300,-36.8449296875,9.556817054748535,-1.6107267141342163,-1.4977272748947144
1766399514668079900,-36.83492016601563,9.556397438049316,-1.6118688583374023,-1.4991763830184937
1766399514678089700,-36.82491015625,9.55623722076416,-1.6115849018096924,-1.500506043434143
1766399514688099600,-36.814900390625,9.556190490722656,-1.6103206872940063,-1.5021586418151855
1766399514698109200,-36.80489086914063,9.556825637817383,-1.604282259941101,-1.5045756101608276
1766399514708149500,-36.7948505859375,9.557917594909668,-1.5916178226470947,-1.5110756158828735
1766399514718159400,-36.784840576171874,9.559287071228027,-1.5787712335586548,-1.515878677368164
1766399514728169200,-36.774830810546874,9.56015396118164,-1.569242238998413,-1.5203027725219727
1766399514738240000,-36.764760009765624,9.560491561889648,-1.5643926858901978,-1.5231772661209106
1766399514788411000,-36.714589111328124,9.562816619873047,-1.5249863862991333,-1.5483344793319702
1766399514798420500,-36.70457958984375,9.563337326049805,-1.519478678703308,-1.5505340099334717
1766399514808460800,-36.69453930664063,9.565162658691406,-1.5041717290878296,-1.5541948080062866
1766399514818501000,-36.684498779296874,9.566021919250488,-1.4990488290786743,-1.5538532733917236
1766399514828511000,-36.674489013671874,9.566728591918945,-1.493481159210205,-1.5548593997955322
1766399514838520600,-36.6644794921875,9.566605567932129,-1.4928730726242065,-1.5562022924423218
1766399514848561000,-36.65443920898438,9.566529273986816,-1.4869709014892578,-1.5623103380203247
1766399514888691500,-36.61430859375,9.57053279876709,-1.4530210494995117,-1.5697170495986938
1766399514898701300,-36.604298583984374,9.572551727294922,-1.4436055421829224,-1.566091537475586
1766399514908741600,-36.59425830078125,9.574773788452148,-1.4388362169265747,-1.5568675994873047
1766399514918720800,-36.584279296875,9.575300216674805,-1.4403531551361084,-1.5522263050079346
1766399514928761000,-36.57423901367188,9.576045036315918,-1.4428560733795166,-1.5452899932861328
1766399514938771000,-36.56422900390625,9.575754165649414,-1.4435409307479858,-1.5464507341384888
1766399514948780500,-36.55421948242188,9.57624626159668,-1.4437651634216309,-1.543191909790039
1766399514998890500,-36.50410961914063,9.586634635925293,-1.3711153268814087,-1.5449484586715698
1766399515008961300,-36.49403881835938,9.586023330688477,-1.361070990562439,-1.5575696229934692
1766399515018971100,-36.48402880859375,9.585607528686523,-1.3598331212997437,-1.5612053871154785
1766399515028980700,-36.47401928710938,9.582797050476074,-1.3626034259796143,-1.5759788751602173
1766399515038990600,-36.46400952148438,9.583163261413574,-1.365472435951233,-1.571258306503296
1766399515049000400,-36.45399951171875,9.58174991607666,-1.3669874668121338,-1.5785417556762695
1766399515059010000,-36.44398999023438,9.581079483032227,-1.3660879135131836,-1.5833837985992432
1766399515099110100,-36.40388989257813,9.580467224121094,-1.3551743030548096,-1.59641432762146
1766399515109120000,-36.3938798828125,9.581512451171875,-1.3478442430496216,-1.5963441133499146
1766399515119129900,-36.3838701171875,9.582528114318848,-1.3444838523864746,-1.5930832624435425
1766399515129170200,-36.373829833984374,9.58326530456543,-1.345878005027771,-1.5874546766281128
1766399515139179800,-36.3638203125,9.583267211914062,-1.3491826057434082,-1.5846391916275024
1766399515149189600,-36.353810302734374,9.585627555847168,-1.348059058189392,-1.5712610483169556
1766399515189289700,-36.313710205078124,9.59299373626709,-1.3339985609054565,-1.5379513502120972
1766399515199299600,-36.303700439453124,9.595123291015625,-1.3290823698043823,-1.5289016962051392
1766399515209309200,-36.29369091796875,9.598786354064941,-1.3246841430664062,-1.509602427482605
1766399515219319000,-36.283680908203124,9.600592613220215,-1.3232908248901367,-1.4993057250976562
1766399515229328600,-36.27367138671875,9.602620124816895,-1.3242160081863403,-1.4854363203048706
1766399515239338500,-36.26366162109375,9.604308128356934,-1.326331615447998,-1.4725795984268188
1766399515249378800,-36.25362109375,9.60600757598877,-1.3269646167755127,-1.4608761072158813
1766399515299397000,-36.203602783203124,9.620390892028809,-1.2638052701950073,-1.4217100143432617
1766399515309407000,-36.193593017578124,9.621918678283691,-1.2617257833480835,-1.4131945371627808
1766399515319416600,-36.18358349609375,9.62306022644043,-1.2608606815338135,-1.4061776399612427
1766399515329426400,-36.173573486328124,9.624009132385254,-1.258923053741455,-1.4014146327972412
1766399515339436300,-36.163563720703124,9.624863624572754,-1.2556368112564087,-1.3984882831573486
1766399515349446000,-36.15355419921875,9.6262845993042,-1.248053789138794,-1.395493984222412
1766399515359425300,-36.14357470703125,9.627655029296875,-1.2371958494186401,-1.3957066535949707
1766399515419544800,-36.083455078125,9.632075309753418,-1.1749635934829712,-1.4187966585159302
1766399515429554700,-36.0734453125,9.639979362487793,-1.1136385202407837,-1.4145618677139282
1766399515439564300,-36.06343579101563,9.642443656921387,-1.089722990989685,-1.4163932800292969
1766399515449574100,-36.05342578125,9.643533706665039,-1.0851562023162842,-1.4124772548675537
1766399515459584000,-36.043416015625,9.640815734863281,-1.100021481513977,-1.4195079803466797
1766399515489704700,-36.01329541015625,9.634878158569336,-1.1191071271896362,-1.4446803331375122
1766399515499775500,-36.003224609375,9.63597297668457,-1.0964550971984863,-1.4547202587127686
1766399515509815800,-35.99318408203125,9.637345314025879,-1.064563274383545,-1.469237208366394
1766399515519825700,-35.98317431640625,9.636787414550781,-1.0545475482940674,-1.480082392692566
1766399515529835300,-35.97316479492188,9.634997367858887,-1.055404782295227,-1.4910862445831299
1766399515539845000,-35.96315478515625,9.6322660446167,-1.0646998882293701,-1.5020852088928223
1766399515549855000,-35.95314501953125,9.63156795501709,-1.0690813064575195,-1.503448724746704
1766399515559864600,-35.94313549804688,9.627955436706543,-1.0924665927886963,-1.5097593069076538
1766399515569874400,-35.93312548828125,9.625041007995605,-1.111997127532959,-1.5140786170959473
1766399515589894000,-35.91310620117188,9.627120971679688,-1.0948048830032349,-1.513381004333496
1766399515629963500,-35.873036376953124,9.638702392578125,-1.0010182857513428,-1.5045819282531738
1766399515639973400,-35.863026611328124,9.64648723602295,-0.9430766105651855,-1.4920716285705566
1766399515650013700,-35.852986328125,9.650289535522461,-0.9118809103965759,-1.4868632555007935
1766399515660023300,-35.84297680664063,9.651448249816895,-0.8985342383384705,-1.4874696731567383
1766399515700153900,-35.80284619140625,9.643659591674805,-0.9140473008155823,-1.5279814004898071
1766399515710163700,-35.792836181640624,9.648849487304688,-0.872732937335968,-1.5193514823913574
1766399515720173600,-35.782826416015624,9.655755996704102,-0.8231064677238464,-1.5030814409255981
1766399515730214000,-35.7727861328125,9.657769203186035,-0.818106472492218,-1.4928481578826904
1766399515740284700,-35.76271533203125,9.655827522277832,-0.8426685333251953,-1.4917376041412354
1766399515750324700,-35.75267529296875,9.65477180480957,-0.8607367277145386,-1.4882556200027466
1766399515760334600,-35.74266552734375,9.654236793518066,-0.8683133721351624,-1.4873250722885132
1766399515770344400,-35.732655517578124,9.654871940612793,-0.8709554076194763,-1.4816477298736572
1766399515810444500,-35.692555419921874,9.66153335571289,-0.8466605544090271,-1.4520056247711182
1766399515820454100,-35.6825458984375,9.664134979248047,-0.8347406983375549,-1.4415593147277832
1766399515830464000,-35.672535888671874,9.666057586669922,-0.8246641159057617,-1.434453010559082
1766399515840473900,-35.662526123046874,9.667693138122559,-0.8175161480903625,-1.4275010824203491
1766399515850483500,-35.6525166015625,9.668767929077148,-0.8145802021026611,-1.4218922853469849
1766399515860523800,-35.64247631835938,9.669990539550781,-0.8145319819450378,-1.4135775566101074
1766399515870594600,-35.63240551757813,9.670056343078613,-0.8181760311126709,-1.4110206365585327
1766399515880604400,-35.6223955078125,9.670178413391113,-0.8193775415420532,-1.4094902276992798
1766399515900624000,-35.60237622070313,9.669588088989258,-0.8142194151878357,-1.4165074825286865
1766399515920674000,-35.582325927734374,9.66884708404541,-0.8121944665908813,-1.4227211475372314
1766399515930714400,-35.57228564453125,9.668783187866211,-0.812055766582489,-1.423229455947876
1766399515940724000,-35.56227612304688,9.669682502746582,-0.8080618381500244,-1.4193910360336304
1766399515950794800,-35.55220532226563,9.670280456542969,-0.8064484000205994,-1.4162249565124512
1766399515960774100,-35.542225830078124,9.670291900634766,-0.811447024345398,-1.4132896661758423
1766399515970814500,-35.532185546875,9.669776916503906,-0.819166362285614,-1.412359356880188
1766399515980824000,-35.52217602539063,9.66929817199707,-0.8280313611030579,-1.4104628562927246
1766399516020893700,-35.482106201171874,9.66988468170166,-0.8278198838233948,-1.4065666198730469
1766399516030903600,-35.472096435546874,9.669646263122559,-0.8292105793952942,-1.407392144203186
1766399516040913200,-35.4620869140625,9.668989181518555,-0.8313462138175964,-1.4106388092041016
1766399516050923000,-35.452076904296874,9.668827056884766,-0.8317757844924927,-1.411497950553894
1766399516060993800,-35.442006103515624,9.66878604888916,-0.8316044211387634,-1.4118773937225342
1766399516071034000,-35.4319658203125,9.668692588806152,-0.8307003378868103,-1.4130430221557617
1766399516081044000,-35.4219560546875,9.668351173400879,-0.8308825492858887,-1.4152776002883911
1766399516091053600,-35.41194653320313,9.667917251586914,-0.8328189253807068,-1.4171035289764404
1766399516121144000,-35.38185595703125,9.662238121032715,-0.8603748083114624,-1.4392015933990479
1766399516131153700,-35.37184643554688,9.660736083984375,-0.8643626570701599,-1.4468718767166138
1766399516141163500,-35.36183642578125,9.659772872924805,-0.8648363351821899,-1.453006625175476
1766399516151173000,-35.35182690429688,9.659045219421387,-0.864172101020813,-1.4582300186157227
1766399516161183000,-35.34181713867188,9.658512115478516,-0.8632901906967163,-1.4622793197631836
1766399516171192800,-35.33180712890625,9.657959938049316,-0.8628303408622742,-1.4661928415298462
1766399516181233200,-35.321766845703124,9.657360076904297,-0.8643088340759277,-1.4692684412002563
1766399516191242800,-35.31175732421875,9.656656265258789,-0.8676208853721619,-1.4719401597976685
1766399516231342800,-35.2716572265625,9.655555725097656,-0.8821277022361755,-1.4705395698547363
1766399516241383200,-35.26161694335938,9.655434608459473,-0.8860589861869812,-1.4689688682556152
1766399516251423500,-35.251576416015624,9.655543327331543,-0.8860738277435303,-1.46824312210083
1766399516261433300,-35.241566650390624,9.655181884765625,-0.8882988095283508,-1.4692763090133667
1766399516271443000,-35.23155712890625,9.654943466186523,-0.8893461227416992,-1.4702138900756836
1766399516281483300,-35.22151684570313,9.655328750610352,-0.886515736579895,-1.4693857431411743
1766399516291523600,-35.211476318359374,9.65553092956543,-0.883364737033844,-1.469955563545227
1766399516331593200,-35.17140673828125,9.65401554107666,-0.8887702822685242,-1.4766381978988647
1766399516341602800,-35.16139721679688,9.653353691101074,-0.891589343547821,-1.4792635440826416
1766399516351612700,-35.15138720703125,9.653263092041016,-0.8922553658485413,-1.479452133178711
1766399516361622500,-35.14137744140625,9.652997016906738,-0.8939975500106812,-1.4801371097564697
1766399516371662800,-35.131337158203124,9.65286636352539,-0.8935839533805847,-1.4812402725219727
1766399516381703000,-35.12129711914063,9.652617454528809,-0.892673909664154,-1.4834070205688477
1766399516391743200,-35.1112568359375,9.652499198913574,-0.8913044333457947,-1.484998345375061
1766399516401753000,-35.101246826171874,9.652287483215332,-0.8905816674232483,-1.486804485321045
1766399516431812900,-35.07118725585938,9.649651527404785,-0.905174970626831,-1.4950824975967407
1766399516441822700,-35.06117724609375,9.648319244384766,-0.9126600623130798,-1.4991281032562256
1766399516451832300,-35.05116772460938,9.647309303283691,-0.9180371165275574,-1.5023343563079834
1766399516461872600,-35.04112744140625,9.646547317504883,-0.9234365820884705,-1.5039210319519043
1766399516471913000,-35.03108715820313,9.645862579345703,-0.9284031987190247,-1.5052533149719238
1766399516481922800,-35.0210771484375,9.645626068115234,-0.9320292472839355,-1.504530429840088
1766399516491932400,-35.01106762695313,9.645692825317383,-0.9338611364364624,-1.5029624700546265
1766399516501972700,-35.00102734375,9.646007537841797,-0.9347943663597107,-1.5003620386123657
1766399516512013000,-34.99098706054688,9.646166801452637,-0.9379724264144897,-1.4973526000976562
1766399516562153500,-34.940846435546874,9.646753311157227,-0.9508046507835388,-1.4854286909103394
1766399516572193800,-34.93080615234375,9.647001266479492,-0.9527108669281006,-1.4825994968414307
1766399516592213200,-34.91078686523438,9.647655487060547,-0.954261302947998,-1.4773341417312622
1766399516602223000,-34.90077685546875,9.647802352905273,-0.9558530449867249,-1.4753437042236328
1766399516632283000,-34.870717041015624,9.647465705871582,-0.9672473073005676,-1.4701086282730103
1766399516652332800,-34.85066723632813,9.647311210632324,-0.9702070355415344,-1.4691754579544067
1766399516662373000,-34.840626953125,9.646390914916992,-0.977738618850708,-1.4702256917953491
1766399516672383000,-34.830616943359374,9.645489692687988,-0.9839391112327576,-1.4720004796981812
1766399516682423300,-34.82057666015625,9.64442253112793,-0.996404230594635,-1.4706058502197266
1766399516692463600,-34.810536376953124,9.644268989562988,-1.0013912916183472,-1.468224287033081
1766399516702534400,-34.800465576171874,9.64439582824707,-1.0037959814071655,-1.4657412767410278
1766399516712574700,-34.79042529296875,9.64444637298584,-1.0057569742202759,-1.4640700817108154
1766399516732624600,-34.770375244140624,9.645075798034668,-1.0065598487854004,-1.4593647718429565
1766399516782734600,-34.720265380859374,9.645674705505371,-1.0167255401611328,-1.448310375213623
1766399516792775000,-34.71022509765625,9.645376205444336,-1.02003014087677,-1.4479790925979614
1766399516802754000,-34.700245849609374,9.645029067993164,-1.0242966413497925,-1.4472838640213013
1766399516812764000,-34.690236083984374,9.645003318786621,-1.0249874591827393,-1.446964979171753
1766399516822773500,-34.6802265625,9.644418716430664,-1.0298328399658203,-1.447414755821228
1766399516852802800,-34.650197265625,9.64313793182373,-1.0445910692214966,-1.4453777074813843
1766399516862873600,-34.64012646484375,9.641718864440918,-1.0531752109527588,-1.448606014251709
1766399516872883500,-34.630116455078124,9.641130447387695,-1.0564820766448975,-1.4501157999038696
1766399516882923800,-34.620076171875,9.640083312988281,-1.0631051063537598,-1.452231764793396
1766399516892964000,-34.610035888671874,9.639677047729492,-1.0666589736938477,-1.452329397201538
1766399516902973700,-34.6000263671875,9.638740539550781,-1.073045253753662,-1.4538339376449585
1766399516912983600,-34.590016357421874,9.638181686401367,-1.077846646308899,-1.4539909362792969
1766399516922993400,-34.580006591796874,9.637612342834473,-1.0808852910995483,-1.4555063247680664
1766399516933033500,-34.56996655273438,9.637226104736328,-1.0811142921447754,-1.4578913450241089
1766399516973072600,-34.52992724609375,9.633953094482422,-1.083461880683899,-1.4776467084884644
1766399516983082500,-34.51991748046875,9.633665084838867,-1.0836045742034912,-1.479418396949768
1766399516993092000,-34.50990795898438,9.63149356842041,-1.0955103635787964,-1.4847803115844727
1766399517003102000,-34.49989794921875,9.630521774291992,-1.1023664474487305,-1.4860057830810547
1766399517013111800,-34.48988818359375,9.627330780029297,-1.1274482011795044,-1.487869381904602
1766399517023152000,-34.479847900390624,9.625614166259766,-1.1435672044754028,-1.4866728782653809
1766399517033161700,-34.46983837890625,9.619030952453613,-1.1823630332946777,-1.4988839626312256
1766399517053212000,-34.4497880859375,9.608935356140137,-1.253258466720581,-1.506018877029419
1766399517063252200,-34.439747802734374,9.613529205322266,-1.2304280996322632,-1.4954924583435059
1766399517073261800,-34.42973828125,9.616056442260742,-1.2125815153121948,-1.4938132762908936
1766399517083271700,-34.419728271484374,9.617197036743164,-1.196731448173523,-1.499250054359436
1766399517093312000,-34.40968798828125,9.614570617675781,-1.205338716506958,-1.5091660022735596
1766399517103321600,-34.39967846679688,9.613386154174805,-1.2029054164886475,-1.5186190605163574
1766399517113331500,-34.38966845703125,9.612760543823242,-1.1948633193969727,-1.5288957357406616
1766399517123341300,-34.37965869140625,9.61267375946045,-1.1815605163574219,-1.5397430658340454
1766399517133351000,-34.36964916992188,9.612524032592773,-1.1790308952331543,-1.5426115989685059
1766399517193409500,-34.30959057617188,9.620805740356445,-1.2115354537963867,-1.4637850522994995
1766399517203419400,-34.29958056640625,9.623817443847656,-1.2077313661575317,-1.4470387697219849
1766399517213429000,-34.28957104492188,9.626435279846191,-1.2172843217849731,-1.4213898181915283
1766399517223438800,-34.27956103515625,9.628299713134766,-1.239059567451477,-1.3895918130874634
1766399517233448700,-34.26955126953125,9.629106521606445,-1.2738351821899414,-1.3520476818084717
1766399517243427800,-34.259572265625,9.630173683166504,-1.2857457399368286,-1.333041787147522
1766399517253407200,-34.2495927734375,9.62943172454834,-1.344215750694275,-1.2796522378921509
1766399517283528000,-34.21947216796875,9.606490135192871,-1.6341729164123535,-1.1023629903793335
1766399517293568300,-34.209431640625,9.596569061279297,-1.7233502864837646,-1.0518200397491455
1766399517303608600,-34.199391357421874,9.583547592163086,-1.8346043825149536,-0.979911744594574
1766399517313649000,-34.18935107421875,9.574275970458984,-1.9061510562896729,-0.9328462481498718
1766399517323658500,-34.17934155273438,9.564037322998047,-1.975771427154541,-0.8921381831169128
1766399517333698800,-34.16930126953125,9.554553031921387,-2.036245822906494,-0.8570972681045532
1766399517343769600,-34.15923046875,9.550017356872559,-2.0652525424957275,-0.8380191922187805
1766399517383900400,-34.119099609375,9.515830039978027,-2.246948719024658,-0.7553760409355164
1766399517393910000,-34.10909008789063,9.507433891296387,-2.2824018001556396,-0.7548066973686218
1766399517403920000,-34.099080078125,9.504077911376953,-2.2960147857666016,-0.7557722926139832
1766399517413960200,-34.089039794921874,9.49828052520752,-2.312664270401001,-0.7775909900665283
1766399517424000500,-34.07899951171875,9.49105453491211,-2.332319498062134,-0.8065770864486694
1766399517434010000,-34.06898999023438,9.482165336608887,-2.355410099029541,-0.8431941270828247
1766399517444020000,-34.05897998046875,9.473775863647461,-2.377051830291748,-0.8761207461357117
1766399517454029600,-34.04897045898438,9.46587085723877,-2.3968398571014404,-0.9071040749549866
1766399517484059000,-34.01894116210938,9.451725959777832,-2.420900344848633,-0.9871740937232971
1766399517494068700,-34.00893115234375,9.448823928833008,-2.4187631607055664,-1.0196558237075806
1766399517504078600,-33.99892138671875,9.450384140014648,-2.4071152210235596,-1.0326799154281616
1766399517514088200,-33.98891186523438,9.452630043029785,-2.3972558975219727,-1.035056710243225
1766399517524098000,-33.97890185546875,9.458070755004883,-2.375354766845703,-1.0358422994613647
1766399517534108000,-33.96889208984375,9.459647178649902,-2.3696935176849365,-1.0344170331954956
1766399517544148200,-33.958851806640624,9.455011367797852,-2.384648323059082,-1.0423989295959473
1766399517554219000,-33.948781005859374,9.456902503967285,-2.3726141452789307,-1.0526524782180786
1766399517574269000,-33.92873095703125,9.463977813720703,-2.348726511001587,-1.0425902605056763
1766399517584339700,-33.91866040039063,9.462109565734863,-2.3597233295440674,-1.0346894264221191
1766399517594380000,-33.908619873046874,9.459916114807129,-2.370598077774048,-1.0298696756362915
1766399517604420400,-33.89857958984375,9.46672534942627,-2.3475394248962402,-1.0200791358947754
1766399517614430200,-33.88856982421875,9.474042892456055,-2.3209877014160156,-1.012876033782959
1766399517624470300,-33.87852978515625,9.477596282958984,-2.3080661296844482,-1.009152889251709
1766399517634541000,-33.868458984375,9.480453491210938,-2.2960290908813477,-1.0097707509994507
1766399517644551000,-33.858448974609374,9.479029655456543,-2.3018569946289062,-1.009871006011963
1766399517654560800,-33.848439208984374,9.477083206176758,-2.311192750930786,-1.0068092346191406
1766399517664570400,-33.8384296875,9.477930068969727,-2.3081462383270264,-1.005831241607666
1766399517704609500,-33.798390380859374,9.496545791625977,-2.2425854206085205,-0.9781754612922668
1766399517714619400,-33.788380615234374,9.500731468200684,-2.2268004417419434,-0.9735727310180664
1766399517724690200,-33.778309814453124,9.504691123962402,-2.211749315261841,-0.9692233204841614
1766399517734699800,-33.76830029296875,9.507197380065918,-2.2032411098480225,-0.964001476764679
1766399517744740000,-33.75826000976563,9.508084297180176,-2.201772689819336,-0.9586039781570435
1766399517754750000,-33.74825,9.510061264038086,-2.1947710514068604,-0.9550448060035706
1766399517764759600,-33.73824047851563,9.513572692871094,-2.181065797805786,-0.951460063457489
1766399517774800000,-33.7282001953125,9.5170259475708,-2.16776180267334,-0.9473201036453247
1766399517794819600,-33.708180419921874,9.517232894897461,-2.167724609375,-0.9453226327896118
1766399517804798700,-33.698201171875,9.517953872680664,-2.1621153354644775,-0.9508959650993347
1766399517814839000,-33.688160888671874,9.522363662719727,-2.139254331588745,-0.9584206938743591
1766399517824909800,-33.678090087890624,9.530330657958984,-2.097644567489624,-0.9711196422576904
1766399517834919700,-33.668080322265624,9.533239364624023,-2.0809452533721924,-0.9784678220748901
1766399517844898800,-33.65810107421875,9.533957481384277,-2.0692496299743652,-0.9961192011833191
1766399517854939100,-33.648060791015624,9.534533500671387,-2.057621955871582,-1.014517903327942
1766399517864949000,-33.638051025390624,9.53599739074707,-2.0448851585388184,-1.0264376401901245
1766399517874958600,-33.62804150390625,9.538020133972168,-2.0305280685424805,-1.0361037254333496
1766399517894978300,-33.608021728515624,9.537080764770508,-2.01755690574646,-1.0695521831512451
1766399517905018400,-33.59798168945313,9.534063339233398,-2.0235133171081543,-1.085089087486267
1766399517915058700,-33.58794140625,9.532999992370605,-2.023751974105835,-1.09395432472229
1766399517955128300,-33.54787158203125,9.49614143371582,-2.2295680046081543,-1.0112966299057007
1766399517965107500,-33.537892578125,9.487295150756836,-2.2757766246795654,-0.991187572479248
1766399517975147800,-33.52785229492188,9.463399887084961,-2.395785093307495,-0.9352335929870605
1766399517985157600,-33.51784228515625,9.414789199829102,-2.615797281265259,-0.8305054306983948
1766399518005207600,-33.49779248046875,9.32945442199707,-2.9467852115631104,-0.6694223880767822
1766399518015217400,-33.487782470703124,9.277958869934082,-3.1228489875793457,-0.5811097025871277
1766399518025227300,-33.477772705078124,9.249603271484375,-3.2134053707122803,-0.5378196239471436
1766399518035236900,-33.46776318359375,9.155994415283203,-3.4898452758789062,-0.3989019989967346
1766399518045246700,-33.457753173828124,9.122258186340332,-3.581789970397949,-0.3543684482574463
1766399518055256600,-33.447743408203124,9.0060396194458,-3.8748576641082764,-0.21706074476242065
1766399518065266200,-33.43773388671875,8.961221694946289,-3.979522705078125,-0.1740717887878418
1766399518075337000,-33.4276630859375,8.850561141967773,-4.222513675689697,-0.09126491099596024
1766399518105427500,-33.397572509765624,8.25162410736084,-5.296636581420898,0.16349837183952332
1766399518115437000,-33.38756298828125,8.157023429870605,-5.44013786315918,0.1955893635749817
1766399518125416400,-33.37758349609375,7.911884784698486,-5.787606239318848,0.27580446004867554
1766399518135456800,-33.367543212890624,7.761450290679932,-5.98552131652832,0.32222017645835876
1766399518145466400,-33.35753369140625,7.620365142822266,-6.161874771118164,0.3629254102706909
1766399518155476200,-33.347523681640624,7.5489115715026855,-6.247995853424072,0.38323989510536194
1766399518165455400,-33.33754467773438,7.323730945587158,-6.507054805755615,0.4377070963382721
1766399518175495700,-33.32750439453125,7.1497416496276855,-6.695082664489746,0.47693172097206116
1766399518215534800,-33.287465087890624,6.220274448394775,-7.5537333488464355,0.6478380560874939
1766399518225544700,-33.277455322265624,5.963285446166992,-7.755279541015625,0.6820968985557556
1766399518235554300,-33.26744580078125,5.731694221496582,-7.925588607788086,0.709309458732605
1766399518245533700,-33.25746630859375,5.541840553283691,-8.057615280151367,0.7302180528640747
1766399518255573800,-33.24742626953125,5.392632007598877,-8.15615177154541,0.7530611753463745
1766399518265614000,-33.23738598632813,5.278134346008301,-8.229459762573242,0.766601026058197
1766399518305714200,-33.19728588867188,4.914346694946289,-8.457618713378906,0.6987673044204712
1766399518335743500,-33.16725659179688,4.756749629974365,-8.552359580993652,0.6331621408462524
1766399518345814300,-33.15718579101563,4.718772888183594,-8.575650215148926,0.6014731526374817
1766399518355824000,-33.14717578125,4.688102722167969,-8.594637870788574,0.5694723725318909
1766399518365834000,-33.137166015625,4.649965286254883,-8.618398666381836,0.5209926962852478
1766399518375874000,-33.1271259765625,4.641784191131592,-8.623724937438965,0.5055685043334961
1766399528791978500,-22.711021484375,9.400346755981445,-2.2144851684570312,-1.7029168605804443
1766399528801819000,-22.70118115234375,9.395685195922852,-2.2349376678466797,-1.70192289352417
1766399528811659300,-22.6913408203125,9.390829086303711,-2.2560341358184814,-1.7008910179138184
1766399528821569000,-22.681430908203126,9.403496742248535,-2.199150800704956,-1.7053972482681274
1766399528841588500,-22.66141162109375,9.392448425292969,-2.2581520080566406,-1.6890983581542969
1766399528851598300,-22.651401611328126,9.389402389526367,-2.269122838973999,-1.691330909729004
1766399528861608000,-22.64139208984375,9.388104438781738,-2.2734150886535645,-1.692769169807434
1766399528871709400,-22.63129052734375,9.387907981872559,-2.273981809616089,-1.6930965185165405
1766399528931829000,-22.5711708984375,9.39004135131836,-2.260167121887207,-1.6997500658035278
1766399528951848400,-22.551151611328127,9.388731002807617,-2.264456033706665,-1.701282262802124
1766399529001958400,-22.50104150390625,9.384419441223145,-2.3041415214538574,-1.6715284585952759
1766399529011968000,-22.491031982421877,9.386494636535645,-2.295266628265381,-1.672080397605896
1766399529052037600,-22.45096240234375,9.390434265136719,-2.2846028804779053,-1.664547085762024
1766399529062047500,-22.440952392578126,9.388951301574707,-2.292433261871338,-1.6621469259262085
1766399529072057300,-22.430942626953126,9.389213562011719,-2.292057752609253,-1.66118586063385
1766399529092107300,-22.410892822265627,9.387280464172363,-2.3013720512390137,-1.659225583076477
1766399529112126700,-22.390873291015627,9.387588500976562,-2.2936298847198486,-1.6681792736053467
1766399529132177000,-22.370822998046876,9.392093658447266,-2.2680821418762207,-1.6777260303497314
1766399529152196400,-22.3508037109375,9.393315315246582,-2.2585177421569824,-1.683779001235962
1766399529162206200,-22.340793701171876,9.388897895812988,-2.273314952850342,-1.688496470451355
1766399529172215800,-22.3307841796875,9.386971473693848,-2.2784440517425537,-1.692289113998413
1766399529182256000,-22.320743896484377,9.389411926269531,-2.2696354389190674,-1.6905854940414429
1766399529192266000,-22.310734130859377,9.393220901489258,-2.260122060775757,-1.6821534633636475
1766399529202275800,-22.30072412109375,9.394736289978027,-2.2584097385406494,-1.6759768724441528
1766399529212285400,-22.290714599609377,9.396932601928711,-2.252951145172119,-1.6710010766983032
1766399529222295300,-22.28070458984375,9.399249076843262,-2.2458527088165283,-1.6675258874893188
1766399529272374500,-22.23062548828125,9.398558616638184,-2.2563507556915283,-1.6572157144546509
1766399529282414800,-22.220585205078127,9.39794921875,-2.259320020675659,-1.6566253900527954
1766399529292424700,-22.2105751953125,9.399158477783203,-2.256594181060791,-1.6534786224365234
1766399529302434600,-22.2005654296875,9.401270866394043,-2.2508440017700195,-1.649301290512085
1766399529312444200,-22.190555908203127,9.402994155883789,-2.246422052383423,-1.6454994678497314
1766399529322454000,-22.1805458984375,9.404184341430664,-2.2421717643737793,-1.6444975137710571
1766399529332494300,-22.170505615234376,9.406645774841309,-2.23512601852417,-1.6400015354156494
1766399529392644400,-22.110355712890627,9.414560317993164,-2.212447166442871,-1.6252769231796265
1766399529402654200,-22.100345703125,9.41604232788086,-2.204587459564209,-1.6273692846298218
1766399529422704000,-22.0802958984375,9.421266555786133,-2.180783987045288,-1.6292022466659546
1766399529452733400,-22.0502666015625,9.426905632019043,-2.165332794189453,-1.617148995399475
1766399529512883700,-21.9901162109375,9.43606185913086,-2.1322033405303955,-1.6077417135238647
1766399529552983800,-21.95001611328125,9.442696571350098,-2.1096386909484863,-1.5985302925109863
1766399529573064200,-21.929935791015627,9.445426940917969,-2.101578712463379,-1.593007206916809
1766399529583074000,-21.919926025390627,9.447072982788086,-2.095681667327881,-1.5910084247589111
1766399529603154700,-21.89984521484375,9.452652931213379,-2.0757460594177246,-1.5839922428131104
1766399529673375500,-21.82962451171875,9.45513916015625,-2.0757551193237305,-1.5690670013427734
1766399529693425700,-21.80957421875,9.452628135681152,-2.0869767665863037,-1.569310188293457
1766399529763524600,-21.739475341796876,9.44564437866211,-2.1103434562683105,-1.5800728797912598
1766399529773565000,-21.72943505859375,9.445222854614258,-2.110463857650757,-1.5824308395385742
1766399529783574500,-21.719425537109377,9.444534301757812,-2.1117100715637207,-1.5848798751831055
1766399529803685600,-21.699314453125,9.439532279968262,-2.1328136920928955,-1.5864213705062866
1766399529813726000,-21.689274169921877,9.437600135803223,-2.1419103145599365,-1.585658311843872
1766399529843816200,-21.659183837890627,9.441741943359375,-2.1215760707855225,-1.588335394859314
1766399529853856500,-21.6491435546875,9.443516731262207,-2.1123900413513184,-1.5900293588638306
1766399529863836000,-21.6391640625,9.44482135772705,-2.108919620513916,-1.5868852138519287
1766399529873906700,-21.62909326171875,9.445724487304688,-2.106318473815918,-1.584962010383606
1766399529883916300,-21.619083740234377,9.445318222045898,-2.108525037765503,-1.5844478607177734
1766399529893987000,-21.609012939453127,9.44433879852295,-2.112891912460327,-1.5844690799713135
1766399529924077600,-21.57892236328125,9.438481330871582,-2.137359380722046,-1.5865509510040283
1766399529934118000,-21.568882080078126,9.437138557434082,-2.1422507762908936,-1.587942123413086
1766399529944127500,-21.55887255859375,9.437368392944336,-2.1405835151672363,-1.5888264179229736
1766399529954167800,-21.548832275390627,9.437263488769531,-2.1406519412994385,-1.589357852935791
1766399529964177700,-21.538822265625,9.435811042785645,-2.1456141471862793,-1.5912874937057495
1766399529974218000,-21.528781982421876,9.435686111450195,-2.146153450012207,-1.591303825378418
1766399529984227600,-21.5187724609375,9.435249328613281,-2.1463890075683594,-1.5935710668563843
1766399529994298400,-21.50870166015625,9.43477725982666,-2.149486541748047,-1.5921921730041504
1766399530004308200,-21.49869189453125,9.432865142822266,-2.162989854812622,-1.5852203369140625
1766399530044408300,-21.458591796875,9.42153263092041,-2.2312581539154053,-1.5577540397644043
1766399530054418200,-21.448581787109376,9.420848846435547,-2.239588975906372,-1.5499159097671509
1766399530064427800,-21.438572265625,9.421338081359863,-2.2415192127227783,-1.5441392660140991
1766399530094518300,-21.408481689453126,9.425308227539062,-2.228300094604492,-1.5390372276306152
1766399530104528000,-21.39847216796875,9.425652503967285,-2.2281875610351562,-1.537086009979248
1766399530184789200,-21.318210693359376,9.43747615814209,-2.1779026985168457,-1.5366113185882568
1766399530204808700,-21.29819140625,9.43664836883545,-2.178255558013916,-1.541185975074768
1766399530214849000,-21.28815087890625,9.437304496765137,-2.175706624984741,-1.5407733917236328
1766399530244908800,-21.25809130859375,9.440235137939453,-2.1671478748321533,-1.5348693132400513
1766399530274938000,-21.228061767578126,9.443201065063477,-2.1568613052368164,-1.531110405921936
1766399530294957600,-21.20804248046875,9.447087287902832,-2.1396076679229736,-1.5313416719436646
1766399530305028400,-21.1979716796875,9.448417663574219,-2.13291597366333,-1.5324687957763672
1766399530325048000,-21.177951904296876,9.447962760925293,-2.129721164703369,-1.5397037267684937
1766399530335118800,-21.167881103515626,9.447789192199707,-2.1298139095306396,-1.5406382083892822
1766399530345098000,-21.157902099609377,9.447575569152832,-2.125405788421631,-1.548012137413025
1766399530355138300,-21.14786181640625,9.448866844177246,-2.116999387741089,-1.5516494512557983
1766399530365148200,-21.137851806640626,9.450765609741211,-2.107618808746338,-1.5528550148010254
1766399530375188200,-21.127811767578127,9.451465606689453,-2.1044671535491943,-1.5528675317764282
1766399530385259300,-21.11774072265625,9.449995040893555,-2.1109395027160645,-1.5530322790145874
1766399530395330000,-21.107669921875,9.4486665725708,-2.1207756996154785,-1.5477075576782227
1766399530405400800,-21.09759912109375,9.445509910583496,-2.135504961013794,-1.5467185974121094
1766399530435491000,-21.067509033203127,9.446920394897461,-2.1266255378723145,-1.5503392219543457
1766399530475591200,-21.027408935546877,9.443401336669922,-2.144019842147827,-1.5478184223175049
1766399530485601000,-21.01739892578125,9.443575859069824,-2.1452760696411133,-1.5450111627578735
1766399530495641300,-21.007358642578126,9.443324089050293,-2.1475555896759033,-1.5433839559555054
1766399530505651000,-20.99734912109375,9.442726135253906,-2.150031089782715,-1.5435917377471924
1766399530515721700,-20.9872783203125,9.44140911102295,-2.1535425186157227,-1.5467520952224731
1766399530535772000,-20.96722802734375,9.441843032836914,-2.1549124717712402,-1.5421868562698364
1766399530545751000,-20.9572490234375,9.441243171691895,-2.157809019088745,-1.5418113470077515
1766399530555761000,-20.947239013671876,9.437638282775879,-2.174960136413574,-1.5397803783416748
1766399530565801200,-20.93719873046875,9.435187339782715,-2.1843955516815186,-1.5414402484893799
1766399530575810800,-20.927189208984377,9.4352445602417,-2.18410325050354,-1.5415048599243164
1766399530585820700,-20.917179443359377,9.436543464660645,-2.178102731704712,-1.5420440435409546
1766399530595830500,-20.90716943359375,9.437628746032715,-2.1714229583740234,-1.5448179244995117
1766399530605870600,-20.89712939453125,9.438539505004883,-2.167001485824585,-1.5454659461975098
1766399530615911000,-20.887089111328127,9.437198638916016,-2.1740522384643555,-1.5437513589859009
1766399530665990400,-20.837009521484376,9.428731918334961,-2.208251476287842,-1.5469443798065186
1766399530686009900,-20.816990234375,9.420997619628906,-2.2395808696746826,-1.5490235090255737
1766399530696019700,-20.806980224609376,9.420011520385742,-2.2430009841918945,-1.5500729084014893
1766399530706029300,-20.796970703125,9.42034912109375,-2.2456743717193604,-1.5441373586654663
1766399530716039200,-20.7869609375,9.417431831359863,-2.250061511993408,-1.5555065870285034
1766399530726049000,-20.776950927734376,9.412797927856445,-2.2585842609405518,-1.5711222887039185
1766399530736058600,-20.76694140625,9.408842086791992,-2.2733230590820312,-1.5735586881637573
1766399530746068500,-20.756931640625,9.400012016296387,-2.3103020191192627,-1.5724718570709229
1766399530816258800,-20.6867412109375,9.388265609741211,-2.28926420211792,-1.6703661680221558
1766399530886480000,-20.61652001953125,9.370109558105469,-2.3492064476013184,-1.6889801025390625
1766399530916570000,-20.586429931640627,9.385019302368164,-2.3001153469085693,-1.6737020015716553
1766399530986699500,-20.516300537109377,9.399662017822266,-2.260960340499878,-1.6446259021759033
1766399530996739800,-20.50626025390625,9.40275764465332,-2.251333713531494,-1.640135407447815
1766399531056890000,-20.44610986328125,9.391593933105469,-2.3018712997436523,-1.6339352130889893
1766399531086919400,-20.41608056640625,9.385063171386719,-2.3220956325531006,-1.6428166627883911
1766399531106969300,-20.39603076171875,9.387839317321777,-2.3094308376312256,-1.6448051929473877
1766399531116979200,-20.386020751953126,9.3915433883667,-2.2984323501586914,-1.6390535831451416
1766399531167119600,-20.33588037109375,9.414196968078613,-2.1953883171081543,-1.6503185033798218
1766399531197209900,-20.3057900390625,9.443446159362793,-2.082509994506836,-1.6293752193450928
1766399531207219700,-20.2957802734375,9.462955474853516,-1.998781442642212,-1.6210296154022217
1766399531217229300,-20.285770751953127,9.467727661132812,-1.9802643060684204,-1.6158849000930786
1766399531267369700,-20.23563037109375,9.471993446350098,-1.938895344734192,-1.6408575773239136
1766399531357702000,-20.145298095703126,9.399518013000488,-2.2266290187835693,-1.6916203498840332
1766399531367681000,-20.135319091796877,9.396175384521484,-2.2425010204315186,-1.6892200708389282
1766399531377691000,-20.12530908203125,9.399565696716309,-2.2313413619995117,-1.6851301193237305
1766399531387731000,-20.11526904296875,9.401851654052734,-2.2256717681884766,-1.6798710823059082
1766399531407781000,-20.095218994140627,9.395155906677246,-2.255587339401245,-1.6774301528930664
1766399531427800600,-20.075199462890627,9.391769409179688,-2.2672557830810547,-1.6806559562683105
1766399531437841000,-20.0651591796875,9.391449928283691,-2.2672219276428223,-1.6824884414672852
1766399531447850800,-20.055149169921876,9.389843940734863,-2.2703521251678467,-1.6872211694717407
1766399531457860400,-20.0451396484375,9.387478828430176,-2.2748372554779053,-1.6943256855010986
1766399531507939800,-19.99506005859375,9.382377624511719,-2.2813339233398438,-1.7137373685836792
1766399531527989800,-19.97501025390625,9.382354736328125,-2.2830698490142822,-1.711544394493103
1766399531548009500,-19.954990478515626,9.380102157592773,-2.291517734527588,-1.712607979774475
1766399531568120600,-19.93487939453125,9.380486488342285,-2.291236162185669,-1.7108720541000366
1766399531578191400,-19.92480859375,9.381720542907715,-2.286118984222412,-1.7109547853469849
1766399531598271700,-19.904728271484377,9.380829811096191,-2.286055326461792,-1.7159172296524048
1766399531638371800,-19.864628173828127,9.395564079284668,-2.2221755981445312,-1.7192133665084839
1766399531648381700,-19.854618408203127,9.395997047424316,-2.2197930812835693,-1.7199280261993408
1766399531658452500,-19.844547607421877,9.394850730895996,-2.2239413261413574,-1.7208285331726074
1766399531688542700,-19.814457275390627,9.377801895141602,-2.31265926361084,-1.6967110633850098
1766399531708593000,-19.794406982421876,9.37675952911377,-2.333566665649414,-1.673688530921936
1766399531738652700,-19.764347412109377,9.376849174499512,-2.360638380050659,-1.6347712278366089
1766399531748693000,-19.75430712890625,9.378847122192383,-2.3569343090057373,-1.6286399364471436
1766399531758702800,-19.744297119140626,9.380743026733398,-2.3548779487609863,-1.620679497718811
1766399531768712400,-19.73428759765625,9.381145477294922,-2.35817813873291,-1.6135390996932983
1766399531828801500,-19.674198486328127,9.375720024108887,-2.392744302749634,-1.5940608978271484
1766399531848882200,-19.654117919921877,9.373577117919922,-2.3928542137145996,-1.6064512729644775
1766399531858922500,-19.644077392578126,9.372684478759766,-2.3904154300689697,-1.6152637004852295
1766399531878972400,-19.624027587890627,9.372114181518555,-2.3816022872924805,-1.6315125226974487
1766399531889043200,-19.613956787109377,9.372042655944824,-2.3763344287872314,-1.639582633972168
1766399531919103200,-19.583896728515626,9.374977111816406,-2.357194662094116,-1.650405764579773
1766399531949163000,-19.5538369140625,9.393235206604004,-2.2820003032684326,-1.6522682905197144
1766399531959172600,-19.543827392578127,9.392404556274414,-2.2820255756378174,-1.6569489240646362
1766399532009282600,-19.493717529296877,9.366273880004883,-2.384084463119507,-1.6611580848693848
1766399532039372800,-19.463627197265627,9.378229141235352,-2.3451380729675293,-1.6491031646728516
1766399532129766000,-19.373234130859377,9.364726066589355,-2.35282039642334,-1.713629126548767
1766399532189946600,-19.313053466796877,9.365397453308105,-2.380167245864868,-1.671681523323059
1766399532209966000,-19.293033935546877,9.369708061218262,-2.3643760681152344,-1.6699397563934326
1766399532230016300,-19.272983642578126,9.370062828063965,-2.3611299991607666,-1.6725327968597412
1766399532240026000,-19.262973876953126,9.368231773376465,-2.3646180629730225,-1.6778563261032104
1766399532290166300,-19.212833740234377,9.363916397094727,-2.3796322345733643,-1.6807163953781128
1766399532320287200,-19.182712646484376,9.357686996459961,-2.4014387130737305,-1.6843916177749634
1766399532340368000,-19.162632080078126,9.356536865234375,-2.404601812362671,-1.6862682104110718
1766399532350347000,-19.152653076171877,9.354991912841797,-2.4096124172210693,-1.6876847743988037
1766399532360387300,-19.14261279296875,9.352789878845215,-2.416489839553833,-1.6900559663772583
1766399532410466600,-19.092533447265627,9.353769302368164,-2.4132120609283447,-1.6893141269683838
1766399532430516700,-19.072483154296876,9.352113723754883,-2.4255049228668213,-1.6808593273162842
1766399532440557000,-19.06244287109375,9.352917671203613,-2.425278663635254,-1.6767079830169678
1766399532450597400,-19.052402587890626,9.356172561645508,-2.4151980876922607,-1.673092246055603
1766399532460607000,-19.04239306640625,9.359955787658691,-2.402477264404297,-1.6702430248260498
1766399532470647300,-19.032352783203127,9.35988998413086,-2.4024195671081543,-1.6706966161727905
1766399532490666800,-19.012333251953127,9.357414245605469,-2.4094128608703613,-1.6744881868362427
1766399532510717000,-18.992282958984376,9.361369132995605,-2.4140067100524902,-1.6455159187316895
1766399532520757200,-18.98224267578125,9.359831809997559,-2.4135196208953857,-1.6549521684646606
1766399532540807200,-18.96219287109375,9.36062240600586,-2.4045963287353516,-1.663447380065918
1766399535123593700,-16.37940625,9.40506362915039,-2.424551486968994,-1.3552544116973877
1766399535133433900,-16.369566162109376,9.399659156799316,-2.445554494857788,-1.3550114631652832
1766399535143343600,-16.359656494140626,9.39422607421875,-2.4664478302001953,-1.3548189401626587
1766399535153384000,-16.349615966796875,9.398003578186035,-2.4505879878997803,-1.3574012517929077
1766399535163293700,-16.339706298828126,9.402778625488281,-2.4313018321990967,-1.3590102195739746
1766399535173203500,-16.329796630859374,9.395977020263672,-2.459092378616333,-1.3560503721237183
1766399535183213300,-16.31978662109375,9.39618968963623,-2.456165075302124,-1.3598709106445312
1766399535213334000,-16.289666015625,9.394366264343262,-2.4557056427001953,-1.373238205909729
1766399535283524600,-16.219475341796876,9.391814231872559,-2.434445381164551,-1.4274812936782837
1766399535353684500,-16.1493154296875,9.38902759552002,-2.439450740814209,-1.4372283220291138
1766399535403733200,-16.099266845703124,9.381988525390625,-2.4654245376586914,-1.4388765096664429
1766399535423783400,-16.079216552734376,9.38102912902832,-2.464312791824341,-1.447009801864624
1766399535433793000,-16.06920703125,9.380148887634277,-2.465576410293579,-1.4505623579025269
1766399535443833300,-16.059166748046874,9.378806114196777,-2.4685797691345215,-1.4541314840316772
1766399535453843200,-16.04915673828125,9.37690258026123,-2.4731571674346924,-1.4586223363876343
1766399535463852800,-16.039147216796874,9.376057624816895,-2.4749279022216797,-1.4610484838485718
1766399535473862700,-16.029137451171874,9.3761625289917,-2.4723007678985596,-1.4648207426071167
1766399535483872500,-16.01912744140625,9.376906394958496,-2.4675867557525635,-1.468001365661621
1766399535493882000,-16.009117919921874,9.377656936645508,-2.4624788761138916,-1.4717823266983032
1766399535523911400,-15.979088623046875,9.375983238220215,-2.4662749767303467,-1.4760817289352417
1766399535533921300,-15.96907861328125,9.374914169311523,-2.470000743865967,-1.4766398668289185
1766399535543931100,-15.95906884765625,9.374266624450684,-2.472715377807617,-1.476209282875061
1766399535553971200,-15.94902880859375,9.374174118041992,-2.4730281829833984,-1.4762705564498901
1766399535563981000,-15.93901904296875,9.37459945678711,-2.470345973968506,-1.4780579805374146
1766399535573991000,-15.929009033203124,9.374645233154297,-2.4675886631011963,-1.4823698997497559
1766399535584000500,-15.91899951171875,9.3746337890625,-2.4653141498565674,-1.4862196445465088
1766399535594010400,-15.90898974609375,9.374788284301758,-2.463498115539551,-1.4882584810256958
1766399535644120300,-15.858879638671874,9.378494262695312,-2.4411959648132324,-1.5015939474105835
1766399535654130000,-15.8488701171875,9.377571105957031,-2.441549777984619,-1.5067776441574097
1766399535664139800,-15.838860107421874,9.376669883728027,-2.442523717880249,-1.5108081102371216
1766399535674149600,-15.828850341796874,9.376893043518066,-2.439974784851074,-1.5135307312011719
1766399535684159200,-15.8188408203125,9.377213478088379,-2.4375696182250977,-1.5154272317886353
1766399535694199600,-15.808800537109375,9.376786231994629,-2.437516927719116,-1.5181511640548706
1766399535704209400,-15.79879052734375,9.375537872314453,-2.4406752586364746,-1.5207839012145996
1766399535734269200,-15.768730712890624,9.374502182006836,-2.439990520477295,-1.5282479524612427
1766399535744279000,-15.758720947265624,9.374305725097656,-2.4393227100372314,-1.5305179357528687
1766399535764329000,-15.738671142578125,9.371851921081543,-2.44750714302063,-1.5324790477752686
1766399535774369300,-15.728630615234374,9.370942115783691,-2.4498913288116455,-1.5342323780059814
1766399535784379100,-15.718620849609374,9.370302200317383,-2.4515738487243652,-1.5354485511779785
1766399535794419200,-15.708580810546875,9.3698148727417,-2.4522953033447266,-1.5372710227966309
1766399535844529200,-15.658470947265625,9.36509895324707,-2.465773105621338,-1.5444352626800537
1766399535854539000,-15.6484609375,9.366583824157715,-2.458050012588501,-1.5477362871170044
1766399535864579300,-15.638420654296874,9.36772632598877,-2.4523677825927734,-1.549834132194519
1766399535874589000,-15.6284111328125,9.367294311523438,-2.4494926929473877,-1.5569742918014526
1766399535884598800,-15.618401123046874,9.366459846496582,-2.4501519203186035,-1.5609506368637085
1766399535894608600,-15.608391357421874,9.367759704589844,-2.445559501647949,-1.5603545904159546
1766399535914658600,-15.588341552734375,9.375326156616211,-2.417307138442993,-1.5589326620101929
1766399535954728200,-15.548271728515624,9.364277839660645,-2.4506218433380127,-1.5732580423355103
1766399535964738000,-15.538261962890624,9.363101959228516,-2.456321954727173,-1.5713684558868408
1766399535974808800,-15.528191162109374,9.361173629760742,-2.4637322425842285,-1.5712552070617676
1766399535984849000,-15.518151123046875,9.359461784362793,-2.4715709686279297,-1.569140911102295
1766399535994858800,-15.508141357421875,9.358786582946777,-2.474456548690796,-1.5686200857162476
1766399536004868600,-15.49813134765625,9.357348442077637,-2.4819161891937256,-1.5654128789901733
1766399536014878200,-15.488121826171875,9.356608390808105,-2.485567331314087,-1.5640389919281006
1766399536024888000,-15.47811181640625,9.35378646850586,-2.49686598777771,-1.562922716140747
1766399536034898000,-15.46810205078125,9.35206127166748,-2.5041356086730957,-1.561614990234375
1766399536084946700,-15.41805322265625,9.34858226776123,-2.5128471851348877,-1.568438172340393
1766399536094956500,-15.40804345703125,9.348761558532715,-2.507230758666992,-1.5763319730758667
1766399536114976000,-15.38802392578125,9.347228050231934,-2.5035362243652344,-1.5912351608276367
1766399536124985900,-15.37801416015625,9.34631061553955,-2.5043718814849854,-1.5953043699264526
1766399536135026000,-15.36797412109375,9.344050407409668,-2.5104143619537354,-1.5990360975265503
1766399536145035800,-15.357964111328124,9.342486381530762,-2.514784097671509,-1.601311445236206
1766399536165086000,-15.3379140625,9.341864585876465,-2.512479782104492,-1.6085392236709595
1766399536185135900,-15.317864013671874,9.343592643737793,-2.5028018951416016,-1.6135799884796143
1766399536195176200,-15.30782373046875,9.343348503112793,-2.503629684448242,-1.6137127876281738
1766399536205186000,-15.29781396484375,9.342913627624512,-2.505613327026367,-1.6131526231765747
1766399536215195600,-15.287804443359375,9.342727661132812,-2.506711006164551,-1.612524390220642
1766399536225236000,-15.277763916015624,9.342877388000488,-2.506499767303467,-1.6119827032089233
1766399536265244400,-15.237755615234375,9.33874225616455,-2.5222508907318115,-1.6113731861114502
1766399536275284700,-15.22771533203125,9.338096618652344,-2.5223288536071777,-1.614993691444397
1766399536285325000,-15.217675048828125,9.338492393493652,-2.5187723636627197,-1.618247389793396
1766399536295335000,-15.2076650390625,9.338040351867676,-2.5167453289031982,-1.6240025758743286
1766399536305344500,-15.197655517578125,9.337060928344727,-2.5159144401550293,-1.6309049129486084
1766399536315354400,-15.187645751953125,9.336721420288086,-2.515094518661499,-1.6341127157211304
1766399536325364200,-15.1776357421875,9.335949897766113,-2.515044927597046,-1.6385921239852905
1766399536355424000,-15.147575927734374,9.331795692443848,-2.526642084121704,-1.644402265548706
1766399536365433900,-15.137566162109374,9.331525802612305,-2.527838706970215,-1.6440914869308472
1766399536375443500,-15.127556640625,9.33065414428711,-2.530341625213623,-1.645193099975586
1766399536395463000,-15.107537109375,9.329061508178711,-2.5349647998809814,-1.6471035480499268
1766399536405503200,-15.097496826171875,9.327953338623047,-2.5378258228302,-1.6489756107330322
1766399536415513000,-15.08748681640625,9.32709789276123,-2.5384371280670166,-1.6528680324554443
1766399536425461800,-15.077538330078125,9.326772689819336,-2.5374512672424316,-1.6562139987945557
1766399536465531400,-15.037468505859374,9.325291633605957,-2.5372745990753174,-1.6647993326187134
1766399536475632600,-15.027367431640625,9.324519157409668,-2.538796901702881,-1.6668058633804321
1766399536485612000,-15.017387939453124,9.324319839477539,-2.538712739944458,-1.6680476665496826
1766399536495621600,-15.00737841796875,9.324807167053223,-2.5369081497192383,-1.668070912361145
1766399536505601000,-14.99739892578125,9.324745178222656,-2.5373594760894775,-1.6677278280258179
1766399536525681400,-14.977318603515625,9.323142051696777,-2.5430328845977783,-1.6680513620376587
1766399536555772000,-14.94722802734375,9.324202537536621,-2.535982847213745,-1.6728495359420776
1766399536565751000,-14.9372490234375,9.32358169555664,-2.5371158123016357,-1.6745874881744385
1766399536575761000,-14.927239013671874,9.321247100830078,-2.543604612350464,-1.6777435541152954
1766399536585740000,-14.917260009765625,9.319518089294434,-2.5477540493011475,-1.6810462474822998
1766399536595780400,-14.9072197265625,9.319086074829102,-2.547506809234619,-1.6838173866271973
1766399536605790200,-14.897209716796874,9.317330360412598,-2.5536153316497803,-1.6842756271362305
1766399536615800000,-14.887199951171874,9.315185546875,-2.561208486557007,-1.6846078634262085
1766399536625779200,-14.877220703125,9.312141418457031,-2.5726993083953857,-1.6839356422424316
1766399536635819500,-14.867180419921874,9.3106689453125,-2.5781188011169434,-1.68378746509552
1766399536675858400,-14.8271416015625,9.311100959777832,-2.571655750274658,-1.6912637948989868
1766399536685868300,-14.817131591796874,9.310091972351074,-2.573061943054199,-1.694673776626587
1766399536695878100,-14.807121826171874,9.30847454071045,-2.57875394821167,-1.6949079036712646
1766399536705826800,-14.797173095703124,9.30617904663086,-2.5885140895843506,-1.6926357746124268
1766399536715867100,-14.7871328125,9.305036544799805,-2.59415864944458,-1.6902716159820557
1766399536755997700,-14.747002197265624,9.307210922241211,-2.5855867862701416,-1.691439151763916
1766399536766007600,-14.736992431640624,9.307280540466309,-2.584843873977661,-1.6921863555908203
1766399536776017200,-14.72698291015625,9.307327270507812,-2.58652925491333,-1.689351201057434
1766399536786027000,-14.716972900390624,9.307845115661621,-2.587873697280884,-1.6844375133514404
1766399536796097800,-14.706902099609374,9.310050964355469,-2.5851387977600098,-1.6764217615127563
1766399536806138000,-14.69686181640625,9.312408447265625,-2.5879478454589844,-1.6589058637619019
1766399536816148000,-14.68685205078125,9.31309986114502,-2.5875442028045654,-1.6556496620178223
1766399536826157600,-14.676842529296875,9.29862117767334,-2.64969801902771,-1.6386393308639526
1766399536866227200,-14.636772705078124,9.248132705688477,-2.840747117996216,-1.6039283275604248
1766399536876267500,-14.626732421875,9.228976249694824,-2.910388231277466,-1.589347004890442
1766399536886277000,-14.616722900390625,9.198931694030762,-3.0177197456359863,-1.5631415843963623
1766399536896287000,-14.606713134765625,9.183077812194824,-3.0751144886016846,-1.5443921089172363
1766399536906266400,-14.596733642578124,9.176451683044434,-3.0997917652130127,-1.5344079732894897
1766399536916367600,-14.58663232421875,9.163665771484375,-3.1517493724823,-1.50468909740448
1766399536926346800,-14.5766533203125,9.154273986816406,-3.1894404888153076,-1.4822680950164795
1766399536936356600,-14.566643310546874,9.151494026184082,-3.2034859657287598,-1.4690892696380615
1766399536956376000,-14.5466240234375,9.125358581542969,-3.291055917739868,-1.4377655982971191
1766399536976395500,-14.5266044921875,9.082279205322266,-3.418193817138672,-1.4136968851089478
1766399536986405400,-14.5165947265625,9.04239273071289,-3.5252127647399902,-1.4065563678741455
1766399536996415200,-14.506584716796874,9.021846771240234,-3.576218843460083,-1.409725308418274
1766399537006424800,-14.4965751953125,9.012451171875,-3.597304344177246,-1.4161614179611206
1766399537016434700,-14.4865654296875,9.0112943649292,-3.596658706665039,-1.4251327514648438
1766399537026444500,-14.476555419921874,9.013043403625488,-3.5873050689697266,-1.4375983476638794
1766399537036454100,-14.4665458984375,9.0133638381958,-3.585078477859497,-1.4411346912384033
1766399537076523800,-14.426476318359375,9.018184661865234,-3.5395560264587402,-1.5212761163711548
1766399537086533600,-14.41646630859375,9.019489288330078,-3.5225868225097656,-1.5526058673858643
1766399537106522600,-14.396477294921874,9.026819229125977,-3.484219789505005,-1.595975399017334
1766399537116532500,-14.386467529296874,9.041962623596191,-3.432853937149048,-1.6213594675064087
1766399537126542000,-14.3764580078125,9.074967384338379,-3.337151050567627,-1.636694312095642
1766399537136552000,-14.366447998046874,9.08757209777832,-3.302210807800293,-1.6376231908798218
1766399537166581200,-14.336418701171874,9.119001388549805,-3.2094480991363525,-1.6473186016082764
1766399537176590800,-14.3264091796875,9.124435424804688,-3.19199275970459,-1.6511359214782715
1766399537186600700,-14.3163994140625,9.127676963806152,-3.1846208572387695,-1.6474498510360718
1766399537196671500,-14.30632861328125,9.13303279876709,-3.171370506286621,-1.6433227062225342
1766399537206651000,-14.29634912109375,9.135315895080566,-3.166318893432617,-1.6403676271438599
1766399537216660500,-14.286339599609375,9.144649505615234,-3.141536235809326,-1.6360042095184326
1766399537226670300,-14.27632958984375,9.159257888793945,-3.1028847694396973,-1.6280301809310913
1766399537236710700,-14.266289306640624,9.173765182495117,-3.060230016708374,-1.6270819902420044
1766399537286820400,-14.2161796875,9.182177543640137,-3.0159292221069336,-1.6619752645492554
1766399537296830200,-14.206169677734374,9.18830394744873,-2.9874117374420166,-1.6795333623886108
1766399537306840000,-14.196159912109374,9.194087982177734,-2.960686683654785,-1.6951324939727783
1766399537316849700,-14.186150390625,9.199283599853516,-2.936282157897949,-1.7093279361724854
1766399537326890000,-14.176110107421875,9.20561408996582,-2.9084103107452393,-1.7228463888168335
1766399537336930300,-14.166069580078124,9.209546089172363,-2.891245126724243,-1.7307054996490479
1766399537346970600,-14.156029296875,9.216171264648438,-2.8601033687591553,-1.747106909751892
1766399537387070700,-14.11592919921875,9.220965385437012,-2.803196907043457,-1.8128068447113037
1766399537397080600,-14.10591943359375,9.214170455932617,-2.8126161098480225,-1.832661747932434
1766399537407090200,-14.095909912109375,9.208772659301758,-2.8153328895568848,-1.855476975440979
1766399537417161000,-14.085839111328125,9.21017074584961,-2.80800461769104,-1.8596389293670654
1766399537427140400,-14.075859619140624,9.214797019958496,-2.7919631004333496,-1.8608747720718384
1766399537437150000,-14.06585009765625,9.221494674682617,-2.7679367065429688,-1.8635847568511963
1766399537447129300,-14.05587060546875,9.226863861083984,-2.7482264041900635,-1.8661764860153198
1766399537457169700,-14.045830322265624,9.225781440734863,-2.7446751594543457,-1.876727819442749
1766399537497208600,-14.00579150390625,9.21412467956543,-2.742908000946045,-1.9356492757797241
1766399537507218400,-13.995781494140624,9.211748123168945,-2.742534875869751,-1.9474543333053589
1766399537517228300,-13.985771728515624,9.206082344055176,-2.763969659805298,-1.9439419507980347
1766399537527238000,-13.97576220703125,9.196303367614746,-2.7946672439575195,-1.9463355541229248
1766399537537278200,-13.9657216796875,9.18137264251709,-2.83797287940979,-1.9541504383087158
1766399537547288000,-13.9557119140625,9.167085647583008,-2.8761472702026367,-1.9653750658035278
1766399537557297700,-13.945702392578125,9.166825294494629,-2.8739097118377686,-1.96985924243927
1766399537567307500,-13.9356923828125,9.169340133666992,-2.8646433353424072,-1.971653699874878
1766399537597367300,-13.9056328125,9.167919158935547,-2.850165843963623,-1.9990477561950684
1766399537627396600,-13.875603271484374,9.172661781311035,-2.8320767879486084,-2.0029985904693604
1766399537637406500,-13.865593505859374,9.176798820495605,-2.8221185207366943,-1.9980982542037964
1766399537647416000,-13.855583984375,9.178614616394043,-2.8223915100097656,-1.9893523454666138
1766399537657395500,-13.8456044921875,9.178337097167969,-2.829167127609253,-1.9809929132461548
1766399537667405000,-13.835594970703125,9.177217483520508,-2.838427782058716,-1.9729145765304565
1766399537677415000,-13.825585205078125,9.17569351196289,-2.846379280090332,-1.9685405492782593
1766399537697465000,-13.805534912109374,9.181181907653809,-2.8293516635894775,-1.9674994945526123
1766399537717484500,-13.785515380859374,9.191718101501465,-2.799678087234497,-1.960741639137268
1766399537727494400,-13.775505615234374,9.18975830078125,-2.8113625049591064,-1.9531928300857544
1766399537737504000,-13.76549609375,9.183650016784668,-2.83636212348938,-1.9457679986953735
1766399537747483400,-13.7555166015625,9.179108619689941,-2.8553555011749268,-1.9394080638885498
1766399537757523500,-13.7454765625,9.181085586547852,-2.85544490814209,-1.9298895597457886
1766399537767533300,-13.735466796875,9.185868263244629,-2.8448994159698486,-1.9226956367492676
1766399537777543200,-13.725456787109374,9.193036079406738,-2.8247110843658447,-1.9181983470916748
1766399537787583500,-13.71541650390625,9.194608688354492,-2.819763422012329,-1.917939305305481
1766399537807633400,-13.69536669921875,9.194005012512207,-2.822105646133423,-1.9173914194107056
1766399537817673700,-13.685326171875,9.19382381439209,-2.823469400405884,-1.9162485599517822
1766399537827683600,-13.67531640625,9.196050643920898,-2.8162834644317627,-1.9161369800567627
1766399537837723600,-13.6652763671875,9.197336196899414,-2.8085272312164307,-1.9213448762893677
1766399537847703000,-13.655296875,9.197267532348633,-2.8075358867645264,-1.9231200218200684
1766399537857743400,-13.645256591796874,9.194601058959961,-2.815361976623535,-1.924429178237915
1766399537867753000,-13.6352470703125,9.192075729370117,-2.820727825164795,-1.92863130569458
1766399537877762800,-13.6252373046875,9.190356254577637,-2.8194634914398193,-1.9386508464813232
1766399537887803100,-13.61519677734375,9.190492630004883,-2.8166589736938477,-1.942081332206726
1766399537917863000,-13.58513720703125,9.200508117675781,-2.7702853679656982,-1.9612627029418945
1766399537927903200,-13.5750966796875,9.19450569152832,-2.7857890129089355,-1.9674450159072876
1766399537937943600,-13.565056396484374,9.19091510772705,-2.7965505123138428,-1.9689548015594482
1766399537947953200,-13.555046875,9.1842041015625,-2.8189258575439453,-1.9683620929718018
1766399537957963000,-13.545037109375,9.177739143371582,-2.8414762020111084,-1.9660885334014893
1766399537967972900,-13.535027099609374,9.177358627319336,-2.844080924987793,-1.9640990495681763
1766399537978043600,-13.524956298828124,9.177139282226562,-2.8451645374298096,-1.9635523557662964
1766399537988022800,-13.514977294921875,9.174760818481445,-2.852674722671509,-1.9637727737426758
1766399538018082600,-13.48491748046875,9.162485122680664,-2.8846662044525146,-1.9743231534957886
1766399538028092400,-13.474907470703124,9.159902572631836,-2.8916165828704834,-1.9761402606964111
1766399538038132700,-13.4648671875,9.15322208404541,-2.9109790325164795,-1.9786618947982788
1766399538048142600,-13.454857421875,9.14319896697998,-2.9403131008148193,-1.9816299676895142
1766399538058182700,-13.4448173828125,9.131717681884766,-2.972430944442749,-1.9866458177566528
1766399538068192500,-13.434807373046874,9.121455192565918,-3.0009353160858154,-1.9909389019012451
1766399538078263300,-13.42473681640625,9.115736961364746,-3.016141414642334,-1.994144082069397
1766399538088273200,-13.414726806640624,9.114788055419922,-3.017949342727661,-1.995750904083252
1766399538098282800,-13.40471728515625,9.115630149841309,-3.0140902996063232,-1.9977322816848755
1766399538118333000,-13.3846669921875,9.105120658874512,-3.045728921890259,-1.997671365737915
1766399538128342800,-13.3746572265625,9.093977928161621,-3.082156181335449,-1.9925546646118164
1766399538138352400,-13.364647705078125,9.084840774536133,-3.1131365299224854,-1.9860607385635376
1766399538148362200,-13.3546376953125,9.079073905944824,-3.1348817348480225,-1.9782143831253052
1766399538158433000,-13.34456689453125,9.07492733001709,-3.153596878051758,-1.9674649238586426
1766399538168412200,-13.334587890625,9.072251319885254,-3.168497085571289,-1.955830454826355
1766399538178422000,-13.324577880859374,9.071528434753418,-3.177976369857788,-1.9437649250030518
1766399538188432000,-13.314568115234374,9.071861267089844,-3.1861095428466797,-1.9288407564163208
1766399538198441500,-13.30455859375,9.071124076843262,-3.1973321437835693,-1.9136784076690674
1766399538228532000,-13.274468017578124,9.052078247070312,-3.268749237060547,-1.8829632997512817
1766399538238541600,-13.26445849609375,9.034492492675781,-3.3221137523651123,-1.8740026950836182
1766399538248582000,-13.254418212890625,9.01734733581543,-3.374565839767456,-1.8628325462341309
1766399538258591700,-13.244408203125,9.002847671508789,-3.4200382232666016,-1.8499913215637207
1766399538268632000,-13.234367919921874,8.990365028381348,-3.4586379528045654,-1.8388956785202026
1766399538288651500,-13.214348388671874,8.967689514160156,-3.5213241577148438,-1.8306314945220947
1766399538298691800,-13.20430810546875,8.952689170837402,-3.5595176219940186,-1.8301862478256226
1766399538338730800,-13.164269287109375,8.909697532653809,-3.6534552574157715,-1.8547078371047974
1766399538348771000,-13.15422900390625,8.887602806091309,-3.6995503902435303,-1.869287133216858
1766399538358811400,-13.144188720703125,8.879618644714355,-3.716073751449585,-1.8744474649429321
1766399538368821200,-13.1341787109375,8.859585762023926,-3.7596263885498047,-1.8823775053024292
1766399538378861600,-13.124138427734374,8.831175804138184,-3.821913719177246,-1.8904242515563965
1766399538388871200,-13.11412890625,8.788675308227539,-3.909601926803589,-1.9090814590454102
1766399538398911500,-13.104088623046875,8.76226806640625,-3.9619250297546387,-1.9225437641143799
1766399538408921300,-13.09407861328125,8.749565124511719,-3.9870004653930664,-1.928553819656372
1766399538418961700,-13.084038330078124,8.726049423217773,-4.028820037841797,-1.9480913877487183
1766399538438981000,-13.064018798828124,8.700769424438477,-4.075529098510742,-1.963940143585205
1766399538448991000,-13.054009033203124,8.686108589172363,-4.102828025817871,-1.9719802141189575
1766399538459000600,-13.04399951171875,8.677397727966309,-4.119146823883057,-1.9763060808181763
1766399538469010400,-13.033989501953124,8.651961326599121,-4.1624836921691895,-1.9969193935394287
1766399538479050800,-13.02394921875,8.643139839172363,-4.178699970245361,-2.0012452602386475
1766399538489091000,-13.013908935546874,8.63357925415039,-4.194740295410156,-2.008943557739258
1766399538499161900,-13.003838134765624,8.631429672241211,-4.18826961517334,-2.031553030014038
1766399538509171500,-12.99382861328125,8.634844779968262,-4.176758289337158,-2.040717124938965
1766399538519181300,-12.983818603515624,8.65359115600586,-4.119643211364746,-2.0770888328552246
1766399538549271600,-12.953728515625,8.712231636047363,-3.971933364868164,-2.119234085083008
1766399538569291300,-12.933708740234374,8.728140830993652,-3.930541515350342,-2.130915403366089
1766399538589280300,-12.9137197265625,8.731026649475098,-3.922722578048706,-2.1334967613220215
1766399538599289900,-12.903710205078125,8.731282234191895,-3.9213240146636963,-2.1350209712982178
1766399538609299700,-12.8937001953125,8.748438835144043,-3.8810904026031494,-2.138303518295288
1766399538619309600,-12.8836904296875,8.755257606506348,-3.8636155128479004,-2.142038345336914
1766399538669419300,-12.833580810546875,8.811887741088867,-3.708311080932617,-2.183905839920044
1766399538679429000,-12.82357080078125,8.802691459655762,-3.721506357192993,-2.198500156402588
1766399538689439000,-12.81356103515625,8.797282218933105,-3.729020118713379,-2.2073991298675537
1766399538699479000,-12.80352099609375,8.795186042785645,-3.7255940437316895,-2.221491575241089
1766399538709489000,-12.793510986328124,8.800385475158691,-3.701279878616333,-2.2414584159851074
1766399538719529200,-12.783470703125,8.804115295410156,-3.6833887100219727,-2.2562315464019775
1766399538729539000,-12.7734609375,8.804685592651367,-3.6715586185455322,-2.2732253074645996
1766399538739579100,-12.7634208984375,8.803860664367676,-3.667933464050293,-2.282254457473755
1766399538789719600,-12.713280517578125,8.813255310058594,-3.592374563217163,-2.364692449569702
1766399538799760000,-12.703240234375,8.809990882873535,-3.590071439743042,-2.380302667617798
1766399538809830700,-12.69316943359375,8.806253433227539,-3.5944879055023193,-2.3874552249908447
1766399538819840500,-12.683159423828124,8.802675247192383,-3.60031795501709,-2.3918631076812744
1766399538829850000,-12.67314990234375,8.79926872253418,-3.6076486110687256,-2.39335036277771
1766399538839860000,-12.66314013671875,8.79672622680664,-3.614358901977539,-2.3925747871398926
1766399538869889300,-12.63311083984375,8.789319038391113,-3.6367902755737305,-2.385793447494507
1766399538879960000,-12.6230400390625,8.787381172180176,-3.6420576572418213,-2.3848965167999268
1766399538889939500,-12.613060546875,8.790034294128418,-3.6374776363372803,-2.382107734680176
1766399538899979500,-12.6030205078125,8.796101570129395,-3.6261067390441895,-2.377044916152954
1766399538909989400,-12.5930107421875,8.801078796386719,-3.6183276176452637,-2.370465040206909
1766399538919999200,-12.583000732421874,8.801985740661621,-3.6218953132629395,-2.3616316318511963
1766399538930008800,-12.5729912109375,8.79965877532959,-3.6348392963409424,-2.350389242172241
1766399538940018700,-12.562981201171874,8.795207023620605,-3.654313087463379,-2.336815595626831
1766399538950028500,-12.552971435546874,8.792916297912598,-3.66839861869812,-2.3233280181884766
1766399538970078500,-12.532921630859375,8.784215927124023,-3.704643964767456,-2.298598289489746
1766399538980088300,-12.52291162109375,8.785801887512207,-3.7039542198181152,-2.293642997741699
1766399538990128600,-12.512871337890624,8.79332447052002,-3.6888160705566406,-2.289205551147461
1766399539000169000,-12.5028310546875,8.800497055053711,-3.6733107566833496,-2.2865753173828125
1766399539010178600,-12.492821533203125,8.804364204406738,-3.6639504432678223,-2.286703109741211
1766399539020219000,-12.482781005859374,8.804488182067871,-3.6626811027526855,-2.2882626056671143
1766399539030259200,-12.47274072265625,8.800546646118164,-3.668552875518799,-2.294010639190674
1766399539040269000,-12.46273095703125,8.798751831054688,-3.6707870960235596,-2.2973203659057617
1766399539050278700,-12.452721435546875,8.799304962158203,-3.668680429458618,-2.29856538772583
1766399539080369200,-12.422630859375,8.806624412536621,-3.6518051624298096,-2.29740571975708
1766399539100388600,-12.402611328125,8.811443328857422,-3.638012647628784,-2.3008084297180176
1766399539110429000,-12.392571044921874,8.812943458557129,-3.6303553581237793,-2.307149648666382
1766399539120499700,-12.382500244140624,8.814937591552734,-3.626124858856201,-2.3061811923980713
1766399539130478800,-12.372521240234375,8.815742492675781,-3.6241202354431152,-2.306257724761963
1766399539140488700,-12.36251123046875,8.815829277038574,-3.6242856979370117,-2.3056674003601074
1766399539150529000,-12.352470947265624,8.8160982131958,-3.6252734661102295,-2.303081512451172
1766399539160599800,-12.342400146484374,8.81628704071045,-3.625089645385742,-2.3026490211486816
1766399539190690000,-12.31231005859375,8.822163581848145,-3.606123447418213,-2.309913396835327
1766399539200730400,-12.30226953125,8.82129192352295,-3.607110023498535,-2.3116960525512695
1766399539210740200,-12.292259765625,8.819522857666016,-3.609459638595581,-2.3147780895233154
1766399539220749800,-12.282250244140625,8.817116737365723,-3.6104238033294678,-2.322430372238159
1766399539230790100,-12.2722099609375,8.816829681396484,-3.6128594875335693,-2.3197293281555176
