time,seconds_elapsed,z,y,x
1765792819172966400,-0.05203369140625,7.215663433074951,-6.537507057189941,-1.1685853004455566
1765792819182876200,-0.042123779296875,7.240658283233643,-6.50720739364624,-1.1830071210861206
1765792819192655400,-0.0323447265625,7.2210845947265625,-6.53097677230835,-1.171613097190857
1765792819202465300,-0.02253466796875,7.200327396392822,-6.556391716003418,-1.1573326587677002
1765792819212344300,-0.01265576171875,7.193210124969482,-6.565029621124268,-1.1526052951812744
1765792819222323700,-0.00267626953125,7.193068981170654,-6.565196990966797,-1.1525342464447021
1765792819232333600,0.00733349609375,7.194489002227783,-6.563543796539307,-1.1530901193618774
1765792819242343200,0.01734326171875,7.1948065757751465,-6.56315803527832,-1.1533081531524658
1765792819252291800,0.027291748046875,7.194300651550293,-6.563640594482422,-1.153711199760437
1765792819262332200,0.037332275390625,7.193526268005371,-6.564396381378174,-1.154241919517517
1765792819272311600,0.0473115234375,7.193929195404053,-6.56389856338501,-1.1545631885528564
1765792819282321200,0.057321044921875,7.195143222808838,-6.562474250793457,-1.1550909280776978
1765792819292270000,0.06727001953125,7.196697235107422,-6.56072998046875,-1.1553195714950562
1765792819302310100,0.07731005859375,7.197981357574463,-6.559222221374512,-1.1558789014816284
1765792819312259000,0.087259033203125,7.1995158195495605,-6.55746603012085,-1.156292200088501
1765792819322207700,0.097207763671875,7.19993782043457,-6.556946754455566,-1.156606674194336
1765792819332156400,0.107156494140625,7.199210166931152,-6.557651996612549,-1.157134771347046
1765792819342166300,0.117166259765625,7.198963165283203,-6.557775974273682,-1.1579755544662476
1765792819352115000,0.127114990234375,7.199675559997559,-6.556833267211914,-1.1588833332061768
1765792819362124800,0.137124755859375,7.201318740844727,-6.5548415184021,-1.1599395275115967
1765792819372104000,0.14710400390625,7.2024922370910645,-6.553447723388672,-1.1605231761932373
1765792819412082000,0.18708203125,7.211890697479248,-6.5428948402404785,-1.1616992950439453
1765792819422061300,0.197061279296875,7.212640285491943,-6.541958808898926,-1.1623214483261108
1765792819432040400,0.20704052734375,7.213423252105713,-6.541058540344238,-1.1625237464904785
1765792819442050300,0.21705029296875,7.21436882019043,-6.539927005767822,-1.1630308628082275
1765792819452029400,0.227029541015625,7.215738773345947,-6.538369178771973,-1.1632827520370483
1765792819462008800,0.2370087890625,7.216590404510498,-6.537380695343018,-1.1635563373565674
1765792819472018400,0.247018310546875,7.2168755531311035,-6.537055492401123,-1.1636159420013428
1765792819481997800,0.256997802734375,7.218325138092041,-6.535375595092773,-1.1640625
1765792819522006300,0.29700634765625,7.224110126495361,-6.5277910232543945,-1.1707113981246948
1765792819531985700,0.306985595703125,7.226212978363037,-6.524972915649414,-1.173438549041748
1765792819541964800,0.31696484375,7.226773738861084,-6.524007797241211,-1.1753551959991455
1765792819551944000,0.32694384765625,7.228126049041748,-6.52208137512207,-1.1777266263961792
1765792819561953800,0.336953857421875,7.229111194610596,-6.520772933959961,-1.1789189577102661
1765792819571902500,0.34690234375,7.22951078414917,-6.520088195800781,-1.1802610158920288
1765792819581912300,0.356912353515625,7.228955268859863,-6.520503044128418,-1.1813664436340332
1765792819591891500,0.366891357421875,7.228952407836914,-6.520406246185303,-1.1819249391555786
1765792819631869700,0.40686962890625,7.232387542724609,-6.516096591949463,-1.1846692562103271
1765792819641879300,0.41687939453125,7.234633922576904,-6.513404846191406,-1.185762882232666
1765792819651828000,0.426827880859375,7.237067699432373,-6.510488033294678,-1.1869237422943115
1765792819661807400,0.436807373046875,7.238245010375977,-6.509181022644043,-1.186911702156067
1765792819671817200,0.446817138671875,7.238803863525391,-6.508388519287109,-1.1878554821014404
1765792819681826800,0.456826904296875,7.2410502433776855,-6.505646228790283,-1.1891802549362183
1765792819691836700,0.466836669921875,7.2424798011779785,-6.503723621368408,-1.1909855604171753
1765792819701846300,0.47684619140625,7.242941379547119,-6.502804756164551,-1.1931997537612915
1765792819731814700,0.506814697265625,7.245657444000244,-6.499037265777588,-1.1972323656082153
1765792819741824500,0.516824462890625,7.247347354888916,-6.496878623962402,-1.198718547821045
1765792819751803600,0.5268037109375,7.2485127449035645,-6.49533224105835,-1.200042724609375
1765792819761813500,0.5368134765625,7.249148845672607,-6.494409084320068,-1.2012007236480713
1765792819771823000,0.546822998046875,7.249973773956299,-6.493235111236572,-1.202566146850586
1765792819781833000,0.5568330078125,7.2511749267578125,-6.491708278656006,-1.203566551208496
1765792819791781600,0.56678173828125,7.252174377441406,-6.490206718444824,-1.205646276473999
1765792819801761000,0.576760986328125,7.252151012420654,-6.489850997924805,-1.2076994180679321
1765792819831729200,0.606729248046875,7.248459815979004,-6.492926597595215,-1.213312029838562
1765792819841769500,0.61676953125,7.244143486022949,-6.497195243835449,-1.2162322998046875
1765792819851779300,0.626779296875,7.239734649658203,-6.501276969909668,-1.2206708192825317
1765792819861789000,0.636788818359375,7.230171203613281,-6.509933948516846,-1.2311662435531616
1765792819881778000,0.65677783203125,7.238731384277344,-6.497926712036133,-1.2442288398742676
1765792819891757300,0.66675732421875,7.238976001739502,-6.493789196014404,-1.2642475366592407
1765792819901736400,0.676736328125,7.245786190032959,-6.483823299407959,-1.2763278484344482
1765792819911746300,0.686746337890625,7.232284069061279,-6.495926380157471,-1.2912743091583252
1765792819951693800,0.72669384765625,7.16337251663208,-6.565676212310791,-1.322268009185791
1765792819961703700,0.73670361328125,7.131611347198486,-6.599047660827637,-1.3278067111968994
1765792819971682800,0.746682861328125,7.088454246520996,-6.642386436462402,-1.3427248001098633
1765792819981662000,0.756661865234375,7.076453685760498,-6.653298854827881,-1.351962924003601
1765792819991641300,0.766641357421875,6.973226070404053,-6.761966228485107,-1.3491960763931274
1765792820001651200,0.776651123046875,6.9388041496276855,-6.796319007873535,-1.3540455102920532
1765792820011660800,0.786660888671875,6.840061664581299,-6.895634651184082,-1.354316234588623
1765792820021640200,0.79664013671875,6.721431255340576,-7.0106282234191895,-1.357878565788269
1765792820041659600,0.81665966796875,6.319591999053955,-7.371424198150635,-1.3766785860061646
1765792820051638800,0.826638671875,6.22021484375,-7.4512176513671875,-1.3995318412780762
1765792820061648600,0.836648681640625,6.009814739227295,-7.620033264160156,-1.409827709197998
1765792820071627800,0.846627685546875,5.682139873504639,-7.866145133972168,-1.4168434143066406
1765792820081668000,0.856668212890625,5.568355083465576,-7.946417331695557,-1.4206568002700806
1765792820091678000,0.866677978515625,5.2503228187561035,-8.159479141235352,-1.4238667488098145
1765792820101657000,0.876656982421875,5.140693187713623,-8.228569030761719,-1.4262988567352295
1765792820111636500,0.886636474609375,4.935166835784912,-8.353506088256836,-1.4259940385818481
1765792820121646000,0.89664599609375,4.627833366394043,-8.528409004211426,-1.4211910963058472
1765792820141635300,0.91663525390625,4.2052741050720215,-8.745539665222168,-1.4147818088531494
1765792820161654800,0.93665478515625,3.8354806900024414,-8.915266990661621,-1.406237244606018
1765792820171634000,0.946634033203125,3.5863394737243652,-9.019518852233887,-1.3988752365112305
1765792820181674200,0.95667431640625,3.321244478225708,-9.121752738952637,-1.3904551267623901
1765792820191684000,0.96668408203125,3.025911808013916,-9.225021362304688,-1.3831980228424072
1765792820201693700,0.976693603515625,2.7592151165008545,-9.308075904846191,-1.384494423866272
1765792820211673000,0.986673095703125,2.4976842403411865,-9.380699157714844,-1.3908499479293823
1765792820221652200,0.99665234375,2.11419677734375,-9.473020553588867,-1.4008742570877075
1765792820231631600,1.006631591796875,1.979231595993042,-9.502199172973633,-1.4004420042037964
1765792820241672000,1.016671875,1.7181121110916138,-9.553336143493652,-1.397230863571167
1765792820271609600,1.046609619140625,1.024166226387024,-9.652236938476562,-1.3985002040863037
1765792820281619500,1.056619384765625,0.7983591556549072,-9.672735214233398,-1.4040049314498901
1765792820291598600,1.0665986328125,0.5446962118148804,-9.68921947479248,-1.4116361141204834
1765792820301577700,1.07657763671875,0.271139532327652,-9.69870376586914,-1.425489902496338
1765792820311557000,1.08655712890625,0.0009830197086557746,-9.700148582458496,-1.4413617849349976
1765792820321597400,1.096597412109375,-0.271049827337265,-9.693912506103516,-1.4577386379241943
1765792820331576600,1.10657666015625,-0.5425660610198975,-9.679869651794434,-1.4751660823822021
1765792820341586400,1.11658642578125,-0.8031938672065735,-9.6587553024292,-1.4945610761642456
1765792820371615700,1.14661572265625,-1.4937790632247925,-9.56661319732666,-1.5553014278411865
1765792820381595000,1.156594970703125,-1.6777538061141968,-9.5330228805542,-1.5738540887832642
1765792820391543600,1.16654345703125,-1.8498787879943848,-9.498167037963867,-1.5915920734405518
1765792820401553400,1.176553466796875,-2.026421070098877,-9.458779335021973,-1.6110700368881226
1765792820411532500,1.186532470703125,-2.208723545074463,-9.414226531982422,-1.6322747468948364
1765792820421512000,1.196511962890625,-2.394838571548462,-9.365107536315918,-1.6522481441497803
1765792820431491000,1.206490966796875,-2.5742783546447754,-9.314105033874512,-1.6706064939498901
1765792820441531400,1.216531494140625,-2.7402257919311523,-9.263203620910645,-1.68956458568573
1765792820471499800,1.246499755859375,-3.165738344192505,-9.11483383178711,-1.751665711402893
1765792820491488800,1.26648876953125,-3.3637189865112305,-9.036519050598145,-1.7880418300628662
1765792820531436300,1.306436279296875,-3.5891313552856445,-8.938668251037598,-1.8408581018447876
1765792820541415400,1.31641552734375,-3.6130154132843018,-8.926836967468262,-1.8515170812606812
1765792820551425300,1.32642529296875,-3.6277713775634766,-8.918679237365723,-1.8619412183761597
1765792820571444700,1.34644482421875,-3.637249231338501,-8.909811019897461,-1.885763168334961
1765792820581454600,1.35645458984375,-3.6371817588806152,-8.909013748168945,-1.8896552324295044
1765792820591433700,1.366433837890625,-3.637120246887207,-8.907119750976562,-1.8986730575561523
1765792820601443600,1.376443603515625,-3.6428334712982178,-8.90349292755127,-1.904730200767517
1765792820611422700,1.386422607421875,-3.6451823711395264,-8.900550842285156,-1.9139573574066162
1765792820621432600,1.3964326171875,-3.647462844848633,-8.897109985351562,-1.9255751371383667
1765792820631411700,1.40641162109375,-3.650310516357422,-8.894763946533203,-1.9310014247894287
1765792820641421600,1.416421630859375,-3.648866891860962,-8.894238471984863,-1.936151385307312
1765792820651401000,1.42640087890625,-3.651127576828003,-8.892510414123535,-1.9398225545883179
1765792820661410600,1.43641064453125,-3.651670217514038,-8.891303062438965,-1.944328784942627
1765792820691409400,1.466409423828125,-3.62788462638855,-8.898186683654785,-1.9573230743408203
1765792820701419300,1.476419189453125,-3.634753942489624,-8.895853042602539,-1.9551907777786255
1765792820711428900,1.486428955078125,-3.6556756496429443,-8.887178421020508,-1.9556337594985962
1765792820721438700,1.496438720703125,-3.685459613800049,-8.875571250915527,-1.952440619468689
1765792820731448300,1.5064482421875,-3.7090816497802734,-8.866884231567383,-1.947168231010437
1765792820741427700,1.516427734375,-3.7315070629119873,-8.8588228225708,-1.9410014152526855
1765792820751437600,1.5264375,-3.7421176433563232,-8.855107307434082,-1.9375258684158325
1765792820761447200,1.536447265625,-3.7689764499664307,-8.845821380615234,-1.927861213684082
1765792820801455900,1.576455810546875,-3.8239831924438477,-8.825111389160156,-1.9144065380096436
1765792820811435000,1.58643505859375,-3.8384323120117188,-8.819283485412598,-1.9123497009277344
1765792820821414100,1.5964140625,-3.8433241844177246,-8.817234992980957,-1.9119771718978882
1765792820831424000,1.606424072265625,-3.855905294418335,-8.812369346618652,-1.909050703048706
1765792820841372700,1.61637255859375,-3.8555376529693604,-8.812374114990234,-1.9097881317138672
1765792820851382500,1.626382568359375,-3.865468978881836,-8.808245658874512,-1.9087635278701782
1765792820861392400,1.636392333984375,-3.8816847801208496,-8.801909446716309,-1.9050756692886353
1765792820871371500,1.64637158203125,-3.9021384716033936,-8.793927192687988,-1.9001424312591553
1765792820881381400,1.65638134765625,-3.926321268081665,-8.783730506896973,-1.8974875211715698
1765792820891360500,1.666360595703125,-3.9346840381622314,-8.77973461151123,-1.8986599445343018
1765792820901370400,1.676370361328125,-3.937854528427124,-8.77785873413086,-1.9007608890533447
1765792820911349500,1.686349609375,-3.939553737640381,-8.776484489440918,-1.9035851955413818
1765792820921359400,1.696359375,-3.946220636367798,-8.772554397583008,-1.9078909158706665
1765792820931369200,1.706369140625,-3.956512451171875,-8.767167091369629,-1.911344289779663
1765792820941378800,1.71637890625,-3.9690725803375244,-8.7609281539917,-1.913900375366211
1765792820951388700,1.726388671875,-3.976255416870117,-8.756952285766602,-1.9171829223632812
1765792820961398300,1.736398193359375,-3.984009027481079,-8.752717018127441,-1.9204241037368774
1765792821001376500,1.77637646484375,-3.9742679595947266,-8.756596565246582,-1.922912359237671
1765792821011386000,1.78638623046875,-3.9725260734558105,-8.757781982421875,-1.92112135887146
1765792821021396000,1.79639599609375,-3.9740211963653564,-8.756877899169922,-1.922157883644104
1765792821031405800,1.80640576171875,-3.9772894382476807,-8.75560474395752,-1.9211970567703247
1765792821041415400,1.81641552734375,-3.980945348739624,-8.75367546081543,-1.9224075078964233
1765792821051425300,1.82642529296875,-3.982752561569214,-8.75202465057373,-1.9261772632598877
1765792821061404400,1.836404296875,-3.979865550994873,-8.753283500671387,-1.9264074563980103
1765792821071414300,1.846414306640625,-3.9709596633911133,-8.757034301757812,-1.9277403354644775
1765792821111422700,1.886422607421875,-3.9065234661102295,-8.788074493408203,-1.918139100074768
1765792821121432600,1.8964326171875,-3.886563539505005,-8.798320770263672,-1.91169011592865
1765792821131411700,1.90641162109375,-3.867377996444702,-8.807459831237793,-1.9085097312927246
1765792821141421600,1.916421630859375,-3.857088565826416,-8.812250137329102,-1.9072189331054688
1765792821151370200,1.926370361328125,-3.8339931964874268,-8.82307243347168,-1.9037519693374634
1765792821161410600,1.93641064453125,-3.825345754623413,-8.827075958251953,-1.9025969505310059
1765792821171420400,1.94642041015625,-3.813030958175659,-8.832845687866211,-1.9005401134490967
1765792821201419300,1.976419189453125,-3.7566440105438232,-8.857645988464355,-1.897401213645935
1765792821211428900,1.986428955078125,-3.7426276206970215,-8.864217758178711,-1.894413709640503
1765792821221438700,1.996438720703125,-3.7331607341766357,-8.868468284606934,-1.893203854560852
1765792821231417900,2.00641796875,-3.7307815551757812,-8.86989974975586,-1.8911750316619873
1765792821241427700,2.016427734375,-3.730633497238159,-8.870218276977539,-1.8899695873260498
1765792821251406800,2.02640673828125,-3.7364609241485596,-8.868359565734863,-1.8871877193450928
1765792821261416700,2.036416748046875,-3.7490899562835693,-8.864025115966797,-1.8824958801269531
1765792821271395800,2.046395751953125,-3.756727457046509,-8.861231803894043,-1.88041353225708
1765792821281375200,2.056375244140625,-3.7608189582824707,-8.859856605529785,-1.8787150382995605
1765792821301364200,2.0763642578125,-3.7610325813293457,-8.859875679016113,-1.8782012462615967
1765792821311343400,2.08634326171875,-3.7590548992156982,-8.86116886138916,-1.8760627508163452
1765792821321383700,2.0963837890625,-3.7640507221221924,-8.860119819641113,-1.8709851503372192
1765792821331393500,2.1063935546875,-3.777475118637085,-8.854817390441895,-1.8690484762191772
1765792821341403400,2.1164033203125,-3.785452127456665,-8.852001190185547,-1.8662424087524414
1765792821351382500,2.126382568359375,-3.7877633571624756,-8.850903511047363,-1.8667513132095337
1765792821361361700,2.136361572265625,-3.800597667694092,-8.845390319824219,-1.866791009902954
1765792821371341000,2.146341064453125,-3.8072738647460938,-8.842504501342773,-1.866864562034607
1765792821381351000,2.156350830078125,-3.8090689182281494,-8.841715812683105,-1.866942048072815
1765792821391330000,2.166330078125,-3.821749448776245,-8.837196350097656,-1.862411379814148
1765792821431277600,2.206277587890625,-3.878408670425415,-8.813641548156738,-1.8568953275680542
1765792821441287400,2.216287353515625,-3.909559488296509,-8.799947738647461,-1.856528639793396
1765792821451266600,2.2262666015625,-3.930318593978882,-8.791037559509277,-1.8548877239227295
1765792821461245700,2.23624560546875,-3.948561191558838,-8.782980918884277,-1.8543351888656616
1765792821471255600,2.246255615234375,-3.95578670501709,-8.779841423034668,-1.8537936210632324
1765792821481265400,2.256265380859375,-3.972655773162842,-8.772995948791504,-1.8501136302947998
1765792821491244500,2.26624462890625,-3.9768779277801514,-8.771089553833008,-1.8500933647155762
1765792821521213000,2.296212890625,-4.007692813873291,-8.757733345031738,-1.8468607664108276
1765792821541202000,2.316201904296875,-4.031219482421875,-8.746835708618164,-1.8473082780838013
1765792821551181000,2.32618115234375,-4.03765344619751,-8.744253158569336,-1.8454731702804565
1765792821561221400,2.336221435546875,-4.0422797203063965,-8.742218971252441,-1.8449937105178833
1765792821571170000,2.346170166015625,-4.046962738037109,-8.740130424499512,-1.8446210622787476
1765792821581180000,2.356179931640625,-4.04957389831543,-8.73913288116455,-1.8436193466186523
1765792821611148000,2.38614794921875,-4.0435686111450195,-8.742070198059082,-1.8428810834884644
1765792821621127400,2.39612744140625,-4.038383960723877,-8.744963645935059,-1.840512752532959
1765792821631137300,2.40613720703125,-4.033352851867676,-8.747821807861328,-1.8379466533660889
1765792821641147000,2.41614697265625,-4.030350685119629,-8.749874114990234,-1.8347777128219604
1765792821651126300,2.426126220703125,-4.030542373657227,-8.750402450561523,-1.8318185806274414
1765792821661105400,2.43610546875,-4.0351409912109375,-8.748967170715332,-1.8285552263259888
1765792821671084800,2.446084716796875,-4.038390636444092,-8.74758243560791,-1.8280119895935059
1765792821681094400,2.456094482421875,-4.04225492477417,-8.746323585510254,-1.8254786729812622
1765792821691104300,2.466104248046875,-4.045685768127441,-8.745192527770996,-1.8232996463775635
1765792821741122600,2.51612255859375,-4.05512809753418,-8.740442276000977,-1.825088620185852
1765792821751071200,2.5260712890625,-4.053737640380859,-8.741065979003906,-1.8251973390579224
1765792821761081000,2.5360810546875,-4.053390026092529,-8.741301536560059,-1.8248560428619385
1765792821771060200,2.546060302734375,-4.05122709274292,-8.74244213104248,-1.8241932392120361
1765792821781070000,2.556070068359375,-4.049796104431152,-8.742865562438965,-1.8253412246704102
1765792821791079700,2.56607958984375,-4.048618316650391,-8.743203163146973,-1.8263301849365234
1765792821801089500,2.576089599609375,-4.046440124511719,-8.74374771118164,-1.828563928604126
1765792821831027200,2.606027099609375,-4.044079780578613,-8.742911338806152,-1.8377488851547241
1765792821841037000,2.616037109375,-4.044641017913818,-8.74221134185791,-1.839838981628418
1765792821851047000,2.626046875,-4.045496463775635,-8.741600036621094,-1.8408701419830322
1765792821861026000,2.636026123046875,-4.044912815093994,-8.741272926330566,-1.843713402748108
1765792821881015000,2.65601513671875,-4.042832851409912,-8.741320610046387,-1.8480271100997925
1765792821890994400,2.665994384765625,-4.036830902099609,-8.743505477905273,-1.8508141040802002
1765792821900973600,2.6759736328125,-4.033976078033447,-8.744397163391113,-1.8528319597244263
1765792821910953000,2.685952880859375,-4.032686710357666,-8.744840621948242,-1.8535408973693848
1765792821930942000,2.70594189453125,-4.030686855316162,-8.746196746826172,-1.8514865636825562
1765792821960940500,2.7359404296875,-4.032607078552246,-8.74635124206543,-1.8465726375579834
1765792821970920000,2.745919921875,-4.03762149810791,-8.74450969696045,-1.8443220853805542
1765792821980929500,2.755929443359375,-4.035752773284912,-8.745534896850586,-1.843550682067871
1765792821990909000,2.765908935546875,-4.033750534057617,-8.746296882629395,-1.8443430662155151
1765792822000949200,2.77594921875,-4.031708240509033,-8.747185707092285,-1.844588041305542
1765792822010928400,2.785928466796875,-4.029042720794678,-8.748270034790039,-1.8452544212341309
1765792822040927200,2.81592724609375,-4.025644302368164,-8.749048233032227,-1.8489999771118164
1765792822050937000,2.82593701171875,-4.023244857788086,-8.74970531463623,-1.851097583770752
1765792822060946700,2.83594677734375,-4.019562244415283,-8.750810623168945,-1.853873610496521
1765792822070926000,2.845926025390625,-4.015249729156494,-8.75222110748291,-1.8565558195114136
1765792822080905200,2.8559052734375,-4.0129876136779785,-8.752830505371094,-1.8585764169692993
1765792822090884400,2.86588427734375,-4.0116071701049805,-8.753071784973145,-1.8604201078414917
1765792822100924700,2.875924560546875,-4.010372161865234,-8.753151893615723,-1.8626967668533325
1765792822110904000,2.885904052734375,-4.009850025177002,-8.753128051757812,-1.8639469146728516
1765792822150821000,2.925821044921875,-4.001204967498779,-8.755817413330078,-1.869874358177185
1765792822160830700,2.935830810546875,-3.9976742267608643,-8.757683753967285,-1.8686789274215698
1765792822170840600,2.945840576171875,-3.99527645111084,-8.75864028930664,-1.8693219423294067
1765792822180819700,2.95581982421875,-3.994065046310425,-8.75899887084961,-1.8702282905578613
1765792822190829600,2.96582958984375,-3.994643211364746,-8.758569717407227,-1.8710232973098755
1765792822200839400,2.97583935546875,-3.9935102462768555,-8.75850772857666,-1.8737324476242065
1765792822210818600,2.985818603515625,-3.992764949798584,-8.758389472961426,-1.8758569955825806
1765792822240817400,3.0158173828125,-3.9915287494659424,-8.758637428283691,-1.8773400783538818
1765792822250796500,3.025796630859375,-3.9925880432128906,-8.758100509643555,-1.8775709867477417
1765792822260806400,3.035806396484375,-3.99249267578125,-8.758230209350586,-1.8771930932998657
1765792822270785500,3.04578564453125,-3.9930427074432373,-8.758312225341797,-1.8756250143051147
1765792822280795400,3.05579541015625,-3.994368314743042,-8.758179664611816,-1.8734363317489624
1765792822290774500,3.0657744140625,-3.994166374206543,-8.758627891540527,-1.8717610836029053
1765792822300784400,3.075784423828125,-3.9947803020477295,-8.75856876373291,-1.870715618133545
1765792822310763500,3.085763427734375,-3.9927403926849365,-8.759634017944336,-1.8700823783874512
1765792822320773400,3.0957734375,-3.9886422157287598,-8.761425018310547,-1.8704466819763184
1765792822370730800,3.145730712890625,-3.981947898864746,-8.764860153198242,-1.8686197996139526
1765792822380740400,3.155740234375,-3.9808766841888428,-8.765397071838379,-1.8683725595474243
1765792822390719700,3.1657197265625,-3.9781746864318848,-8.7664213180542,-1.8693286180496216
1765792822400729300,3.175729248046875,-3.9748330116271973,-8.767857551574707,-1.8696902990341187
1765792822410708700,3.185708740234375,-3.970341682434082,-8.769575119018555,-1.8711804151535034
1765792822420718300,3.19571826171875,-3.967303514480591,-8.77085018157959,-1.8716539144515991
1765792822430697700,3.20569775390625,-3.9611406326293945,-8.773327827453613,-1.8731094598770142
1765792822440707600,3.21570751953125,-3.9569125175476074,-8.77518081665039,-1.8733330965042114
1765792822490695200,3.265695068359375,-3.9456145763397217,-8.781110763549805,-1.8693854808807373
1765792822500674600,3.275674560546875,-3.943057060241699,-8.782549858093262,-1.868022084236145
1765792822510684200,3.28568408203125,-3.9411933422088623,-8.783697128295898,-1.8665626049041748
1765792822520694000,3.295694091796875,-3.937494993209839,-8.785605430603027,-1.8653898239135742
1765792822530642700,3.305642578125,-3.934828042984009,-8.78690242767334,-1.864903211593628
1765792822540683000,3.31568310546875,-3.9300200939178467,-8.7892484664917,-1.863995909690857
1765792822580661000,3.355660888671875,-3.9246585369110107,-8.791374206542969,-1.865270733833313
1765792822600680700,3.3756806640625,-3.925784111022949,-8.790945053100586,-1.8649238348007202
1765792822610659800,3.385659912109375,-3.92536997795105,-8.791116714477539,-1.8649893999099731
1765792822620669700,3.395669677734375,-3.9245834350585938,-8.791231155395508,-1.8660802841186523
1765792822630648800,3.40564892578125,-3.924314260482788,-8.791299819946289,-1.8663311004638672
1765792822640689200,3.415689208984375,-3.9251677989959717,-8.791284561157227,-1.8646081686019897
1765792822650699000,3.425698974609375,-3.924070358276367,-8.791948318481445,-1.8637973070144653
1765792822700656000,3.47565625,-3.920532464981079,-8.793645858764648,-1.8632221221923828
1765792822710666000,3.485666015625,-3.9200844764709473,-8.793822288513184,-1.863330602645874
1765792822720675800,3.49567578125,-3.920576810836792,-8.793673515319824,-1.8630084991455078
1765792822730655000,3.505655029296875,-3.9203004837036133,-8.793647766113281,-1.8637107610702515
1765792822740664800,3.515664794921875,-3.919569492340088,-8.793745040893555,-1.8647854328155518
1765792822750644000,3.52564404296875,-3.9194376468658447,-8.79361629486084,-1.8656692504882812
1765792822760623400,3.535623291015625,-3.917526960372925,-8.79446792602539,-1.865687608718872
1765792822790622000,3.5656220703125,-3.9170007705688477,-8.795137405395508,-1.863608479499817
1765792822800631800,3.5756318359375,-3.9164633750915527,-8.795183181762695,-1.8645331859588623
1765792822810641700,3.5856416015625,-3.9148330688476562,-8.795555114746094,-1.8661978244781494
1765792822820651300,3.5956513671875,-3.913172960281372,-8.796135902404785,-1.8669415712356567
1765792822830661000,3.6056611328125,-3.910784959793091,-8.796892166137695,-1.8683855533599854
1765792822840671000,3.6156708984375,-3.908442974090576,-8.798112869262695,-1.8675397634506226
1765792822850650000,3.625650146484375,-3.9077539443969727,-8.798429489135742,-1.8674935102462769
1765792822870639000,3.64563916015625,-3.9048590660095215,-8.800020217895508,-1.866052269935608
1765792822890628000,3.665628173828125,-3.900209426879883,-8.802403450012207,-1.8645222187042236
1765792822900638000,3.675637939453125,-3.89774489402771,-8.80366325378418,-1.863741159439087
1765792822910617000,3.6856171875,-3.8956785202026367,-8.804656028747559,-1.8633555173873901
1765792822920627000,3.695626953125,-3.8924453258514404,-8.805896759033203,-1.8642619848251343
1765792822930636800,3.70563671875,-3.8882954120635986,-8.80763053894043,-1.8647361993789673
1765792822940616000,3.715615966796875,-3.8849921226501465,-8.809076309204102,-1.8647944927215576
1765792822950595000,3.725594970703125,-3.882246971130371,-8.810439109802246,-1.8640543222427368
1765792822980655000,3.755655029296875,-3.8712615966796875,-8.814727783203125,-1.866632103919983
1765792822990664700,3.765664794921875,-3.8670642375946045,-8.816290855407715,-1.8679529428482056
1765792823000674600,3.775674560546875,-3.8623228073120117,-8.818568229675293,-1.8670014142990112
1765792823010684200,3.78568408203125,-3.8566620349884033,-8.820932388305664,-1.8675516843795776
1765792823020694000,3.795694091796875,-3.850489854812622,-8.823325157165527,-1.8689769506454468
1765792823030703900,3.805703857421875,-3.844573497772217,-8.825626373291016,-1.870292067527771
1765792823040713500,3.81571337890625,-3.8364105224609375,-8.828845024108887,-1.8718621730804443
1765792823050723300,3.825723388671875,-3.8335649967193604,-8.830102920532227,-1.8717583417892456
1765792823060733200,3.835733154296875,-3.8313817977905273,-8.830683708190918,-1.8734813928604126
1765792823090762500,3.865762451171875,-3.826768398284912,-8.832468032836914,-1.8744990825653076
1765792823100802800,3.875802734375,-3.827570915222168,-8.832184791564941,-1.8742023706436157
1765792823110782000,3.885781982421875,-3.82780385017395,-8.83206558227539,-1.874281644821167
1765792823120822300,3.895822265625,-3.8263967037200928,-8.83263111114502,-1.8744961023330688
1765792823130801400,3.905801513671875,-3.8244075775146484,-8.833401679992676,-1.8749198913574219
1765792823140811300,3.915811279296875,-3.8222765922546387,-8.834416389465332,-1.8744783401489258
1765792823150790400,3.925790283203125,-3.819854497909546,-8.835127830505371,-1.876074194908142
1765792823170779400,3.945779296875,-3.8207449913024902,-8.834647178649902,-1.8765116930007935
1765792823190829600,3.96582958984375,-3.8238792419433594,-8.83321475982666,-1.8768843412399292
1765792823200808700,3.97580859375,-3.8251428604125977,-8.832521438598633,-1.8775689601898193
1765792823210788000,3.9857880859375,-3.8264617919921875,-8.831958770751953,-1.8775269985198975
1765792823220767200,3.995767333984375,-3.828826427459717,-8.831330299377441,-1.8756637573242188
1765792823230746600,4.00574658203125,-3.8293704986572266,-8.831330299377441,-1.8745508193969727
1765792823240787000,4.015786865234375,-3.8306751251220703,-8.830774307250977,-1.874502420425415
1765792823250796500,4.025796630859375,-3.830677032470703,-8.830937385559082,-1.8737298250198364
1765792823260776000,4.03577587890625,-3.8291919231414795,-8.831684112548828,-1.8732478618621826
1765792823280765000,4.055764892578125,-3.8297317028045654,-8.831681251525879,-1.8721612691879272
1765792823310702600,4.08570263671875,-3.8260746002197266,-8.832846641540527,-1.8741390705108643
1765792823320712400,4.09571240234375,-3.8226382732391357,-8.834261894226074,-1.874471664428711
1765792823330691600,4.105691650390625,-3.8219146728515625,-8.834345817565918,-1.8755542039871216
1765792823340701400,4.115701416015625,-3.819005012512207,-8.835790634155273,-1.8746821880340576
1765792823350680600,4.1256806640625,-3.8179736137390137,-8.836393356323242,-1.8739371299743652
1765792823360690400,4.1356904296875,-3.815148115158081,-8.837445259094238,-1.8747237920761108
1765792823370669600,4.145669677734375,-3.8128795623779297,-8.838519096374512,-1.8742786645889282
1765792823380679400,4.155679443359375,-3.809466600418091,-8.840420722961426,-1.872259497642517
1765792823390658600,4.165658447265625,-3.804487705230713,-8.8428955078125,-1.870683193206787
1765792823410678300,4.18567822265625,-3.78609037399292,-8.85107421875,-1.8693311214447021
1765792823420688000,4.19568798828125,-3.781534433364868,-8.853177070617676,-1.868599772453308
1765792823430697700,4.20569775390625,-3.7697339057922363,-8.857707023620605,-1.8709617853164673
1765792823440707600,4.21570751953125,-3.762681484222412,-8.860538482666016,-1.8717581033706665
1765792823450717200,4.22571728515625,-3.7509043216705322,-8.865410804748535,-1.8723359107971191
1765792823460727000,4.23572705078125,-3.738813638687134,-8.870378494262695,-1.8729760646820068
1765792823470737000,4.24573681640625,-3.7269601821899414,-8.875298500061035,-1.873296856880188
1765792823480746500,4.25574658203125,-3.7061848640441895,-8.884258270263672,-1.872055172920227
1765792823490726000,4.265725830078125,-3.6991162300109863,-8.887164115905762,-1.8722323179244995
1765792823500735500,4.275735595703125,-3.6829516887664795,-8.89432430267334,-1.8700989484786987
1765792823530764800,4.305764892578125,-3.620523691177368,-8.922167778015137,-1.859339952468872
1765792823540744200,4.315744140625,-3.590719223022461,-8.934679985046387,-1.8570448160171509
1765792823550723300,4.325723388671875,-3.542780876159668,-8.955037117004395,-1.8510687351226807
1765792823560733200,4.335733154296875,-3.524876594543457,-8.962364196777344,-1.849777102470398
1765792823570712300,4.34571240234375,-3.5012409687042236,-8.972253799438477,-1.8467293977737427
1765792823580691700,4.355691650390625,-3.480895519256592,-8.981000900268555,-1.8426709175109863
1765792823590670800,4.3656708984375,-3.4764018058776855,-8.983168601989746,-1.8405723571777344
1765792823600711200,4.375711181640625,-3.4760794639587402,-8.983287811279297,-1.8406038284301758
1765792823640750000,4.41575,-3.471099376678467,-8.983352661132812,-1.849666953086853
1765792823650729500,4.4257294921875,-3.471543073654175,-8.98281478881836,-1.8514404296875
1765792823660708600,4.43570849609375,-3.4710302352905273,-8.982232093811035,-1.8552331924438477
1765792823670688000,4.44568798828125,-3.4728970527648926,-8.981130599975586,-1.8570632934570312
1765792823680697600,4.455697509765625,-3.473717451095581,-8.980319023132324,-1.8594508171081543
1765792823690707500,4.46570751953125,-3.4750449657440186,-8.979362487792969,-1.8615854978561401
1765792823700686800,4.475686767578125,-3.4763331413269043,-8.978328704833984,-1.8641718626022339
1765792823710666000,4.485666015625,-3.478283166885376,-8.977555274963379,-1.8642526865005493
1765792823740634000,4.515634033203125,-3.483859062194824,-8.975503921508789,-1.8637189865112305
1765792823750644000,4.52564404296875,-3.4848647117614746,-8.975314140319824,-1.8627523183822632
1765792823760623400,4.535623291015625,-3.484581708908081,-8.975329399108887,-1.8632079362869263
1765792823770633000,4.545633056640625,-3.4860119819641113,-8.975114822387695,-1.8615719079971313
1765792823780673300,4.55567333984375,-3.489003896713257,-8.974065780639648,-1.8610199689865112
1765792823790683100,4.56568310546875,-3.4937756061553955,-8.972586631774902,-1.8591926097869873
1765792823800723500,4.575723388671875,-3.497936487197876,-8.970746040344238,-1.8602571487426758
1765792823810702600,4.58570263671875,-3.4992690086364746,-8.970197677612305,-1.8603966236114502
1765792823820712400,4.59571240234375,-3.501843214035034,-8.969402313232422,-1.8593891859054565
1765792823860751400,4.63575146484375,-3.5120201110839844,-8.96463680267334,-1.8631647825241089
1765792823880771000,4.65577099609375,-3.5142502784729004,-8.96298885345459,-1.8668906688690186
1765792823890750200,4.665750244140625,-3.515592336654663,-8.96220874786377,-1.8681190013885498
1765792823900760000,4.675760009765625,-3.516568183898926,-8.961494445800781,-1.8697006702423096
1765792823910769700,4.685769775390625,-3.5182337760925293,-8.960711479187012,-1.8703114986419678
1765792823920810000,4.69581005859375,-3.520573854446411,-8.959305763244629,-1.8726460933685303
1765792823940799000,4.715799072265625,-3.5233006477355957,-8.957658767700195,-1.8753958940505981
1765792823950808800,4.725808837890625,-3.5233609676361084,-8.957374572753906,-1.876634120941162
1765792823960818400,4.735818359375,-3.5245919227600098,-8.956524848937988,-1.8783890008926392
1765792823970828300,4.745828369140625,-3.526606559753418,-8.955405235290527,-1.8799341917037964
1765792823980838100,4.755838134765625,-3.5291123390197754,-8.954242706298828,-1.8807631731033325
1765792823990847700,4.76584765625,-3.5309479236602783,-8.953520774841309,-1.880764126777649
1765792824000888000,4.77588818359375,-3.5347976684570312,-8.95182991027832,-1.8815884590148926
1765792824010867500,4.785867431640625,-3.542126417160034,-8.948741912841797,-1.8824840784072876
1765792824020907800,4.79590771484375,-3.5474915504455566,-8.946748733520508,-1.881864070892334
1765792824040896800,4.815896728515625,-3.55759334564209,-8.942794799804688,-1.8815804719924927
1765792824050876000,4.8258759765625,-3.563105821609497,-8.94010066986084,-1.8839563131332397
1765792824060885800,4.8358857421875,-3.564753770828247,-8.939196586608887,-1.8851238489151
1765792824070865000,4.845864990234375,-3.5653810501098633,-8.938709259033203,-1.8862502574920654
1765792824080905200,4.8559052734375,-3.564032793045044,-8.938766479492188,-1.8885290622711182
1765792824090884400,4.86588427734375,-3.565610647201538,-8.938166618347168,-1.888375163078308
1765792824100894200,4.875894287109375,-3.5655221939086914,-8.938304901123047,-1.8878917694091797
1765792824110873600,4.88587353515625,-3.567215919494629,-8.93763256072998,-1.8878899812698364
1765792824120913700,4.89591357421875,-3.5687754154205322,-8.937125205993652,-1.8873248100280762
1765792824130923500,4.905923583984375,-3.571580171585083,-8.935917854309082,-1.8877475261688232
1765792824160922400,4.93592236328125,-3.577383518218994,-8.933659553527832,-1.887451171875
1765792824170901500,4.945901611328125,-3.5795018672943115,-8.932819366455078,-1.8874104022979736
1765792824180911400,4.955911376953125,-3.5812833309173584,-8.932134628295898,-1.8872805833816528
1765792824190890500,4.965890380859375,-3.5815958976745605,-8.932141304016113,-1.8866437673568726
1765792824200930800,4.975930908203125,-3.579033374786377,-8.93343448638916,-1.8853845596313477
1765792824210910200,4.98591015625,-3.5783066749572754,-8.934008598327637,-1.884040355682373
1765792824220950300,4.9959501953125,-3.5793373584747314,-8.933882713317871,-1.8826769590377808
1765792824230960000,5.005960205078125,-3.5804195404052734,-8.93348503112793,-1.8825069665908813
1765792824240970000,5.015969970703125,-3.580946207046509,-8.933323860168457,-1.8822673559188843
1765792824260959000,5.035958984375,-3.586768627166748,-8.931180000305176,-1.881353735923767
1765792824270938000,5.045938232421875,-3.588925838470459,-8.930356979370117,-1.8811544179916382
1765792824280978400,5.055978515625,-3.5931973457336426,-8.928712844848633,-1.8808026313781738
1765792824290988300,5.06598828125,-3.5943984985351562,-8.928116798400879,-1.8813337087631226
1765792824301028600,5.076028564453125,-3.594343423843384,-8.928214073181152,-1.880980372428894
1765792824311007700,5.0860078125,-3.5949625968933105,-8.92817497253418,-1.8799846172332764
1765792824330996700,5.105996826171875,-3.595900774002075,-8.928095817565918,-1.878579020500183
1765792824341006600,5.116006591796875,-3.596126079559326,-8.928183555603027,-1.877716064453125
1765792824350985700,5.12598583984375,-3.5975942611694336,-8.927558898925781,-1.8778798580169678
1765792824380984600,5.155984619140625,-3.6015450954437256,-8.926286697387695,-1.8763447999954224
1765792824390963700,5.165963623046875,-3.601722240447998,-8.92637825012207,-1.8755674362182617
1765792824401004000,5.176004150390625,-3.601165771484375,-8.92660903930664,-1.875548243522644
1765792824411014000,5.186013916015625,-3.5999507904052734,-8.92687702178955,-1.8765895366668701
1765792824421023700,5.196023681640625,-3.5976738929748535,-8.927807807922363,-1.876542329788208
1765792824430972400,5.205972412109375,-3.59645414352417,-8.928657531738281,-1.8748277425765991
1765792824440982000,5.21598193359375,-3.594902992248535,-8.92945384979248,-1.874006986618042
1765792824450961400,5.22596142578125,-3.5921247005462646,-8.930925369262695,-1.8723359107971191
1765792824460940500,5.2359404296875,-3.5898420810699463,-8.932059288024902,-1.8713098764419556
1765792824500949200,5.27594921875,-3.5880701541900635,-8.933220863342285,-1.8691563606262207
1765792824520968700,5.29596875,-3.5893781185150146,-8.932723045349121,-1.869017481803894
1765792824530947800,5.30594775390625,-3.589055299758911,-8.932953834533691,-1.8685368299484253
1765792824540927200,5.31592724609375,-3.589614152908325,-8.932378768920898,-1.8702033758163452
1765792824550876000,5.3258759765625,-3.590238332748413,-8.931994438171387,-1.8708492517471313
1765792824560916200,5.335916259765625,-3.589142084121704,-8.932371139526367,-1.871155858039856
1765792824570926000,5.345926025390625,-3.585952043533325,-8.933455467224121,-1.8720909357070923
1765792824580905200,5.3559052734375,-3.5856800079345703,-8.933494567871094,-1.872422218322754
1765792824590884400,5.36588427734375,-3.585266590118408,-8.933688163757324,-1.8722972869873047
1765792824600894200,5.375894287109375,-3.5861289501190186,-8.933526992797852,-1.8714134693145752
1765792824610873600,5.38587353515625,-3.586733102798462,-8.9331636428833,-1.8719853162765503
1765792824620883200,5.39588330078125,-3.5883095264434814,-8.932893753051758,-1.870252251625061
1765792824630893000,5.40589306640625,-3.5899388790130615,-8.931951522827148,-1.8716191053390503
1765792824640903000,5.41590283203125,-3.5905330181121826,-8.93171215057373,-1.87163245677948
1765792824650882000,5.425882080078125,-3.592019557952881,-8.93124771118164,-1.8709931373596191
1765792824660892000,5.435891845703125,-3.5896248817443848,-8.93189811706543,-1.8724809885025024
1765792824670871000,5.44587109375,-3.587573528289795,-8.932676315307617,-1.8727056980133057
1765792824710879500,5.48587939453125,-3.5665488243103027,-8.940007209777832,-1.8778789043426514
1765792824720889300,5.495889404296875,-3.562096118927002,-8.941417694091797,-1.8796135187149048
1765792824730899200,5.505899169921875,-3.558382511138916,-8.942870140075684,-1.8797342777252197
1765792824740908800,5.51590869140625,-3.555668830871582,-8.943802833557129,-1.8804218769073486
1765792824750918700,5.525918701171875,-3.5539910793304443,-8.944496154785156,-1.8803068399429321
1765792824760928500,5.535928466796875,-3.5489468574523926,-8.946419715881348,-1.8806778192520142
1765792824770907600,5.54590771484375,-3.5483694076538086,-8.946724891662598,-1.8803175687789917
1765792824790896600,5.565896728515625,-3.546154737472534,-8.94765567779541,-1.880065679550171
1765792824800906500,5.575906494140625,-3.5430943965911865,-8.948941230773926,-1.879712700843811
1765792824810885600,5.5858857421875,-3.5381886959075928,-8.950760841369629,-1.8802937269210815
1765792824820895500,5.5958955078125,-3.5354702472686768,-8.95184326171875,-1.880244493484497
1765792824830905300,5.6059052734375,-3.533435106277466,-8.952798843383789,-1.8795342445373535
1765792824840915000,5.6159150390625,-3.5320239067077637,-8.953546524047852,-1.87863290309906
1765792824850894300,5.625894287109375,-3.532158613204956,-8.953548431396484,-1.878365159034729
1765792824860904000,5.635904052734375,-3.529222011566162,-8.955209732055664,-1.875954031944275
1765792824870913800,5.645913818359375,-3.529653310775757,-8.955018997192383,-1.876064419746399
1765792824910891800,5.685891845703125,-3.5227842330932617,-8.959053039550781,-1.869687557220459
1765792824920901600,5.695901611328125,-3.5169384479522705,-8.961721420288086,-1.8679014444351196
1765792824930880800,5.705880859375,-3.510857343673706,-8.964082717895508,-1.8680291175842285
1765792824940890600,5.715890625,-3.503894805908203,-8.966492652893066,-1.8695294857025146
1765792824950869800,5.725869873046875,-3.499788999557495,-8.968095779418945,-1.8695322275161743
1765792824960879600,5.735879638671875,-3.4967141151428223,-8.969280242919922,-1.8696110248565674
1765792824970858800,5.745858642578125,-3.4934186935424805,-8.970131874084473,-1.8716779947280884
1765792824980868600,5.75586865234375,-3.489084243774414,-8.971220016479492,-1.8745425939559937
1765792825010898000,5.78589794921875,-3.474370002746582,-8.975557327270508,-1.8811019659042358
1765792825020877000,5.795876953125,-3.472379446029663,-8.976338386535645,-1.8810431957244873
1765792825030887000,5.805886962890625,-3.4682769775390625,-8.977806091308594,-1.8815995454788208
1765792825040896800,5.815896728515625,-3.4657530784606934,-8.9788818359375,-1.881121039390564
1765792825050876000,5.8258759765625,-3.4646553993225098,-8.979424476623535,-1.880564570426941
1765792825060885800,5.8358857421875,-3.462899923324585,-8.980627059936523,-1.8780560493469238
1765792825070834400,5.84583447265625,-3.463602304458618,-8.980840682983398,-1.875732421875
1765792825080844300,5.85584423828125,-3.4639761447906494,-8.981303215026855,-1.8728299140930176
1765792825110812400,5.8858125,-3.4619648456573486,-8.982131958007812,-1.872568964958191
1765792825140811300,5.915811279296875,-3.4603450298309326,-8.98259162902832,-1.87335205078125
1765792825150790400,5.925790283203125,-3.457460880279541,-8.98352336883545,-1.8742098808288574
1765792825160800300,5.93580029296875,-3.456566333770752,-8.983933448791504,-1.873900055885315
1765792825170779400,5.945779296875,-3.4521541595458984,-8.985389709472656,-1.8750494718551636
1765792825180789200,5.955789306640625,-3.4500603675842285,-8.985845565795898,-1.8767200708389282
1765792825190799000,5.965799072265625,-3.4442896842956543,-8.98790168762207,-1.8774737119674683
1765792825220828400,5.995828369140625,-3.4327611923217773,-8.991573333740234,-1.8810031414031982
1765792825240817400,6.0158173828125,-3.4299979209899902,-8.992185592651367,-1.883104681968689
1765792825250827000,6.025826904296875,-3.4323818683624268,-8.991276741027832,-1.8831064701080322
1765792825260836900,6.0358369140625,-3.4506115913391113,-8.984426498413086,-1.882494568824768
1765792825270816000,6.04581591796875,-3.4570512771606445,-8.982709884643555,-1.8788731098175049
1765792825280856300,6.055856201171875,-3.4617362022399902,-8.982158660888672,-1.8728713989257812
1765792825290866200,6.0658662109375,-3.464128017425537,-8.982614517211914,-1.8662526607513428
1765792825300906500,6.075906494140625,-3.466576099395752,-8.98277759552002,-1.860908031463623
1765792825330874600,6.10587451171875,-3.471054792404175,-8.98365592956543,-1.8482784032821655
1765792825340884500,6.115884521484375,-3.477783203125,-8.981585502624512,-1.8456846475601196
1765792825350863600,6.125863525390625,-3.4806554317474365,-8.980813026428223,-1.844035267829895
1765792825360904000,6.135904052734375,-3.4810304641723633,-8.980487823486328,-1.8449007272720337
1765792825370913800,6.145913818359375,-3.4797511100769043,-8.9810209274292,-1.8447265625
1765792825380923600,6.155923583984375,-3.4794793128967285,-8.98097038269043,-1.8454803228378296
1765792825390933200,6.165933349609375,-3.476747989654541,-8.98177719116211,-1.8467034101486206
1765792825400943000,6.175943115234375,-3.473447561264038,-8.98241138458252,-1.8498157262802124
1765792825430942000,6.20594189453125,-3.4678280353546143,-8.98311710357666,-1.8569413423538208
1765792825440982000,6.21598193359375,-3.4676291942596436,-8.982877731323242,-1.8584548234939575
1765792825450991900,6.225991943359375,-3.4676733016967773,-8.982693672180176,-1.8592653274536133
1765792825461001700,6.236001708984375,-3.466738224029541,-8.982918739318848,-1.8599251508712769
1765792825470980900,6.24598095703125,-3.4662926197052,-8.983084678649902,-1.859940767288208
1765792825481021200,6.256021240234375,-3.4650866985321045,-8.983663558959961,-1.8593982458114624
1765792825491031000,6.266031005859375,-3.464811325073242,-8.983994483947754,-1.8583163022994995
1765792825501071400,6.2760712890625,-3.4642391204833984,-8.984598159790039,-1.8564586639404297
1765792825541079800,6.316079833984375,-3.4660685062408447,-8.985641479492188,-1.847976803779602
1765792825551089700,6.326089599609375,-3.467374324798584,-8.98546028137207,-1.8464064598083496
1765792825561099300,6.336099365234375,-3.4683837890625,-8.984987258911133,-1.8468114137649536
1765792825571109000,6.346109130859375,-3.4690725803375244,-8.984749794006348,-1.8466753959655762
1765792825581119000,6.356118896484375,-3.4684431552886963,-8.98475456237793,-1.8478230237960815
1765792825591128600,6.366128662109375,-3.4676408767700195,-8.98473072052002,-1.8494632244110107
1765792825601169000,6.3761689453125,-3.4680206775665283,-8.984140396118164,-1.8516054153442383
1765792825631167700,6.406167724609375,-3.4706523418426514,-8.982891082763672,-1.8527348041534424
1765792825641177300,6.41617724609375,-3.472116708755493,-8.981990814208984,-1.8543522357940674
1765792825651187200,6.426187255859375,-3.4736111164093018,-8.981505393981934,-1.8539201021194458
1765792825661197000,6.436197021484375,-3.4743242263793945,-8.981531143188477,-1.852455973625183
1765792825671176200,6.44617626953125,-3.474599838256836,-8.981673240661621,-1.851249098777771
1765792825681216500,6.456216552734375,-3.475742816925049,-8.981851577758789,-1.8482394218444824
1765792825691195600,6.466195556640625,-3.4771783351898193,-8.981719970703125,-1.8461734056472778
1765792825701236000,6.476236083984375,-3.478153705596924,-8.981782913208008,-1.8440178632736206
1765792825711185000,6.486184814453125,-3.479358196258545,-8.981934547424316,-1.8410083055496216
1765792825751223800,6.526223876953125,-3.4812653064727783,-8.982292175292969,-1.8356467485427856
1765792825761233700,6.536233642578125,-3.482642650604248,-8.981900215148926,-1.8349640369415283
1765792825771243300,6.5462431640625,-3.483949661254883,-8.981118202209473,-1.836306095123291
1765792825781222700,6.55622265625,-3.485233783721924,-8.980423927307129,-1.837265968322754
1765792825791201800,6.566201904296875,-3.487058639526367,-8.979537963867188,-1.8381198644638062
1765792825801242000,6.5762421875,-3.48876690864563,-8.978659629821777,-1.8391748666763306
1765792825811221500,6.586221435546875,-3.488828182220459,-8.978409767150879,-1.8402708768844604
1765792825821261600,6.596261474609375,-3.487863302230835,-8.978714942932129,-1.840613603591919
1765792825851291000,6.626290771484375,-3.4882328510284424,-8.97832202911377,-1.841839075088501
1765792825861300700,6.63630078125,-3.49019455909729,-8.977275848388672,-1.8432193994522095
1765792825871279900,6.64627978515625,-3.4897327423095703,-8.977302551269531,-1.8439676761627197
1765792825881289700,6.656289794921875,-3.4895949363708496,-8.977334976196289,-1.844069004058838
1765792825891299600,6.666299560546875,-3.490598440170288,-8.976969718933105,-1.8439515829086304
1765792825901309200,6.67630908203125,-3.48775577545166,-8.978137969970703,-1.8436380624771118
1765792825911288600,6.68628857421875,-3.4876718521118164,-8.978063583374023,-1.844164490699768
1765792825921298200,6.696298095703125,-3.486849546432495,-8.97868537902832,-1.8426820039749146
1765792825931308000,6.70630810546875,-3.4916255474090576,-8.977023124694824,-1.8417489528656006
1765792825961307000,6.736306884765625,-3.4999587535858154,-8.974685668945312,-1.8373078107833862
1765792825971316500,6.74631640625,-3.5008156299591064,-8.974403381347656,-1.8370541334152222
1765792825981295900,6.7562958984375,-3.503016471862793,-8.973871231079102,-1.8354554176330566
1765792825991305700,6.7663056640625,-3.5058960914611816,-8.973018646240234,-1.8341177701950073
1765792826001315300,6.7763154296875,-3.5086684226989746,-8.97212028503418,-1.8332206010818481
1765792826011325200,6.7863251953125,-3.5107028484344482,-8.971357345581055,-1.8330683708190918
1765792826021335000,6.7963349609375,-3.5109188556671143,-8.97113037109375,-1.8337639570236206
1765792826031314200,6.806314208984375,-3.512756586074829,-8.970404624938965,-1.8337905406951904
1765792826061374000,6.8363740234375,-3.5120174884796143,-8.970271110534668,-1.835863709449768
1765792826071322600,6.846322509765625,-3.5109174251556396,-8.970549583435059,-1.8366031646728516
1765792826081363000,6.856363037109375,-3.506699323654175,-8.97169303894043,-1.8390737771987915
1765792826091372800,6.866372802734375,-3.5052084922790527,-8.972225189208984,-1.8393117189407349
1765792826101352000,6.87635205078125,-3.5044443607330322,-8.972392082214355,-1.839953899383545
1765792826111361800,6.88636181640625,-3.503572463989258,-8.97252368927002,-1.8409764766693115
1765792826121371600,6.89637158203125,-3.5023245811462402,-8.972881317138672,-1.8416050672531128
1765792826131320300,6.9063203125,-3.501375913619995,-8.973292350769043,-1.84140944480896
1765792826171359200,6.946359130859375,-3.5016465187072754,-8.972277641296387,-1.8458360433578491
1765792826181338600,6.956338623046875,-3.4992854595184326,-8.972834587097168,-1.847599744796753
1765792826191348200,6.96634814453125,-3.4960596561431885,-8.97355842590332,-1.8501923084259033
1765792826201358000,6.976358154296875,-3.491917133331299,-8.974366188049316,-1.854100227355957
1765792826211337500,6.98633740234375,-3.4878084659576416,-8.975422859191895,-1.8567219972610474
1765792826221347000,6.99634716796875,-3.4845168590545654,-8.976239204406738,-1.8589465618133545
1765792826231326500,7.006326416015625,-3.4819324016571045,-8.977025032043457,-1.8599897623062134
1765792826241366500,7.016366455078125,-3.4770667552948,-8.978038787841797,-1.8641912937164307
1765792826291324000,7.066323974609375,-3.4494426250457764,-8.985562324523926,-1.8792060613632202
1765792826301303300,7.07630322265625,-3.4452388286590576,-8.987051010131836,-1.879792332649231
1765792826311313000,7.08631298828125,-3.437661647796631,-8.989493370056152,-1.8819962739944458
1765792826321322800,7.09632275390625,-3.433711528778076,-8.990813255310059,-1.8828974962234497
1765792826331332400,7.106332275390625,-3.4304327964782715,-8.99199104309082,-1.883252739906311
1765792826341342200,7.11634228515625,-3.427700996398926,-8.993030548095703,-1.8832621574401855
1765792826351321600,7.126321533203125,-3.4261767864227295,-8.993524551391602,-1.8836692571640015
1765792826381320200,7.1563203125,-3.414330244064331,-8.997472763061523,-1.8863345384597778
1765792826391330000,7.166330078125,-3.4118731021881104,-8.998223304748535,-1.8872002363204956
1765792826401370400,7.176370361328125,-3.4110143184661865,-8.998427391052246,-1.887774109840393
1765792826411380000,7.1863798828125,-3.4077930450439453,-8.999470710754395,-1.8886197805404663
1765792826421389800,7.196389892578125,-3.40346360206604,-9.000940322875977,-1.8894273042678833
1765792826431399700,7.206399658203125,-3.3990237712860107,-9.002340316772461,-1.8907338380813599
1765792826441409300,7.2164091796875,-3.39280104637146,-9.00356388092041,-1.8960962295532227
1765792826451419100,7.226419189453125,-3.3884658813476562,-9.004786491394043,-1.8980296850204468
1765792826481448400,7.256448486328125,-3.376224994659424,-9.006855010986328,-1.9099934101104736
1765792826501468000,7.276468017578125,-3.3675291538238525,-9.008135795593262,-1.9192765951156616
1765792826511447300,7.286447265625,-3.3716890811920166,-9.006054878234863,-1.9217580556869507
1765792826521457000,7.296456787109375,-3.378584861755371,-9.003378868103027,-1.9221709966659546
1765792826531436300,7.306436279296875,-3.3841559886932373,-9.001483917236328,-1.9212473630905151
1765792826541446000,7.31644580078125,-3.387366771697998,-9.000651359558105,-1.9194817543029785
1765792826551425300,7.32642529296875,-3.388314723968506,-9.001728057861328,-1.9127564430236816
1765792826561435100,7.33643505859375,-3.3865697383880615,-9.003280639648438,-1.908530592918396
1765792826591372800,7.366372802734375,-3.396169900894165,-9.001588821411133,-1.8994288444519043
1765792826601382400,7.37638232421875,-3.398240327835083,-9.000994682312012,-1.8985414505004883
1765792826621371600,7.39637158203125,-3.406153440475464,-8.998978614807129,-1.8939108848571777
1765792826631381200,7.40638134765625,-3.411252021789551,-8.997550010681152,-1.8915258646011353
1765792826641421600,7.416421630859375,-3.413587808609009,-8.996947288513184,-1.8901748657226562
1765792826651431400,7.426431396484375,-3.413045644760132,-8.997350692749023,-1.8892364501953125
1765792826661441000,7.43644091796875,-3.411933422088623,-8.99808120727539,-1.887760043144226
1765792826671390000,7.446389892578125,-3.412647008895874,-8.99769401550293,-1.8883154392242432
1765792826681399600,7.456399658203125,-3.4141266345977783,-8.996377944946289,-1.8919199705123901
1765792826691409400,7.466409423828125,-3.4156203269958496,-8.995676040649414,-1.8925516605377197
1765792826701419300,7.476419189453125,-3.41762375831604,-8.99438762664795,-1.8950538635253906
1765792826711398400,7.4863984375,-3.4191441535949707,-8.993040084838867,-1.8987023830413818
1765792826721408300,7.496408203125,-3.4202332496643066,-8.992205619812012,-1.90070378780365
1765792826731387400,7.506387451171875,-3.4216814041137695,-8.991460800170898,-1.9016096591949463
1765792826741397200,7.516397216796875,-3.4230730533599854,-8.990913391113281,-1.9016973972320557
1765792826751376400,7.52637646484375,-3.424647092819214,-8.990379333496094,-1.9013851881027222
1765792826761386200,7.53638623046875,-3.426445484161377,-8.98998737335205,-1.9000052213668823
1765792826771395800,7.546395751953125,-3.428919792175293,-8.989380836486816,-1.8984074592590332
1765792826781405700,7.55640576171875,-3.4330029487609863,-8.988390922546387,-1.8957128524780273
1765792826801455900,7.576455810546875,-3.4419729709625244,-8.986424446105957,-1.8887542486190796
1765792826811465500,7.586465576171875,-3.4447813034057617,-8.985912322998047,-1.8860708475112915
1765792826821475300,7.596475341796875,-3.4474565982818604,-8.98515510559082,-1.8847901821136475
1765792826831454500,7.606454345703125,-3.4517695903778076,-8.984070777893066,-1.8820629119873047
1765792826841464300,7.61646435546875,-3.456087350845337,-8.982762336730957,-1.8803836107254028
1765792826851474200,7.62647412109375,-3.4595484733581543,-8.981704711914062,-1.8790735006332397
1765792826861453300,7.636453369140625,-3.46126127243042,-8.98105525970459,-1.8790205717086792
1765792826871463200,7.646463134765625,-3.4634199142456055,-8.980391502380371,-1.8782213926315308
1765792826881472800,7.65647265625,-3.4656264781951904,-8.979613304138184,-1.8778635263442993
1765792826891482600,7.666482666015625,-3.4688720703125,-8.978471755981445,-1.8773362636566162
1765792826901523000,7.67652294921875,-3.470670700073242,-8.977620124816895,-1.8780829906463623
1765792826911502000,7.686502197265625,-3.469475507736206,-8.977802276611328,-1.8794223070144653
1765792826921542400,7.69654248046875,-3.4689226150512695,-8.977980613708496,-1.8795768022537231
1765792826931521800,7.706521728515625,-3.4666898250579834,-8.978494644165039,-1.8812482357025146
1765792826941531400,7.716531494140625,-3.4644434452056885,-8.979135513305664,-1.882328748703003
1765792826951541200,7.726541259765625,-3.4622678756713867,-8.979691505432129,-1.8836842775344849
1765792826971560700,7.746560791015625,-3.458705186843872,-8.980698585510254,-1.8854238986968994
1765792827001590000,7.776590087890625,-3.4546871185302734,-8.982501029968262,-1.8842010498046875
1765792827011600000,7.786599853515625,-3.4563379287719727,-8.982247352600098,-1.8823760747909546
1765792827021609500,7.796609375,-3.4581329822540283,-8.981941223144531,-1.880545973777771
1765792827031588900,7.8065888671875,-3.4596381187438965,-8.981819152832031,-1.8783683776855469
1765792827041598500,7.816598388671875,-3.4616026878356934,-8.981552124023438,-1.87600576877594
1765792827051608300,7.8266083984375,-3.4626312255859375,-8.98173713684082,-1.8732343912124634
1765792827061618200,7.8366181640625,-3.463735580444336,-8.981924057006836,-1.8702855110168457
1765792827071597300,7.846597412109375,-3.46661639213562,-8.981517791748047,-1.866907000541687
1765792827081607200,7.856607177734375,-3.467689275741577,-8.981266975402832,-1.866109848022461
1765792827111606000,7.88660595703125,-3.4763176441192627,-8.977803230285645,-1.8667305707931519
1765792827121646000,7.89664599609375,-3.476930618286133,-8.9773588180542,-1.8677181005477905
1765792827151645000,7.92664501953125,-3.479779005050659,-8.976168632507324,-1.8681308031082153
1765792827171664400,7.946664306640625,-3.476916790008545,-8.976882934570312,-1.870032548904419
1765792827181643800,7.956643798828125,-3.478363513946533,-8.976054191589355,-1.8713148832321167
1765792827191623000,7.966622802734375,-3.4795961380004883,-8.975907325744629,-1.8697375059127808
1765792827221621800,7.996621826171875,-3.482473850250244,-8.975129127502441,-1.8681074380874634
1765792827231601200,8.00660107421875,-3.483165740966797,-8.97499942779541,-1.8674533367156982
1765792827241672000,8.016671875,-3.4830689430236816,-8.975152015686035,-1.8668922185897827
1765792827251651000,8.026651123046875,-3.4835071563720703,-8.975025177001953,-1.8666791915893555
1765792827261691400,8.03669140625,-3.485238790512085,-8.97452163696289,-1.8658697605133057
1765792827271670500,8.04667041015625,-3.4865670204162598,-8.974145889282227,-1.8651983737945557
1765792827281710800,8.0567109375,-3.486361265182495,-8.974095344543457,-1.8658219575881958
1765792827291720700,8.066720703125,-3.485306739807129,-8.97452163696289,-1.865739107131958
1765792827301730300,8.076730224609374,-3.4853827953338623,-8.973962783813477,-1.8682936429977417
1765792827331759600,8.106759521484374,-3.479186534881592,-8.975380897521973,-1.8730167150497437
1765792827341739000,8.116739013671875,-3.4789745807647705,-8.975397109985352,-1.8733305931091309
1765792827351748600,8.12674853515625,-3.4793105125427246,-8.975190162658691,-1.873697280883789
1765792827361789000,8.136788818359374,-3.479818344116211,-8.97497272491455,-1.8738057613372803
1765792827371737900,8.14673779296875,-3.480560541152954,-8.974886894226074,-1.872839093208313
1765792827381778000,8.15677783203125,-3.481847047805786,-8.974780082702637,-1.8709545135498047
1765792827391757300,8.16675732421875,-3.481215715408325,-8.975396156311035,-1.8691701889038086
1765792827401736400,8.176736328125,-3.481208324432373,-8.975393295288086,-1.8691951036453247
1765792827411746300,8.186746337890625,-3.4801881313323975,-8.97607707977295,-1.8678127527236938
1765792827451785500,8.226785400390625,-3.482358455657959,-8.976062774658203,-1.8638381958007812
1765792827461795000,8.236795166015625,-3.4821367263793945,-8.976401329040527,-1.862619400024414
1765792827471774500,8.2467744140625,-3.481760263442993,-8.97628402709961,-1.8638856410980225
1765792827481814500,8.256814453125,-3.480921983718872,-8.976555824279785,-1.864142894744873
1765792827491794000,8.2667939453125,-3.48026180267334,-8.976958274841309,-1.8634333610534668
1765792827501773000,8.27677294921875,-3.47967791557312,-8.976974487304688,-1.8644500970840454
1765792827511783000,8.286782958984375,-3.4791905879974365,-8.977078437805176,-1.8648666143417358
1765792827541781800,8.31678173828125,-3.478656530380249,-8.976719856262207,-1.8675808906555176
1765792827551761000,8.326760986328125,-3.475379467010498,-8.977682113647461,-1.869054913520813
1765792827561740300,8.336740234375,-3.4742040634155273,-8.978059768676758,-1.8694267272949219
1765792827571750000,8.34675,-3.474062442779541,-8.978240966796875,-1.8688160181045532
1765792827581759700,8.356759765625,-3.4737958908081055,-8.978497505187988,-1.868082046508789
1765792827591739000,8.36673876953125,-3.47346830368042,-8.979053497314453,-1.8660184144973755
1765792827601748700,8.376748779296875,-3.4739739894866943,-8.979104042053223,-1.8648372888565063
1765792827611758600,8.386758544921875,-3.475248336791992,-8.979242324829102,-1.8617805242538452
1765792827641818400,8.416818359375,-3.4780919551849365,-8.979761123657227,-1.8539637327194214
1765792827651828000,8.426827880859374,-3.478027582168579,-8.98041820526123,-1.8509036302566528
1765792827661837800,8.436837890625,-3.4788658618927,-8.9804048538208,-1.8493902683258057
1765792827671847700,8.44684765625,-3.479220390319824,-8.980550765991211,-1.848015546798706
1765792827681857300,8.456857177734374,-3.4797024726867676,-8.980751037597656,-1.8461225032806396
1765792827691867100,8.4668671875,-3.4818837642669678,-8.979701042175293,-1.8471157550811768
1765792827701877000,8.476876953125,-3.482079267501831,-8.979476928710938,-1.84784996509552
1765792827711856000,8.486856201171875,-3.482067584991455,-8.979464530944824,-1.8479280471801758
1765792827741855000,8.51685498046875,-3.481973171234131,-8.979071617126465,-1.8500062227249146
1765792827751834000,8.526834228515625,-3.4812467098236084,-8.97951602935791,-1.849220633506775
1765792827761874400,8.53687451171875,-3.4822473526000977,-8.979249954223633,-1.8486311435699463
1765792827771853800,8.546853759765625,-3.4826340675354004,-8.979092597961426,-1.8486742973327637
1765792827781894000,8.556893798828124,-3.48384428024292,-8.978473663330078,-1.8493913412094116
1765792827791903700,8.56690380859375,-3.4855384826660156,-8.977781295776367,-1.8495630025863647
1765792827801913600,8.57691357421875,-3.4850759506225586,-8.977850914001465,-1.8500919342041016
1765792827811923200,8.586923095703124,-3.485257625579834,-8.977726936340332,-1.8503491878509521
1765792827831912200,8.606912109375,-3.486171007156372,-8.977572441101074,-1.8493815660476685
1765792827841922000,8.616922119140625,-3.484936237335205,-8.978313446044922,-1.8481014966964722
1765792827851870700,8.62687060546875,-3.483052968978882,-8.979104042053223,-1.8478147983551025
1765792827861880600,8.636880615234375,-3.4828102588653564,-8.979327201843262,-1.8471990823745728
1765792827871859700,8.646859619140624,-3.4833953380584717,-8.979208946228027,-1.8466728925704956
1765792827881900000,8.656900146484375,-3.4837183952331543,-8.979354858398438,-1.845342993736267
1765792827891910000,8.666909912109375,-3.4838008880615234,-8.979206085205078,-1.8459056615829468
1765792827901919700,8.676919677734375,-3.4843220710754395,-8.979129791259766,-1.8452973365783691
1765792827921908700,8.69690869140625,-3.4836814403533936,-8.979331016540527,-1.8455309867858887
1765792827941928200,8.71692822265625,-3.4820973873138428,-8.979798316955566,-1.8462424278259277
1765792827951938000,8.72693798828125,-3.4808454513549805,-8.980409622192383,-1.845633625984192
1765792827961947600,8.73694775390625,-3.4796860218048096,-8.980740547180176,-1.8462142944335938
1765792827971957500,8.74695751953125,-3.4782555103302,-8.981197357177734,-1.8466901779174805
1765792827981967400,8.75696728515625,-3.477919340133667,-8.981332778930664,-1.8466657400131226
1765792827991946500,8.766946533203125,-3.4790475368499756,-8.980809211730957,-1.847072958946228
1765792828001925600,8.776925537109374,-3.4790024757385254,-8.980738639831543,-1.8474959135055542
1765792828011905000,8.786905029296875,-3.4785971641540527,-8.980937004089355,-1.847307801246643
1765792828021914600,8.79691455078125,-3.4785473346710205,-8.98105525970459,-1.8468278646469116
1765792828031924500,8.806924560546875,-3.4783504009246826,-8.98116397857666,-1.8466562032699585
1765792828061953800,8.836953857421875,-3.479475736618042,-8.981030464172363,-1.84520423412323
1765792828071963600,8.846963623046875,-3.4799695014953613,-8.980790138244629,-1.845428228378296
1765792828081973200,8.85697314453125,-3.479990243911743,-8.980446815490723,-1.8470548391342163
1765792828091983000,8.866983154296875,-3.4792943000793457,-8.981053352355957,-1.8454269170761108
1765792828101993000,8.876992919921875,-3.4791147708892822,-8.981106758117676,-1.8455102443695068
1765792828112002600,8.88700244140625,-3.479206085205078,-8.980788230895996,-1.8468869924545288
1765792828122012400,8.897012451171875,-3.479907989501953,-8.980688095092773,-1.8460431098937988
1765792828131991600,8.906991455078124,-3.4799580574035645,-8.980731010437012,-1.8457481861114502
1765792828142001400,8.91700146484375,-3.4797959327697754,-8.980894088745117,-1.8452441692352295
1765792828172000300,8.947000244140625,-3.4764134883880615,-8.982491493225098,-1.843857765197754
1765792828181979400,8.9569794921875,-3.4759984016418457,-8.982649803161621,-1.8438644409179688
1765792828191989200,8.9669892578125,-3.4739460945129395,-8.983421325683594,-1.8439797163009644
1765792828201999000,8.9769990234375,-3.4732038974761963,-8.983562469482422,-1.8446847200393677
1765792828212008700,8.9870087890625,-3.473642110824585,-8.983123779296875,-1.8459956645965576
1765792828222018600,8.9970185546875,-3.4729762077331543,-8.983025550842285,-1.8477301597595215
1765792828232028200,9.007028076171874,-3.472201347351074,-8.983068466186523,-1.8489724397659302
1765792828242068500,9.017068359375,-3.471363067626953,-8.983258247375488,-1.849627137184143
1765792828252048000,9.0270478515625,-3.4706664085388184,-8.983251571655273,-1.85097074508667
1765792828282046500,9.05704638671875,-3.4701015949249268,-8.98302936553955,-1.8530964851379395
1765792828292056300,9.067056396484375,-3.4698708057403564,-8.983016014099121,-1.8536038398742676
1765792828302066200,9.077066162109375,-3.4703967571258545,-8.982900619506836,-1.853170394897461
1765792828312075800,9.08707568359375,-3.4704394340515137,-8.982843399047852,-1.8533589839935303
1765792828322085600,9.097085693359375,-3.4711525440216064,-8.98279857635498,-1.8522471189498901
1765792828332065000,9.10706494140625,-3.4693899154663086,-8.983428955078125,-1.852487564086914
1765792828342074600,9.11707470703125,-3.4690287113189697,-8.9837646484375,-1.851548671722412
1765792828352084500,9.12708447265625,-3.470501184463501,-8.983418464660645,-1.8504672050476074
1765792828362094000,9.137093994140624,-3.471302032470703,-8.983305931091309,-1.8495031595230103
1765792828392062500,9.1670625,-3.4702095985412598,-8.984233856201172,-1.8470497131347656
1765792828402133200,9.17713330078125,-3.469820261001587,-8.984174728393555,-1.8480652570724487
1765792828412143000,9.18714306640625,-3.4688522815704346,-8.984443664550781,-1.8485690355300903
1765792828422152700,9.197152587890624,-3.4686853885650635,-8.984362602233887,-1.849290370941162
1765792828432162600,9.20716259765625,-3.466756820678711,-8.984761238098145,-1.8509596586227417
1765792828442172400,9.21717236328125,-3.4660840034484863,-8.984895706176758,-1.8515689373016357
1765792828452151600,9.227151611328125,-3.4661076068878174,-8.9846830368042,-1.8525594472885132
1765792828462191900,9.23719189453125,-3.4654505252838135,-8.98462963104248,-1.85404634475708
1765792828472201700,9.24720166015625,-3.4663705825805664,-8.984375953674316,-1.8535605669021606
1765792828492221200,9.26722119140625,-3.465548515319824,-8.984468460083008,-1.854637622833252
1765792828512271000,9.28727099609375,-3.4654452800750732,-8.984663963317871,-1.8538850545883179
1765792828522281000,9.297281005859375,-3.465061664581299,-8.98484992980957,-1.8536990880966187
1765792828532260000,9.307260009765624,-3.465191602706909,-8.984911918640137,-1.853163242340088
1765792828542270000,9.31727001953125,-3.465094566345215,-8.985004425048828,-1.8529027700424194
1765792828552218600,9.327218505859374,-3.464986801147461,-8.985150337219238,-1.852389931678772
1765792828562289400,9.337289306640624,-3.4651684761047363,-8.985159873962402,-1.8519960641860962
1765792828572299300,9.34729931640625,-3.4653379917144775,-8.984701156616211,-1.8539162874221802
1765792828582339600,9.357339599609375,-3.466656446456909,-8.984298706054688,-1.8533878326416016
1765792828592349400,9.367349365234375,-3.4658374786376953,-8.984503746032715,-1.853938341140747
1765792828602359000,9.377359130859375,-3.466001272201538,-8.984533309936523,-1.8534867763519287
1765792828612338400,9.38733837890625,-3.464618444442749,-8.985063552856445,-1.853501319885254
1765792828622378500,9.39737841796875,-3.4646382331848145,-8.984994888305664,-1.8537927865982056
1765792828632388400,9.407388427734375,-3.4637033939361572,-8.98532772064209,-1.853929877281189
1765792828642398200,9.417398193359375,-3.461747169494629,-8.986197471618652,-1.853366732597351
1765792828652377300,9.42737744140625,-3.4593899250030518,-8.987000465393066,-1.8538727760314941
1765792828662356700,9.437356689453125,-3.459972381591797,-8.986977577209473,-1.8529038429260254
1765792828672366300,9.447366455078125,-3.459752082824707,-8.987292289733887,-1.8517831563949585
1765792828682376200,9.457376220703125,-3.4593069553375244,-8.987411499023438,-1.8520395755767822
1765792828712405500,9.487405517578125,-3.4588100910186768,-8.98844051361084,-1.8479646444320679
1765792828722415400,9.497415283203125,-3.459850788116455,-8.988136291503906,-1.8474981784820557
1765792828732425000,9.507425048828125,-3.4600377082824707,-8.988168716430664,-1.8469915390014648
1765792828742434800,9.517434814453125,-3.4594879150390625,-8.988304138183594,-1.847359538078308
1765792828752444400,9.5274443359375,-3.4583675861358643,-8.988630294799805,-1.847866415977478
1765792828762454300,9.537454345703125,-3.4556167125701904,-8.989697456359863,-1.8478233814239502
1765792828772433700,9.54743359375,-3.4514265060424805,-8.991376876831055,-1.8474889993667603
1765792828782473700,9.5574736328125,-3.4485511779785156,-8.992685317993164,-1.8464821577072144
1765792828802493400,9.577493408203125,-3.441349983215332,-8.995600700378418,-1.845724105834961
1765792828812472600,9.58747265625,-3.4386768341064453,-8.996811866760254,-1.8447924852371216
1765792828822482400,9.597482421875,-3.4382879734039307,-8.997143745422363,-1.843902349472046
1765792828832492000,9.607491943359374,-3.4353103637695312,-8.998635292053223,-1.8421695232391357
1765792828842471400,9.617471435546875,-3.432610034942627,-9.000028610229492,-1.840407133102417
1765792828852450600,9.627450439453124,-3.4262561798095703,-9.002695083618164,-1.839193344116211
1765792828862491000,9.637490966796875,-3.4187729358673096,-9.005789756774902,-1.8379838466644287
1765792828872500700,9.647500732421875,-3.4100730419158936,-9.009195327758789,-1.8374571800231934
1765792828882510300,9.65751025390625,-3.400446891784668,-9.01272964477539,-1.8379615545272827
1765792828922549500,9.697549560546875,-3.3802380561828613,-9.020365715026855,-1.837776780128479
1765792828932559400,9.707559326171875,-3.3776187896728516,-9.021172523498535,-1.8386276960372925
1765792828942569000,9.71756884765625,-3.3720948696136475,-9.023188591003418,-1.838871717453003
1765792828952548400,9.72754833984375,-3.365675449371338,-9.025714874267578,-1.838222622871399
1765792828962558000,9.737557861328124,-3.3591504096984863,-9.028406143188477,-1.8369545936584473
1765792828972537300,9.747537353515625,-3.352972984313965,-9.030898094177246,-1.8359928131103516
1765792828982547200,9.757547119140625,-3.3469038009643555,-9.033341407775879,-1.8350396156311035
1765792828992556800,9.767556884765625,-3.338644504547119,-9.03646469116211,-1.834707260131836
1765792829022525200,9.797525146484375,-3.316058397293091,-9.045563697814941,-1.8308262825012207
1765792829032504300,9.80750439453125,-3.3068628311157227,-9.049324035644531,-1.8288731575012207
1765792829042514200,9.81751416015625,-3.3009886741638184,-9.05163860321045,-1.8280411958694458
1765792829052523800,9.827523681640624,-3.2785372734069824,-9.060293197631836,-1.8255624771118164
1765792829062503200,9.837503173828125,-3.2436563968658447,-9.073735237121582,-1.821109652519226
1765792829072512800,9.8475126953125,-3.184494972229004,-9.096590042114258,-1.8114867210388184
1765792829082522600,9.857522705078125,-3.1452858448028564,-9.111590385437012,-1.8045985698699951
1765792829092532500,9.867532470703125,-3.1074421405792236,-9.126094818115234,-1.7968429327011108
1765792829102542000,9.8775419921875,-3.0735526084899902,-9.139032363891602,-1.7893458604812622
1765792829122561800,9.897561767578125,-3.029806137084961,-9.155352592468262,-1.780494213104248
1765792829132571400,9.9075712890625,-3.0002849102020264,-9.16612720489502,-1.7750461101531982
1765792829142581200,9.917581298828125,-2.9903762340545654,-9.169825553894043,-1.7726596593856812
1765792829152560400,9.927560302734374,-2.9819698333740234,-9.172493934631348,-1.7730246782302856
1765792829162600700,9.9376005859375,-2.976801633834839,-9.173948287963867,-1.7741835117340088
1765792829172549600,9.947549560546875,-2.969007730484009,-9.17556381225586,-1.7788848876953125
1765792829182589700,9.957589599609374,-2.9662396907806396,-9.17542839050293,-1.784177541732788
1765792829192569000,9.967569091796875,-2.96283221244812,-9.17591667175293,-1.7873419523239136
1765792829222598400,9.997598388671875,-2.9800307750701904,-9.165557861328125,-1.8117320537567139
1765792829232577500,10.00757763671875,-3.004554510116577,-9.15585708618164,-1.8202482461929321
1765792829242617900,10.017617919921875,-3.0238547325134277,-9.148411750793457,-1.8257219791412354
1765792829252597200,10.02759716796875,-3.0351614952087402,-9.144201278686523,-1.8280491828918457
1765792829262576400,10.037576416015625,-3.063547134399414,-9.133535385131836,-1.8340176343917847
1765792829272586200,10.047586181640625,-3.076036214828491,-9.129204750061035,-1.8346703052520752
1765792829282565400,10.0575654296875,-3.0955147743225098,-9.122379302978516,-1.8358601331710815
1765792829292544500,10.06754443359375,-3.1147944927215576,-9.115461349487305,-1.8376094102859497
1765792829302554400,10.077554443359375,-3.1430776119232178,-9.10531997680664,-1.839725375175476
1765792829342502000,10.117501953125,-3.2008447647094727,-9.085153579711914,-1.8398423194885254
1765792829372470300,10.14747021484375,-3.2234504222869873,-9.076508522033691,-1.8430349826812744
1765792829382449400,10.157449462890625,-3.2268052101135254,-9.075189590454102,-1.8436615467071533
1765792829392459300,10.167459228515625,-3.2314140796661377,-9.073444366455078,-1.8441758155822754
1765792829402468900,10.17746875,-3.2349157333374023,-9.072223663330078,-1.844030499458313
1765792829412478700,10.187478759765625,-3.241997003555298,-9.069310188293457,-1.8459335565567017
1765792829442508000,10.217508056640625,-3.253324270248413,-9.063775062561035,-1.8531843423843384
1765792829452487200,10.227487060546874,-3.2477200031280518,-9.065470695495605,-1.8547111749649048
1765792829462497000,10.2374970703125,-3.240239381790161,-9.068083763122559,-1.855023741722107
1765792829472476200,10.24747607421875,-3.2294883728027344,-9.072011947631836,-1.8545697927474976
1765792829482486000,10.257486083984375,-3.213331699371338,-9.077787399291992,-1.8543609380722046
1765792829492434700,10.2674345703125,-3.194275140762329,-9.084771156311035,-1.8530827760696411
1765792829502505500,10.27750537109375,-3.174778461456299,-9.092236518859863,-1.8499752283096313
1765792829512484900,10.28748486328125,-3.1564087867736816,-9.099828720092773,-1.8440744876861572
1765792829542514200,10.31751416015625,-3.0570805072784424,-9.135997772216797,-1.8325399160385132
1765792829562533600,10.33753369140625,-2.9855446815490723,-9.159927368164062,-1.8310279846191406
1765792829572512800,10.3475126953125,-2.941600799560547,-9.173962593078613,-1.831885814666748
1765792829582522600,10.357522705078125,-2.9016366004943848,-9.185729026794434,-1.8366525173187256
1765792829592502000,10.367501953125,-2.8839175701141357,-9.189773559570312,-1.8443138599395752
1765792829602511600,10.37751171875,-2.8796839714050293,-9.189762115478516,-1.8509762287139893
1765792829612521500,10.387521484375,-2.8764586448669434,-9.189589500427246,-1.8568276166915894
1765792829642520300,10.417520263671875,-2.841658115386963,-9.19737434387207,-1.8718171119689941
1765792829652469000,10.427468994140625,-2.824655055999756,-9.201379776000977,-1.8778549432754517
1765792829662509300,10.43750927734375,-2.812110424041748,-9.20446491241455,-1.8815584182739258
1765792829672488400,10.447488525390625,-2.8026788234710693,-9.206811904907227,-1.884153127670288
1765792829682498300,10.457498291015625,-2.7932021617889404,-9.20898723602295,-1.8875871896743774
1765792829692538600,10.46753857421875,-2.791374683380127,-9.209266662597656,-1.8889356851577759
1765792829702548200,10.47754833984375,-2.790557861328125,-9.20915699005127,-1.8906691074371338
1765792829712527600,10.487527587890625,-2.7928483486175537,-9.208653450012207,-1.8897318840026855
1765792829722537200,10.497537109375,-2.786560297012329,-9.21076488494873,-1.888738751411438
1765792829742557000,10.517556884765625,-2.784592390060425,-9.211905479431152,-1.8860669136047363
1765792829752536000,10.5275361328125,-2.778935194015503,-9.213680267333984,-1.885742425918579
1765792829762546000,10.5375458984375,-2.7695086002349854,-9.217251777648926,-1.8821508884429932
1765792829772555500,10.547555419921874,-2.754606008529663,-9.222368240356445,-1.8789483308792114
1765792829782535000,10.557534912109375,-2.72593355178833,-9.23155403137207,-1.8756603002548218
1765792829792544500,10.56754443359375,-2.7156906127929688,-9.234823226928711,-1.8744220733642578
1765792829802524000,10.57752392578125,-2.693247079849243,-9.241633415222168,-1.8732342720031738
1765792829812533800,10.58753369140625,-2.6712238788604736,-9.248403549194336,-1.8713693618774414
1765792829822543400,10.59754345703125,-2.6527535915374756,-9.253931045532227,-1.8703111410140991
1765792829852542200,10.627542236328125,-2.5937116146087646,-9.271100044250488,-1.86810302734375
1765792829862552000,10.637552001953125,-2.582364320755005,-9.274408340454102,-1.8673902750015259
1765792829872561700,10.647561767578125,-2.5330567359924316,-9.288363456726074,-1.86555016040802
1765792829882571500,10.657571533203125,-2.488351345062256,-9.300638198852539,-1.8645845651626587
1765792829892550700,10.667550537109374,-2.4409360885620117,-9.313623428344727,-1.8624285459518433
1765792829902560500,10.677560546875,-2.417470932006836,-9.319719314575195,-1.8625457286834717
1765792829912570400,10.6875703125,-2.3745062351226807,-9.331336975097656,-1.8596473932266235
1765792829922580000,10.697580078125,-2.338284969329834,-9.341161727905273,-1.8562123775482178
1765792829932589800,10.70758984375,-2.291748523712158,-9.353560447692871,-1.851822018623352
1765792829962519000,10.73751904296875,-2.2041187286376953,-9.376471519470215,-1.8422894477844238
1765792829972529000,10.74752880859375,-2.1605541706085205,-9.387375831604004,-1.8383702039718628
1765792829982538800,10.757538818359375,-2.1132187843322754,-9.398893356323242,-1.8345409631729126
1765792829992518000,10.767517822265624,-2.0469024181365967,-9.414828300476074,-1.8280034065246582
1765792830002527700,10.77752783203125,-2.025369167327881,-9.41971206665039,-1.82683527469635
1765792830012537300,10.787537353515624,-1.9836753606796265,-9.429384231567383,-1.8226661682128906
1765792830022547200,10.797547119140624,-1.9735616445541382,-9.431764602661133,-1.8213378190994263
1765792830032557000,10.80755712890625,-1.9622105360031128,-9.433817863464355,-1.8229635953903198
1765792830042566700,10.817566650390624,-1.950621485710144,-9.435813903808594,-1.825081706047058
1765792830052576500,10.827576416015624,-1.9410203695297241,-9.437646865844727,-1.825835943222046
1765792830062555600,10.8375556640625,-1.9346786737442017,-9.438652038574219,-1.8273659944534302
1765792830072565500,10.8475654296875,-1.932968020439148,-9.439021110534668,-1.8272780179977417
1765792830082575400,10.857575439453125,-1.9318886995315552,-9.438982963562012,-1.828609824180603
1765792830092585000,10.8675849609375,-1.9353855848312378,-9.437769889831543,-1.8311691284179688
1765792830102594800,10.8775947265625,-1.9398747682571411,-9.436327934265137,-1.8338521718978882
1765792830112574000,10.887573974609374,-1.9475921392440796,-9.434225082397461,-1.8364797830581665
1765792830122553300,10.89755322265625,-1.9504461288452148,-9.43368911743164,-1.8362051248550415
1765792830132532500,10.907532470703124,-1.9562331438064575,-9.43237590789795,-1.8367952108383179
1765792830142542300,10.917542236328124,-1.9699130058288574,-9.429080963134766,-1.8390944004058838
1765792830162561800,10.937561767578124,-1.991693139076233,-9.423813819885254,-1.84263277053833
1765792830202539800,10.977539794921874,-2.100072145462036,-9.39746379852295,-1.8568179607391357
1765792830212519200,10.987519287109375,-2.1703813076019287,-9.379548072814941,-1.8665251731872559
1765792830222528800,10.99752880859375,-2.1966140270233154,-9.372962951660156,-1.8689178228378296
1765792830232508200,11.007508056640624,-2.2479729652404785,-9.359315872192383,-1.8762258291244507
1765792830242517800,11.017517822265624,-2.3265650272369385,-9.33778190612793,-1.8876824378967285
1765792830252527600,11.027527587890624,-2.3838212490081787,-9.321496963500977,-1.8967127799987793
1765792830272516600,11.0475166015625,-2.496500015258789,-9.287816047668457,-1.9168580770492554
1765792830282526500,11.0575263671875,-2.5250437259674072,-9.278874397277832,-1.9227733612060547
1765792830292536000,11.0675361328125,-2.582394599914551,-9.260957717895508,-1.9329460859298706
1765792830302546000,11.0775458984375,-2.6701881885528564,-9.23300552368164,-1.9473309516906738
1765792830312525300,11.087525390625,-2.6993515491485596,-9.223361015319824,-1.9528175592422485
1765792830322535000,11.097534912109374,-2.7571463584899902,-9.204363822937012,-1.9616914987564087
1765792830332544800,11.107544677734374,-2.837088108062744,-9.177490234375,-1.9735779762268066
1765792830342554600,11.1175546875,-2.8859851360321045,-9.1605224609375,-1.9814932346343994
1765792830352564200,11.127564208984374,-2.9318299293518066,-9.144402503967285,-1.9886361360549927
1765792830362574000,11.137573974609374,-2.9550323486328125,-9.136321067810059,-1.9914462566375732
1765792830382563000,11.15756298828125,-3.044854164123535,-9.104191780090332,-2.0032382011413574
1765792830392542200,11.167542236328124,-3.074824810028076,-9.093345642089844,-2.006720781326294
1765792830402552000,11.177552001953124,-3.1006810665130615,-9.083466529846191,-2.0116724967956543
1765792830412562000,11.18756201171875,-3.1269078254699707,-9.073419570922852,-2.0164144039154053
1765792830422571500,11.197571533203124,-3.1559219360351562,-9.062461853027344,-2.0204784870147705
1765792830432551000,11.207551025390625,-3.1843245029449463,-9.051746368408203,-2.02394700050354
1765792830442530000,11.217530029296874,-3.205817461013794,-9.043627738952637,-2.0263051986694336
1765792830452509400,11.227509521484375,-3.215531826019287,-9.039910316467285,-2.0274980068206787
1765792830462580200,11.237580322265625,-3.214454174041748,-9.040151596069336,-2.0281355381011963
1765792830492578800,11.267578857421874,-3.1862294673919678,-9.050956726074219,-2.0244834423065186
1765792830502588700,11.277588623046874,-3.1565845012664795,-9.061525344848633,-2.023641347885132
1765792830512537300,11.287537353515624,-3.137907028198242,-9.068320274353027,-2.0222482681274414
1765792830522547200,11.297547119140624,-3.120474338531494,-9.074621200561523,-2.0209741592407227
1765792830532526300,11.3075263671875,-3.1013126373291016,-9.08147144317627,-2.0196783542633057
1765792830542505700,11.317505615234374,-3.0874240398406982,-9.085650444030762,-2.022170066833496
1765792830552515300,11.327515380859374,-3.068188428878784,-9.09228229522705,-2.0216426849365234
1765792830562525200,11.337525146484374,-3.0492208003997803,-9.098685264587402,-2.021535634994507
1765792830602472700,11.37747265625,-3.0085198879241943,-9.111106872558594,-2.0265579223632812
1765792830612482600,11.387482666015625,-3.005099296569824,-9.11182689666748,-2.028393268585205
1765792830622461700,11.397461669921874,-2.998023271560669,-9.113572120666504,-2.031022071838379
1765792830632471600,11.407471435546874,-2.9905741214752197,-9.11571216583252,-2.032398223876953
1765792830642481200,11.417481201171874,-2.983797550201416,-9.11752986907959,-2.0342063903808594
1765792830652491000,11.427490966796874,-2.9782893657684326,-9.118894577026367,-2.0361721515655518
1765792830662500900,11.4375009765625,-2.975114107131958,-9.119732856750488,-2.037052631378174
1765792830682489900,11.45748974609375,-2.965163469314575,-9.122858047485352,-2.037567138671875
1765792830692499500,11.46749951171875,-2.9620509147644043,-9.12431526184082,-2.0355653762817383
1765792830702509300,11.47750927734375,-2.959779739379883,-9.125443458557129,-2.033803701400757
1765792830712488700,11.48748876953125,-2.9569361209869385,-9.126347541809082,-2.0338971614837646
1765792830722467800,11.4974677734375,-2.95648455619812,-9.126826286315918,-2.0323989391326904
1765792830732447000,11.507447021484374,-2.9614322185516357,-9.126287460327148,-2.02760910987854
1765792830742487300,11.5174873046875,-2.967485189437866,-9.125109672546387,-2.024049997329712
1765792830752436000,11.52743603515625,-2.978148937225342,-9.122314453125,-2.020991086959839
1765792830762445800,11.53744580078125,-2.992400646209717,-9.118513107299805,-2.017094135284424
1765792830772425200,11.54742529296875,-3.0084714889526367,-9.114117622375488,-2.013047218322754
1765792830802423800,11.577423828125,-3.0479135513305664,-9.10358715057373,-2.0013320446014404
1765792830812433700,11.58743359375,-3.0578837394714355,-9.100303649902344,-2.0010557174682617
1765792830822443500,11.597443603515625,-3.063176155090332,-9.0988130569458,-1.9997323751449585
1765792830832392200,11.60739208984375,-3.0700366497039795,-9.096970558166504,-1.9976000785827637
1765792830842432500,11.6174326171875,-3.0752737522125244,-9.095499992370605,-1.9962364435195923
1765792830852442000,11.627442138671874,-3.0790345668792725,-9.09454345703125,-1.994797945022583
1765792830862421500,11.63742138671875,-3.08205509185791,-9.093830108642578,-1.9933850765228271
1765792830872431000,11.64743115234375,-3.0847136974334717,-9.09363079071045,-1.990187168121338
1765792830902430000,11.677429931640624,-3.08381724357605,-9.097707748413086,-1.972861409187317
1765792830912378600,11.687378662109374,-3.0777835845947266,-9.100805282592773,-1.9679826498031616
1765792830922388500,11.697388427734374,-3.068768262863159,-9.105185508728027,-1.9617996215820312
1765792830932367600,11.70736767578125,-3.059049129486084,-9.109688758850098,-1.9560604095458984
1765792830942347000,11.717346923828124,-3.0534045696258545,-9.111937522888184,-1.954408049583435
1765792830952356900,11.72735693359375,-3.0350942611694336,-9.119009017944336,-1.9499480724334717
1765792830962366500,11.737366455078124,-3.0222432613372803,-9.123600006103516,-1.9484230279922485
1765792830972345900,11.747345947265625,-3.0098907947540283,-9.127913475036621,-1.9473446607589722
1765792830982325000,11.757324951171874,-2.9986464977264404,-9.131745338439941,-1.9467291831970215
1765792831012323800,11.78732373046875,-2.963803291320801,-9.141907691955566,-1.9523875713348389
1765792831032312800,11.807312744140624,-2.933048963546753,-9.150849342346191,-1.9569329023361206
1765792831042322700,11.81732275390625,-2.925661325454712,-9.1530122756958,-1.9578757286071777
1765792831052332300,11.827332275390624,-2.9088985919952393,-9.158143043518066,-1.9588497877120972
1765792831062342100,11.837342041015624,-2.9028191566467285,-9.160016059875488,-1.9591187238693237
1765792831072351700,11.847351806640624,-2.8918099403381348,-9.163555145263672,-1.9588500261306763
1765792831082361600,11.857361572265624,-2.886472702026367,-9.1654052734375,-1.9580676555633545
1765792831092341000,11.867341064453125,-2.8749265670776367,-9.169280052185059,-1.9569144248962402
1765792831112299300,11.88729931640625,-2.862590789794922,-9.173277854919434,-1.9562594890594482
1765792831122309000,11.89730908203125,-2.8546218872070312,-9.175206184387207,-1.9588652849197388
1765792831132288500,11.90728857421875,-2.8545215129852295,-9.17482852935791,-1.960776686668396
1765792831142328600,11.91732861328125,-2.8607735633850098,-9.172658920288086,-1.961807131767273
1765792831152338400,11.92733837890625,-2.865234851837158,-9.171195030212402,-1.9621403217315674
1765792831162348300,11.937348388671875,-2.8785741329193115,-9.167045593261719,-1.9620132446289062
1765792831172297000,11.947296875,-2.8856101036071777,-9.164985656738281,-1.961290717124939
1765792831182306800,11.957306884765625,-2.895798921585083,-9.161892890930176,-1.9607304334640503
1765792831192286000,11.967285888671874,-2.901944398880005,-9.160171508789062,-1.9596953392028809
1765792831222315300,11.997315185546874,-2.917541742324829,-9.156305313110352,-1.954599142074585
1765792831232294400,12.00729443359375,-2.9239001274108887,-9.154861450195312,-1.9518556594848633
1765792831242334700,12.017334716796874,-2.9315807819366455,-9.152678489685059,-1.950569748878479
1765792831252344600,12.027344482421874,-2.9352028369903564,-9.151644706726074,-1.9499808549880981
1765792831262354200,12.037354248046874,-2.94085955619812,-9.150087356567383,-1.9487591981887817
1765792831272333600,12.04733349609375,-2.945716142654419,-9.149057388305664,-1.9462542533874512
1765792831282343400,12.057343505859375,-2.9464235305786133,-9.148825645446777,-1.9462804794311523
1765792831292322600,12.067322509765624,-2.9481329917907715,-9.148340225219727,-1.945963978767395
1765792831302332400,12.07733251953125,-2.953014850616455,-9.146862030029297,-1.9455033540725708
1765792831322351900,12.097351806640624,-2.9693143367767334,-9.141789436340332,-1.944544792175293
1765792831332331000,12.1073310546875,-2.9750490188598633,-9.140254020690918,-1.9429911375045776
1765792831342340900,12.1173408203125,-2.9783883094787598,-9.13932991027832,-1.9422353506088257
1765792831352320000,12.127320068359374,-2.9797098636627197,-9.139264106750488,-1.9405092000961304
1765792831362329900,12.137329833984374,-2.9787416458129883,-9.13976764678955,-1.9396122694015503
1765792831372339700,12.147339599609374,-2.9779505729675293,-9.140260696411133,-1.9385148286819458
1765792831382349300,12.157349365234374,-2.9772534370422363,-9.140450477600098,-1.9386875629425049
1765792831392328700,12.16732861328125,-2.9819815158843994,-9.138924598693848,-1.9386104345321655
1765792831402369000,12.177369140625,-2.984522819519043,-9.138392448425293,-1.9372233152389526
1765792831412378600,12.187378662109374,-2.9949769973754883,-9.135481834411621,-1.934809923171997
1765792831452417800,12.227417724609374,-3.007509469985962,-9.132098197937012,-1.9313360452651978
1765792831462427600,12.237427734375,-3.011230945587158,-9.131327629089355,-1.92918062210083
1765792831472406800,12.24740673828125,-3.013890504837036,-9.130785942077637,-1.9275901317596436
1765792831482416600,12.257416748046875,-3.016472578048706,-9.130138397216797,-1.9266257286071777
1765792831492395800,12.267395751953124,-3.01991605758667,-9.129522323608398,-1.9241470098495483
1765792831502405600,12.277405517578124,-3.0213096141815186,-9.129424095153809,-1.9224244356155396
1765792831512384800,12.287384765625,-3.021761417388916,-9.129029273986816,-1.9235923290252686
1765792831542383600,12.317383544921874,-3.0200648307800293,-9.128717422485352,-1.9277310371398926
1765792831552393500,12.3273935546875,-3.020490884780884,-9.128012657165527,-1.9303946495056152
1765792831562403000,12.337403076171874,-3.0233559608459473,-9.126538276672363,-1.932878017425537
1765792831572413000,12.347412841796874,-3.026336431503296,-9.125188827514648,-1.9345844984054565
1765792831582422800,12.3574228515625,-3.0293946266174316,-9.123865127563477,-1.936050534248352
1765792831592402000,12.36740185546875,-3.0318048000335693,-9.122902870178223,-1.9367998838424683
1765792831602411800,12.377411865234375,-3.0336713790893555,-9.122193336486816,-1.937221646308899
1765792831612421400,12.38742138671875,-3.033802032470703,-9.122145652770996,-1.9372450113296509
1765792831622431200,12.39743115234375,-3.0338854789733887,-9.12221908569336,-1.9367706775665283
1765792831672419000,12.447419189453125,-3.032148599624634,-9.123756408691406,-1.9322482347488403
1765792831682428700,12.4574287109375,-3.0325889587402344,-9.12376880645752,-1.9314979314804077
1765792831692408000,12.467407958984374,-3.033217668533325,-9.123587608337402,-1.9313549995422363
1765792831702417700,12.477417724609374,-3.033405303955078,-9.12357234954834,-1.9311314821243286
1765792831712397000,12.48739697265625,-3.030856132507324,-9.124313354492188,-1.9316283464431763
1765792831722407000,12.497406982421875,-3.029954195022583,-9.124795913696289,-1.9307711124420166
1765792831732355600,12.50735546875,-3.0278592109680176,-9.125367164611816,-1.9313606023788452
1765792831752314000,12.527314208984375,-3.0215392112731934,-9.12747859954834,-1.9312776327133179
1765792831762323700,12.53732373046875,-3.0214734077453613,-9.127090454101562,-1.9332150220870972
1765792831772303000,12.54730322265625,-3.019758462905884,-9.127164840698242,-1.935540795326233
1765792831782312700,12.557312744140624,-3.0207910537719727,-9.12636661529541,-1.9376944303512573
1765792831792292000,12.5672919921875,-3.0227792263031006,-9.125286102294922,-1.9396792650222778
1765792831802301700,12.5773017578125,-3.0244762897491455,-9.124573707580566,-1.9403847455978394
1765792831812281000,12.587281005859374,-3.024967670440674,-9.12429141998291,-1.940964937210083
1765792831822260200,12.59726025390625,-3.0244030952453613,-9.12451457977295,-1.9407819509506226
1765792831832239600,12.607239501953124,-3.0251553058624268,-9.12435245513916,-1.9403680562973022
1765792831852228600,12.627228515625,-3.021409511566162,-9.126167297363281,-1.937668800354004
1765792831872187100,12.647187255859375,-3.0184993743896484,-9.127060890197754,-1.9379963874816895
1765792831882166300,12.657166259765624,-3.0179648399353027,-9.127164840698242,-1.9383333921432495
1765792831892145700,12.667145751953125,-3.0166845321655273,-9.127532958984375,-1.9385963678359985
1765792831902155300,12.6771552734375,-3.016818046569824,-9.127368927001953,-1.9391651153564453
1765792831912134700,12.687134765625,-3.0160930156707764,-9.127018928527832,-1.9419333934783936
1765792831922144300,12.697144287109374,-3.0148122310638428,-9.126880645751953,-1.9445699453353882
1765792831932123600,12.70712353515625,-3.0158231258392334,-9.126665115356445,-1.9440181255340576
1765792831942133200,12.71713330078125,-3.0157461166381836,-9.126422882080078,-1.9452768564224243
1765792831982080800,12.757080810546874,-2.9925918579101562,-9.133410453796387,-1.9482392072677612
1765792832002069800,12.77706982421875,-2.983577251434326,-9.136557579040527,-1.947296380996704
1765792832012049200,12.787049072265624,-2.982907295227051,-9.136823654174805,-1.9470787048339844
1765792832022059000,12.79705908203125,-2.9852161407470703,-9.135719299316406,-1.9487226009368896
1765792832032068600,12.807068603515624,-2.9887051582336426,-9.134682655334473,-1.9482401609420776
1765792832042048000,12.817048095703125,-2.993522882461548,-9.133230209350586,-1.9476521015167236
1765792832092096800,12.8670966796875,-3.0031790733337402,-9.131665229797363,-1.940097689628601
1765792832102106600,12.877106689453125,-3.004261016845703,-9.131736755371094,-1.938083529472351
1765792832112116200,12.8871162109375,-3.005296230316162,-9.131572723388672,-1.9372522830963135
1765792832122126000,12.8971259765625,-3.0060813426971436,-9.131396293640137,-1.9368683099746704
1765792832132105200,12.907105224609374,-3.00578236579895,-9.131349563598633,-1.9375633001327515
1765792832142084600,12.917084716796875,-3.0070061683654785,-9.13082504272461,-1.9381316900253296
1765792832172052700,12.947052734375,-3.008812665939331,-9.129843711853027,-1.9399629831314087
1765792832182062600,12.9570625,-3.0087757110595703,-9.129788398742676,-1.940266728401184
1765792832192041700,12.967041748046874,-3.0100831985473633,-9.129318237304688,-1.940458059310913
1765792832202051600,12.977051513671874,-3.0111899375915527,-9.1288480758667,-1.9409382343292236
1765792832212000300,12.987000244140624,-3.0119335651397705,-9.12852668762207,-1.941306233406067
1765792832221979600,12.996979736328125,-3.0127131938934326,-9.127918243408203,-1.9429516792297363
1765792832231989200,13.0069892578125,-3.0124683380126953,-9.127890586853027,-1.9434689283370972
1765792832242029600,13.017029541015624,-3.011530876159668,-9.128443717956543,-1.942307472229004
1765792832252039400,13.027039306640624,-3.011507987976074,-9.128531455993652,-1.9419372081756592
1765792832292017400,13.067017333984374,-3.012436866760254,-9.128640174865723,-1.9399921894073486
1765792832302027300,13.07702734375,-3.0130906105041504,-9.128321647644043,-1.9404783248901367
1765792832312006400,13.08700634765625,-3.0123608112335205,-9.128774642944336,-1.9394644498825073
1765792832322046700,13.097046630859374,-3.0122129917144775,-9.129082679748535,-1.9382582902908325
1765792832331995400,13.106995361328124,-3.0133042335510254,-9.128690719604492,-1.938398003578186
1765792832342035700,13.11703564453125,-3.013190746307373,-9.128778457641602,-1.9381603002548218
1765792832351984400,13.126984375,-3.0126118659973145,-9.129074096679688,-1.9376649856567383
1765792832361994200,13.136994140625,-3.0131125450134277,-9.129127502441406,-1.9366412162780762
1765792832391932000,13.166931884765624,-3.0135738849639893,-9.129510879516602,-1.9341177940368652
1765792832411982000,13.186982177734375,-3.0094728469848633,-9.131311416625977,-1.931995153427124
1765792832421961200,13.196961181640624,-3.0093514919281006,-9.131417274475098,-1.931699275970459
1765792832431940600,13.206940673828125,-3.0088768005371094,-9.131890296936035,-1.930190086364746
1765792832441919700,13.216919677734374,-3.008430242538452,-9.13187313079834,-1.9309728145599365
1765792832451899000,13.22689892578125,-3.008784055709839,-9.131513595581055,-1.9321151971817017
1765792832461908700,13.23690869140625,-3.0100250244140625,-9.131099700927734,-1.9321423768997192
1765792832471857400,13.246857421875,-3.0103604793548584,-9.130864143371582,-1.9327338933944702
1765792832491877000,13.266877197265625,-3.006834030151367,-9.132213592529297,-1.9318405389785767
1765792832501886700,13.27688671875,-3.0043153762817383,-9.133018493652344,-1.9319489002227783
1765792832511866000,13.2868662109375,-3.001269817352295,-9.134063720703125,-1.9317548274993896
1765792832521875700,13.296875732421874,-3.0001842975616455,-9.134446144104004,-1.9316297769546509
1765792832531824600,13.30682470703125,-2.997927188873291,-9.13556957244873,-1.9298166036605835
1765792832541864700,13.31686474609375,-2.996825695037842,-9.136038780212402,-1.9293086528778076
1765792832551844000,13.326843994140624,-2.996528387069702,-9.136373519897461,-1.9281842708587646
1765792832561853700,13.336853759765624,-2.997554063796997,-9.135970115661621,-1.9284999370574951
1765792832571863600,13.346863525390624,-2.998660087585449,-9.135811805725098,-1.9275355339050293
1765792832591852500,13.3668525390625,-2.999671697616577,-9.135684967041016,-1.926558494567871
1765792832601862400,13.3768623046875,-2.999863624572754,-9.135734558105469,-1.926027774810791
1765792832611872000,13.3868720703125,-2.99886417388916,-9.136075973510742,-1.9259579181671143
1765792832621881900,13.3968818359375,-2.9977433681488037,-9.136537551879883,-1.9255229234695435
1765792832631861200,13.406861328125,-2.9976580142974854,-9.136789321899414,-1.9244550466537476
1765792832641870800,13.416870849609374,-2.9977316856384277,-9.136808395385742,-1.9242563247680664
1765792832651880700,13.426880615234374,-2.997779369354248,-9.1369047164917,-1.9237185716629028
1765792832661890600,13.436890625,-2.998018741607666,-9.13715934753418,-1.9221395254135132
1765792832671869700,13.44686962890625,-2.9981093406677246,-9.13752555847168,-1.9202569723129272
1765792832681848800,13.456848876953124,-2.9980292320251465,-9.137580871582031,-1.9201087951660156
1765792832711878100,13.486878173828124,-2.999459743499756,-9.137901306152344,-1.9163485765457153
1765792832731867100,13.5068671875,-3.0004003047943115,-9.13786792755127,-1.9150437116622925
1765792832741846500,13.516846435546874,-2.9983344078063965,-9.13891315460205,-1.9132968187332153
1765792832751825700,13.52682568359375,-2.997840642929077,-9.139206886291504,-1.9126533269882202
1765792832761835500,13.53683544921875,-2.9961931705474854,-9.140046119689941,-1.9112308025360107
1765792832771845400,13.546845458984375,-2.9958324432373047,-9.140527725219727,-1.9095017910003662
1765792832781824500,13.556824462890624,-2.995971202850342,-9.14051628112793,-1.909332275390625
1765792832791834400,13.56683447265625,-2.9972879886627197,-9.140087127685547,-1.9093189239501953
1765792832801844000,13.576843994140624,-2.998945713043213,-9.139607429504395,-1.9090046882629395
1765792832821802500,13.596802490234374,-2.9993650913238525,-9.139662742614746,-1.908077359199524
1765792832831782000,13.606781982421875,-2.9978508949279785,-9.140125274658203,-1.9082480669021606
1765792832841822000,13.616822021484374,-2.9974470138549805,-9.140182495117188,-1.9085969924926758
1765792832851771000,13.62677099609375,-2.999518871307373,-9.139693260192871,-1.907688021659851
1765792832861780500,13.636780517578124,-3.0005621910095215,-9.139144897460938,-1.9086805582046509
1765792832871760000,13.646759765625,-3.000746965408325,-9.138967514038086,-1.9092416763305664
1765792832881739000,13.656739013671874,-2.9993278980255127,-9.139677047729492,-1.9080711603164673
1765792832891718400,13.666718505859375,-2.9973766803741455,-9.140398979187012,-1.9076745510101318
1765792832901758700,13.6767587890625,-2.9973719120025635,-9.140276908874512,-1.9082740545272827
1765792832931787800,13.706787841796874,-2.998555898666382,-9.139786720275879,-1.9087504148483276
1765792832941797600,13.716797607421874,-2.998558759689331,-9.139776229858398,-1.9088082313537598
1765792832951807500,13.726807373046874,-2.9989848136901855,-9.139761924743652,-1.9081977605819702
1765792832961817000,13.736817138671874,-2.9988255500793457,-9.140141487121582,-1.9066336154937744
1765792832971827000,13.746826904296874,-2.9976541996002197,-9.140779495239258,-1.905417799949646
1765792832981836800,13.7568369140625,-2.997208595275879,-9.140960693359375,-1.9052503108978271
1765792832991816000,13.76681591796875,-2.997598648071289,-9.14102840423584,-1.9043229818344116
1765792833001825800,13.77682568359375,-2.9977529048919678,-9.141277313232422,-1.9028809070587158
1765792833011805000,13.786804931640624,-2.9980437755584717,-9.141128540039062,-1.9031299352645874
1765792833021814800,13.796814697265624,-2.9971935749053955,-9.141441345214844,-1.902960181236267
1765792833051783000,13.826782958984374,-2.998443126678467,-9.141219139099121,-1.9020626544952393
1765792833061762300,13.83676220703125,-2.998629093170166,-9.141217231750488,-1.901789665222168
1765792833071741400,13.846741455078124,-2.9977681636810303,-9.141374588012695,-1.9023805856704712
1765792833081781800,13.85678173828125,-2.9971346855163574,-9.14167308807373,-1.901955008506775
1765792833091761200,13.86676123046875,-2.996791124343872,-9.141934394836426,-1.901224970817566
1765792833101770800,13.876770751953124,-2.995277166366577,-9.142130851745605,-1.9026745557785034
1765792833111750100,13.886750244140625,-2.9929990768432617,-9.1428804397583,-1.9026590585708618
1765792833121790500,13.89679052734375,-2.993455410003662,-9.142358779907227,-1.9044383764266968
1765792833161768400,13.9367685546875,-3.000539779663086,-9.140302658081055,-1.9031633138656616
1765792833171778000,13.946778076171874,-2.9997129440307617,-9.14077377319336,-1.9022108316421509
1765792833191767000,13.96676708984375,-2.997220993041992,-9.141533851623535,-1.9024794101715088
1765792833211786800,13.986786865234375,-2.9956512451171875,-9.142208099365234,-1.9017183780670166
1765792833221796400,13.99679638671875,-2.9949839115142822,-9.142712593078613,-1.9003429412841797
1765792833231775700,14.006775634765624,-2.9937081336975098,-9.143134117126465,-1.900322437286377
1765792833241785300,14.016785400390624,-2.9883687496185303,-9.144731521606445,-1.9010387659072876
1765792833261805000,14.03680517578125,-2.9848618507385254,-9.145261764526367,-1.9039877653121948
1765792833271814700,14.046814697265624,-2.9849700927734375,-9.145236015319824,-1.9039555788040161
1765792833281824500,14.056824462890624,-2.9842092990875244,-9.145236015319824,-1.9051415920257568
1765792833291803600,14.0668037109375,-2.984243869781494,-9.145200729370117,-1.905247688293457
1765792833301783000,14.076782958984374,-2.9852542877197266,-9.144866943359375,-1.9052696228027344
1765792833311793000,14.08679296875,-2.9866416454315186,-9.144895553588867,-1.9029583930969238
1765792833321802500,14.096802490234374,-2.9869019985198975,-9.144874572753906,-1.9026471376419067
1765792833331782000,14.106781982421875,-2.9872922897338867,-9.14478588104248,-1.9024653434753418
1765792833341822000,14.116822021484374,-2.9874467849731445,-9.144954681396484,-1.9014067649841309
1765792833371820800,14.14682080078125,-2.9893805980682373,-9.144956588745117,-1.898349404335022
1765792833381830700,14.15683056640625,-2.990499973297119,-9.144693374633789,-1.897870421409607
1765792833391840500,14.166840576171875,-2.989438772201538,-9.144797325134277,-1.8990312814712524
1765792833401850000,14.17685009765625,-2.9895541667938232,-9.144906997680664,-1.8983254432678223
1765792833411829500,14.18682958984375,-2.9888455867767334,-9.145218849182129,-1.897938847541809
1765792833421839000,14.196839111328124,-2.989182949066162,-9.145216941833496,-1.8974159955978394
1765792833431818500,14.206818603515625,-2.9888322353363037,-9.145598411560059,-1.8961349725723267
1765792833441828000,14.216828125,-2.988205909729004,-9.145865440368652,-1.895828366279602
1765792833451838000,14.226837890625,-2.985999822616577,-9.146646499633789,-1.8955440521240234
1765792833481836800,14.2568369140625,-2.984184741973877,-9.147433280944824,-1.8946067094802856
1765792833491846400,14.266846435546874,-2.9832499027252197,-9.147649765014648,-1.8950361013412476
1765792833501825800,14.27682568359375,-2.982679605484009,-9.147807121276855,-1.8951597213745117
1765792833511835400,14.28683544921875,-2.982426643371582,-9.14809513092041,-1.8941657543182373
1765792833521845200,14.29684521484375,-2.981877326965332,-9.148028373718262,-1.8953654766082764
1765792833531855000,14.306855224609375,-2.9820151329040527,-9.147883415222168,-1.895845890045166
1765792833541864700,14.31686474609375,-2.981818914413452,-9.147855758666992,-1.8962843418121338
1765792833551813600,14.326813720703125,-2.9824793338775635,-9.14773178100586,-1.8958415985107422
1765792833591791600,14.36679150390625,-2.9808361530303955,-9.149090766906738,-1.8918700218200684
1765792833601832000,14.37683203125,-2.9809205532073975,-9.149088859558105,-1.8917381763458252
1765792833611841500,14.386841552734374,-2.9814774990081787,-9.149110794067383,-1.8907620906829834
1765792833621821000,14.396821044921875,-2.98081636428833,-9.149316787719727,-1.8907999992370605
1765792833631830500,14.40683056640625,-2.980405330657959,-9.149503707885742,-1.890549898147583
1765792833641840400,14.41684033203125,-2.9806439876556396,-9.149368286132812,-1.8908134698867798
1765792833651850200,14.426850341796875,-2.9800243377685547,-9.149471282958984,-1.8913131952285767
1765792833661859800,14.43685986328125,-2.979905843734741,-9.14966869354248,-1.890533208847046
1765792833681818400,14.456818359375,-2.979438066482544,-9.150068283081055,-1.889338731765747
1765792833691828200,14.466828125,-2.977616786956787,-9.150745391845703,-1.888920545578003
1765792833701837800,14.476837890625,-2.976638078689575,-9.150938987731934,-1.8895354270935059
1765792833711817200,14.486817138671874,-2.9755070209503174,-9.151288032531738,-1.889623999595642
1765792833731806200,14.50680615234375,-2.9734394550323486,-9.151683807373047,-1.8909598588943481
1765792833741816000,14.516816162109375,-2.972832441329956,-9.151738166809082,-1.8916642665863037
1765792833751825700,14.52682568359375,-2.9724037647247314,-9.15168571472168,-1.8925817012786865
1765792842267717600,23.042717529296876,8.885435104370117,-1.4646961688995361,-3.8825387954711914
1765792842297077500,23.072077392578127,8.846051216125488,-1.7418239116668701,-3.8579540252685547
1765792842316835800,23.0918359375,8.797711372375488,-2.0097525119781494,-3.8381710052490234
1765792842326876200,23.101876220703126,8.781187057495117,-2.119643449783325,-3.816838264465332
1765792842336855600,23.11185546875,8.769731521606445,-2.2133498191833496,-3.7898917198181152
1765792842346865200,23.121865234375,8.765000343322754,-2.257514476776123,-3.7747583389282227
1765792842376833500,23.15183349609375,8.737126350402832,-2.480844736099243,-3.698434829711914
1765792842386843100,23.161843017578125,8.71331787109375,-2.6143131256103516,-3.6624910831451416
1765792842396792000,23.1717919921875,8.694668769836426,-2.7025692462921143,-3.6426963806152344
1765792842406801700,23.1818017578125,8.6724271774292,-2.795527219772339,-3.625521659851074
1765792842426821400,23.2018212890625,8.5172700881958,-3.3147363662719727,-3.555140733718872
1765792842436831000,23.2118310546875,8.483110427856445,-3.4247429370880127,-3.5324718952178955
1765792842446840800,23.2218408203125,8.42040729522705,-3.6184940338134766,-3.4890735149383545
1765792842476839700,23.251839599609376,8.18438720703125,-4.199538707733154,-3.3985395431518555
1765792842516848000,23.29184814453125,7.702478408813477,-5.075846195220947,-3.3283636569976807
1765792842596895700,23.371895751953126,7.374492168426514,-5.67827033996582,-3.0894174575805664
1765792842656862700,23.43186279296875,7.185940265655518,-5.819726467132568,-3.265489339828491
1765792842666872600,23.44187255859375,7.195292949676514,-5.800037384033203,-3.279895305633545
1765792842676851700,23.451851806640626,7.240542411804199,-5.722401142120361,-3.316484212875366
1765792842686831000,23.4618310546875,7.289301872253418,-5.633622169494629,-3.3613638877868652
1765792842696840700,23.4718408203125,7.340259552001953,-5.538750648498535,-3.4078176021575928
1765792842706850600,23.4818505859375,7.355005741119385,-5.510258197784424,-3.422184467315674
1765792842746828500,23.52182861328125,7.522759437561035,-5.249933242797852,-3.466508388519287
1765792842756808000,23.531807861328126,7.596109867095947,-5.147879600524902,-3.4596002101898193
1765792842766817500,23.541817626953126,7.676536560058594,-5.042346954345703,-3.437427043914795
1765792842776827400,23.551827392578126,7.756380558013916,-4.945521831512451,-3.3986427783966064
1765792842786806500,23.561806640625,7.856903553009033,-4.841268539428711,-3.316861391067505
1765792842796786000,23.571785888671876,7.911806583404541,-4.794293403625488,-3.253990411758423
1765792842806795500,23.58179541015625,7.938388824462891,-4.773798942565918,-3.219194173812866
1765792842816775000,23.59177490234375,7.9768218994140625,-4.76384973526001,-3.1379053592681885
1765792842836764000,23.611763916015626,8.003335952758789,-4.764122486114502,-3.0692217350006104
1765792842856813800,23.631813720703125,8.008182525634766,-4.775082588195801,-3.039407730102539
1765792842876772400,23.6517724609375,7.975985050201416,-4.829875946044922,-3.0374908447265625
1765792842906771200,23.681771240234376,7.848995685577393,-5.022075176239014,-3.056535243988037
1765792842916750600,23.69175048828125,7.826567649841309,-5.0511250495910645,-3.0661652088165283
1765792842926790700,23.701790771484376,7.751318454742432,-5.146123886108398,-3.0991716384887695
1765792842956789500,23.73178955078125,7.616052627563477,-5.314835071563721,-3.1493899822235107
1765792842966799400,23.74179931640625,7.521621227264404,-5.414983749389648,-3.205237865447998
1765792842976778500,23.751778564453126,7.457198143005371,-5.481392860412598,-3.242671489715576
1765792842986788400,23.761788330078126,7.425468921661377,-5.512387752532959,-3.262881278991699
1765792842996767500,23.771767578125,7.357831954956055,-5.577075958251953,-3.305891513824463
1765792843006747000,23.781746826171876,7.2912917137146,-5.638391017913818,-3.3490307331085205
1765792843016787200,23.791787109375,7.22817325592041,-5.6953582763671875,-3.389218807220459
1765792843026796800,23.801796875,7.145493984222412,-5.766595363616943,-3.4436440467834473
1765792843046755300,23.82175537109375,7.08020544052124,-5.814350605010986,-3.497772216796875
1765792843056734700,23.831734619140626,7.037859916687012,-5.844318866729736,-3.533108711242676
1765792843066774800,23.84177490234375,7.0199875831604,-5.854628086090088,-3.5515477657318115
1765792843076784600,23.85178466796875,7.005246639251709,-5.863719463348389,-3.565626859664917
1765792843086794500,23.86179443359375,6.988204002380371,-5.880270957946777,-3.5718069076538086
1765792843096804000,23.87180419921875,6.986950874328613,-5.8854169845581055,-3.565777063369751
1765792843106814000,23.88181396484375,6.942434787750244,-5.942249774932861,-3.5584633350372314
1765792843116823800,23.89182373046875,6.9254679679870605,-5.961584568023682,-3.5591847896575928
1765792843126803000,23.901802978515626,6.868147373199463,-6.019796848297119,-3.5722529888153076
1765792843136843300,23.91184326171875,6.769847869873047,-6.120425224304199,-3.5888633728027344
1765792843166872600,23.94187255859375,6.476294040679932,-6.4028425216674805,-3.637526035308838
1765792843176851700,23.951851806640626,6.370862007141113,-6.509942054748535,-3.633618116378784
1765792843186831000,23.9618310546875,6.317882061004639,-6.563717365264893,-3.6293768882751465
1765792843196810200,23.971810302734376,6.198328495025635,-6.690206050872803,-3.6044764518737793
1765792843206789600,23.98178955078125,6.147465705871582,-6.755893707275391,-3.568887233734131
1765792843216829700,23.99182958984375,6.130651473999023,-6.78193998336792,-3.5483498573303223
1765792843226809000,24.00180908203125,6.108527183532715,-6.836306095123291,-3.481553316116333
1765792843246798000,24.021798095703126,6.059483528137207,-6.9146504402160645,-3.4118402004241943
1765792843266817500,24.041817626953126,5.958138465881348,-7.081475734710693,-3.24402117729187
1765792843276766500,24.051766357421876,5.932325839996338,-7.118655681610107,-3.2097742557525635
1765792843286745600,24.06174560546875,5.868450164794922,-7.233280181884766,-3.0677905082702637
1765792843296755500,24.07175537109375,5.826467990875244,-7.309436798095703,-2.965601682662964
1765792843306765000,24.08176513671875,5.783363342285156,-7.389137268066406,-2.850221633911133
1765792843316744400,24.091744384765626,5.74803352355957,-7.463673114776611,-2.7247209548950195
1765792843326784800,24.10178466796875,5.732463359832764,-7.522349834442139,-2.59297251701355
1765792843336794400,24.11179443359375,5.732231140136719,-7.544866561889648,-2.5272345542907715
1765792843346804200,24.12180419921875,5.73455810546875,-7.615060806274414,-2.3013253211975098
1765792843366762800,24.1417626953125,5.71701717376709,-7.699970722198486,-2.048551321029663
1765792843376742000,24.151741943359376,5.679206371307373,-7.799633502960205,-1.7557661533355713
1765792843386751700,24.161751708984376,5.665914058685303,-7.8544793128967285,-1.5410902500152588
1765792843396761300,24.17176123046875,5.663766860961914,-7.877275466918945,-1.428515076637268
1765792843406771200,24.181771240234376,5.70735502243042,-7.904077529907227,-1.0592663288116455
1765792843416750600,24.19175048828125,5.754070281982422,-7.9016571044921875,-0.7904872298240662
1765792843426760200,24.20176025390625,5.800361156463623,-7.8914265632629395,-0.5015835165977478
1765792843436770000,24.21177001953125,5.833042621612549,-7.881021022796631,-0.18843115866184235
1765792843446749200,24.221749267578126,5.845139503479004,-7.874269962310791,-0.02458338439464569
1765792843456759000,24.231759033203126,5.869302272796631,-7.849849700927734,0.3186486065387726
1765792843476778500,24.251778564453126,5.812669277191162,-7.796871185302734,1.2617731094360352
1765792843496798000,24.2717978515625,5.524138927459717,-7.8201823234558105,2.121087074279785
1765792843506807800,24.281807861328126,5.363317012786865,-7.800609111785889,2.5604140758514404
1765792843516787200,24.291787109375,5.282766819000244,-7.780395030975342,2.7799668312072754
1765792843526796800,24.301796875,5.0878682136535645,-7.640291690826416,3.451078176498413
1765792843536806700,24.311806640625,4.973978042602539,-7.502215385437012,3.891876459121704
1765792843546816500,24.32181640625,4.9171600341796875,-7.424898147583008,4.106435298919678
1765792843556795600,24.331795654296876,4.808328151702881,-7.251951694488525,4.523224353790283
1765792843576815000,24.351815185546876,4.56598424911499,-6.848451614379883,5.331124782562256
1765792956156661800,136.9316618652344,9.712529182434082,0.21947059035301208,-1.3375332355499268
1765792956176220400,136.95122045898438,9.712571144104004,0.253326952457428,-1.3312264680862427
1765792956196078800,136.97107885742187,9.714533805847168,0.23670046031475067,-1.3199223279953003
1765792956216067800,136.99106787109375,9.713223457336426,0.2732032835483551,-1.3225151300430298
1765792956226047000,137.001046875,9.712947845458984,0.29299023747444153,-1.320298671722412
1765792956236056800,137.01105688476562,9.713044166564941,0.3111991584300995,-1.3154140710830688
1765792956246005500,137.02100561523437,9.714062690734863,0.33151158690452576,-1.3028687238693237
1765792956255985000,137.03098486328125,9.715046882629395,0.33988797664642334,-1.2933402061462402
1765792956285922600,137.06092260742187,9.717316627502441,0.37339773774147034,-1.2667725086212158
1765792956365787100,137.140787109375,9.718782424926758,0.4054315388202667,-1.2455031871795654
1765792956425662500,137.2006623535156,9.718719482421875,0.36774975061416626,-1.257633090019226
1765792956465579500,137.24057958984375,9.706135749816895,0.3360636830329895,-1.3595513105392456
1765792956475589400,137.25058935546875,9.70165729522705,0.3359883725643158,-1.3911688327789307
1765792956495578400,137.27057836914062,9.692253112792969,0.33846211433410645,-1.4546723365783691
1765792956515537000,137.29053686523437,9.685562133789062,0.34160327911376953,-1.4978628158569336
1765792956525516000,137.30051611328125,9.681191444396973,0.35371729731559753,-1.523092269897461
1765792956595432000,137.37043188476562,9.673746109008789,0.3991161286830902,-1.5587626695632935
1765792956605411000,137.3804111328125,9.676671981811523,0.37680697441101074,-1.546096682548523
1765792956615390500,137.39039038085937,9.680115699768066,0.3512885868549347,-1.5304725170135498
1765792956625369600,137.40036962890625,9.682487487792969,0.32942554354667664,-1.5202924013137817
1765792956645297700,137.42029760742187,9.689266204833984,0.2836467921733856,-1.485954761505127
