time,seconds_elapsed,z,y,x
1765792819162956500,-0.06204345703125,17.152061462402344,-6.643909931182861,-1.2689268589019775
1765792819172966400,-0.05203369140625,0.12449848651885986,-0.22266076505184174,0.026336219161748886
1765792819182876200,-0.042123779296875,0.15801730751991272,-0.13407529890537262,0.043095629662275314
1765792819192655400,-0.0323447265625,0.22266076505184174,0.08858546614646912,0.021547814831137657
1765792819202465300,-0.02253466796875,0.20111294090747833,0.06224924325942993,0.014365210197865963
1765792819212344300,-0.01265576171875,0.0694318488240242,-0.1173158809542656,0.035913024097681046
1765792819222323700,-0.00267626953125,0.11252748221158981,-0.07182604819536209,-0.07182604819536209
1765792819232333600,0.00733349609375,0.0454898327589035,0,0.047884032130241394
1765792819242343200,0.01734326171875,0.10773907601833344,-0.004788403399288654,-0.05506663769483566
1765792819252291800,0.027291748046875,0.12689268589019775,-0.13407529890537262,-0.07182604819536209
1765792819262332200,0.037332275390625,0.07900865375995636,-0.31603461503982544,-0.12928688526153564
1765792819272311600,0.0473115234375,0.05506663769483566,-0.30885201692581177,-0.12689268589019775
1765792819282321200,0.057321044921875,0.08379705995321274,-0.20350714027881622,-0.028730420395731926
1765792819292270000,0.06727001953125,0.09816227108240128,-0.07422025501728058,-0.12689268589019775
1765792819302310100,0.07731005859375,0.15801730751991272,-0.06703764945268631,0.035913024097681046
1765792819312259000,0.087259033203125,0.11971008777618408,0.11013327538967133,-0.016759412363171577
1765792819322207700,0.097207763671875,0.1388636976480484,0.08858546614646912,-0.05027823522686958
1765792819332156400,0.107156494140625,0.05027823522686958,-0.0933738648891449,-0.002394201699644327
1765792819342166300,0.117166259765625,-0.011971008032560349,-0.1867477297782898,-0.0071826050989329815
1765792819352115000,0.127114990234375,0.0933738648891449,-0.26575639843940735,-0.05267243832349777
1765792819362124800,0.137124755859375,0.08858546614646912,-0.15322890877723694,-0.038307227194309235
1765792819372104000,0.14710400390625,0.13407529890537262,-0.1412578970193863,-0.09816227108240128
1765792819412082000,0.18708203125,0.13407529890537262,-0.05985504388809204,-0.05267243832349777
1765792819422061300,0.197061279296875,0.10295066982507706,-0.07661445438861847,-0.040701430290937424
1765792819432040400,0.20704052734375,0.07661445438861847,-0.0694318488240242,-0.0694318488240242
1765792819442050300,0.21705029296875,0.07661445438861847,-0.12928688526153564,0.016759412363171577
1765792819452029400,0.227029541015625,0.10295066982507706,-0.11252748221158981,-0.026336219161748886
1765792819462008800,0.2370087890625,0.1364694982767105,-0.047884032130241394,0.033518824726343155
1765792819472018400,0.247018310546875,0.08858546614646912,-0.19632454216480255,-0.0071826050989329815
1765792819481997800,0.256997802734375,0.038307227194309235,-0.1388636976480484,0.047884032130241394
1765792819522006300,0.29700634765625,0.10773907601833344,-0.08140286058187485,-0.1173158809542656
1765792819531985700,0.306985595703125,0.1604115068912506,-0.08619125932455063,-0.05267243832349777
1765792819541964800,0.31696484375,0.13407529890537262,-0.047884032130241394,-0.038307227194309235
1765792819551944000,0.32694384765625,0.0694318488240242,-0.08140286058187485,-0.11013327538967133
1765792819561953800,0.336953857421875,0.14604631066322327,-0.05027823522686958,-0.07900865375995636
1765792819571902500,0.34690234375,0.11971008777618408,0.038307227194309235,-0.021547814831137657
1765792819581912300,0.356912353515625,0.07661445438861847,-0.07661445438861847,-0.05985504388809204
1765792819591891500,0.366891357421875,0.090979665517807,-0.15083470940589905,-0.031124621629714966
1765792819631869700,0.40686962890625,0.14604631066322327,-0.08619125932455063,0.016759412363171577
1765792819641879300,0.41687939453125,0.15083470940589905,-0.11013327538967133,0.004788403399288654
1765792819651828000,0.426827880859375,0.1604115068912506,-0.011971008032560349,-0.07182604819536209
1765792819661807400,0.436807373046875,0.13407529890537262,0.016759412363171577,-0.07661445438861847
1765792819671817200,0.446817138671875,0.07182604819536209,-0.1412578970193863,0.016759412363171577
1765792819681826800,0.456826904296875,0.09576806426048279,-0.08858546614646912,-0.07900865375995636
1765792819691836700,0.466836669921875,0.06703764945268631,0.028730420395731926,-0.021547814831137657
1765792819701846300,0.47684619140625,0.06703764945268631,-0.035913024097681046,-0.05506663769483566
1765792819721835500,0.49683544921875,0.033518824726343155,-0.15801730751991272,-0.13168109953403473
1765792819731814700,0.506814697265625,0.07900865375995636,-0.040701430290937424,0.023942016065120697
1765792819741824500,0.516824462890625,0.06703764945268631,-0.047884032130241394,0.014365210197865963
1765792819751803600,0.5268037109375,0.10055647045373917,-0.05506663769483566,-0.047884032130241394
1765792819761813500,0.5368134765625,0.1173158809542656,-0.06224924325942993,-0.028730420395731926
1765792819771823000,0.546822998046875,0.1628057211637497,-0.090979665517807,-0.0454898327589035
1765792819781833000,0.5568330078125,0.15083470940589905,-0.035913024097681046,-0.06464344263076782
1765792819791781600,0.56678173828125,0.14844051003456116,0.05027823522686958,-0.023942016065120697
1765792819801761000,0.576760986328125,0.1388636976480484,0.3256114423274994,-0.038307227194309235
1765792819831729200,0.606729248046875,0.05985504388809204,0.26815059781074524,0.009576806798577309
1765792819841769500,0.61676953125,0.038307227194309235,0.23942017555236816,0.038307227194309235
1765792819851779300,0.626779296875,0,0.10295066982507706,0.08140286058187485
1765792819881778000,0.65677783203125,0.35913026332855225,0.5602431893348694,-0.09816227108240128
1765792819891757300,0.66675732421875,0.5722141861915588,0.6991068720817566,-0.2849099934101105
1765792819901736400,0.676736328125,0.6943184733390808,1.0223240852355957,-0.5363011956214905
1765792819911746300,0.686746337890625,1.01753568649292,1.3886369466781616,-0.811634361743927
1765792819941684000,0.71668408203125,1.1300631761550903,1.1683704853057861,-0.6703764796257019
1765792819961703700,0.73670361328125,0.8738836050033569,0.5602431893348694,-0.5195417404174805
1765792819971682800,0.746682861328125,0.8451532125473022,1.0845733880996704,-0.6033388376235962
1765792819981662000,0.756661865234375,0.6033388376235962,1.2952631711959839,-0.6488286852836609
1765792819991641300,0.766641357421875,0.35913026332855225,1.2832920551300049,-0.7086837291717529
1765792820001651200,0.776651123046875,0.13407529890537262,1.0414776802062988,-0.5506663918495178
1765792820011660800,0.786660888671875,-0.09816227108240128,1.072602391242981,-0.6847416758537292
1765792820021640200,0.79664013671875,-0.33997663855552673,1.0007762908935547,-0.6655880808830261
1765792820041659600,0.81665966796875,-1.2090718746185303,-0.3016694188117981,-0.7829039692878723
1765792820051638800,0.826638671875,-1.6352397203445435,-1.216254472732544,-0.6512228846549988
1765792820061648600,0.836648681640625,-2.011129379272461,-2.0638017654418945,-0.5291185975074768
1765792820071627800,0.846627685546875,-2.231395959854126,-2.7700912952423096,-0.1412578970193863
1765792820081668000,0.856668212890625,-2.3989901542663574,-3.8762125968933105,0.11013327538967133
1765792820091678000,0.866677978515625,-2.5234885215759277,-4.089296340942383,0.24899697303771973
1765792820101657000,0.876656982421875,-2.583343744277954,-3.663128614425659,0.4141969084739685
1765792820111636500,0.886636474609375,-2.8826189041137695,-3.090914487838745,0.26336219906806946
1765792820121646000,0.89664599609375,-3.0621838569641113,-2.5522189140319824,0.3016694188117981
1765792820141635300,0.91663525390625,-3.0573954582214355,-1.359906554222107,0.35673606395721436
1765792820161654800,0.93665478515625,-3.2297780513763428,-0.6512228846549988,0.47405192255973816
1765792820171634000,0.946634033203125,-3.404554843902588,-1.173158884048462,0.7876923680305481
1765792820181674200,0.95667431640625,-3.406949043273926,-1.3431471586227417,0.8978256583213806
1765792820191684000,0.96668408203125,-3.155557870864868,-1.158793568611145,0.8259995579719543
1765792820201693700,0.976693603515625,-2.920926094055176,-0.6943184733390808,0.8236053586006165
1765792820211673000,0.986673095703125,-2.4803929328918457,-1.0558429956436157,0.7613561153411865
1765792820221652200,0.99665234375,-2.2146365642547607,-1.5969325304031372,0.6584054827690125
1765792820231631600,1.006631591796875,-1.802833914756775,-1.7166426181793213,0.7398083209991455
1765792820241672000,1.016671875,-1.656787633895874,-1.139639973640442,1.0127472877502441
1765792820271609600,1.046609619140625,-0.30885201692581177,0.3878606855869293,0.1364694982767105
1765792820281619500,1.056619384765625,-0.5985504388809204,0.6823474764823914,-0.1843535304069519
1765792820291598600,1.0665986328125,-1.0989385843276978,0.9289502501487732,-0.2944868206977844
1765792820301577700,1.07657763671875,-1.6184803247451782,0.5195417404174805,-0.2968810200691223
1765792820311557000,1.08655712890625,-1.680729627609253,-0.05746084079146385,-0.5530605912208557
1765792820321597400,1.096597412109375,-1.6352397203445435,-0.5267243981361389,-0.3926490843296051
1765792820331576600,1.10657666015625,-1.6136919260025024,-0.8595184087753296,-0.3902548849582672
1765792820341586400,1.11658642578125,-1.7812861204147339,-0.545877993106842,-0.38067805767059326
1765792820371615700,1.14661572265625,-1.01753568649292,0.05027823522686958,-0.2849099934101105
1765792820381595000,1.156594970703125,-0.49320554733276367,0.1412578970193863,-0.3016694188117981
1765792820391543600,1.16654345703125,0.05985504388809204,0.40940847992897034,-0.3687070608139038
1765792820401553400,1.176553466796875,0.047884032130241394,0.7541735172271729,-0.5913678407669067
1765792820411532500,1.186532470703125,-0.35673606395721436,0.4668693244457245,-0.4692635238170624
1765792820421512000,1.196511962890625,-0.9409212470054626,0.05985504388809204,-0.42616790533065796
1765792820431491000,1.206490966796875,-1.2665326595306396,-0.047884032130241394,-0.2801215946674347
1765792820441531400,1.216531494140625,-1.2401964664459229,-0.2801215946674347,-0.16998831927776337
1765792820471499800,1.246499755859375,-0.5003881454467773,-0.33039984107017517,-0.45010992884635925
1765792820491488800,1.26648876953125,-0.4381389021873474,-0.31842881441116333,-0.2298433631658554
1765792820531436300,1.306436279296875,-0.7661445140838623,-0.019153613597154617,0.12689268589019775
1765792820541415400,1.31641552734375,-0.9026140570640564,0.13168109953403473,0.2753331959247589
1765792820551425300,1.32642529296875,-0.8834604024887085,0.035913024097681046,0.28730419278144836
1765792820571444700,1.34644482421875,-0.42856210470199585,-0.0071826050989329815,0.26815059781074524
1765792820581454600,1.35645458984375,-0.27054479718208313,-0.13168109953403473,0.05506663769483566
1765792820591433700,1.366433837890625,-0.2082955539226532,-0.20111294090747833,0.033518824726343155
1765792820601443600,1.376443603515625,-0.11252748221158981,-0.3208230137825012,-0.033518824726343155
1765792820611422700,1.386422607421875,-0.2968810200691223,-0.0933738648891449,0.12449848651885986
1765792820621432600,1.3964326171875,-0.2322375625371933,-0.0933738648891449,-0.07900865375995636
1765792820631411700,1.40641162109375,-0.09816227108240128,-0.06703764945268631,-0.08140286058187485
1765792820641421600,1.416421630859375,-0.09816227108240128,-0.26575639843940735,0.014365210197865963
1765792820651401000,1.42640087890625,0.016759412363171577,-0.7948749661445618,-0.47405192255973816
1765792820661410600,1.43641064453125,-0.05027823522686958,-0.5602431893348694,0.014365210197865963
1765792820691409400,1.466409423828125,1.1971008777618408,-0.004788403399288654,-0.7829039692878723
1765792820701419300,1.476419189453125,0.23942017555236816,-0.5602431893348694,-0.47884035110473633
1765792820711428900,1.486428955078125,-0.17717093229293823,-0.031124621629714966,0.05267243832349777
1765792820721438700,1.496438720703125,-0.26336219906806946,0.009576806798577309,-0.1867477297782898
1765792820731448300,1.5064482421875,-0.36152446269989014,-0.38307225704193115,-0.16998831927776337
1765792820741427700,1.516427734375,-0.26096799969673157,0.22744916379451752,0.11252748221158981
1765792820751437600,1.5264375,-0.2777273952960968,0.1628057211637497,0.10295066982507706
1765792820761447200,1.536447265625,-0.3974374830722809,-0.21308395266532898,0.05027823522686958
1765792820801455900,1.576455810546875,0.10534487664699554,0.026336219161748886,0.016759412363171577
1765792820811435000,1.58643505859375,-0.23702596127986908,-0.19393034279346466,0.026336219161748886
1765792820821414100,1.5964140625,-0.31603461503982544,-0.3663128614425659,0.06464344263076782
1765792820841372700,1.61637255859375,-0.23702596127986908,-0.3519476354122162,-0.23702596127986908
1765792820851382500,1.626382568359375,0.08140286058187485,-0.2298433631658554,-0.24181437492370605
1765792820861392400,1.636392333984375,0.026336219161748886,0.2801215946674347,-0.2561795711517334
1765792820871371500,1.64637158203125,-0.08140286058187485,0.4189853072166443,-0.12449848651885986
1765792820881381400,1.65638134765625,-0.2322375625371933,0.33279404044151306,0.014365210197865963
1765792820891360500,1.666360595703125,-0.13407529890537262,-0.028730420395731926,-0.16998831927776337
1765792820901370400,1.676370361328125,0.19153612852096558,0.2106897532939911,-0.24420857429504395
1765792820911349500,1.686349609375,0.272938996553421,0.22744916379451752,-0.24899697303771973
1765792820921359400,1.696359375,0.038307227194309235,0.4381389021873474,-0.2346317619085312
1765792820931369200,1.706369140625,-0.13407529890537262,0.35434186458587646,-0.08140286058187485
1765792820941378800,1.71637890625,-0.5147533416748047,-0.13407529890537262,-0.090979665517807
1765792820951388700,1.726388671875,-0.4118026793003082,-0.5889736413955688,-0.07182604819536209
1765792820961398300,1.736398193359375,-0.2537853717803955,-0.05506663769483566,-0.09576806426048279
1765792821001376500,1.77637646484375,0.009576806798577309,0,0.004788403399288654
1765792821011386000,1.78638623046875,0.038307227194309235,0.20350714027881622,0.043095629662275314
1765792821021396000,1.79639599609375,-0.028730420395731926,0.19153612852096558,0.1628057211637497
1765792821031405800,1.80640576171875,-0.08619125932455063,0.2298433631658554,0.0933738648891449
1765792821041415400,1.81641552734375,-0.2801215946674347,0.23942017555236816,0.22266076505184174
1765792821051425300,1.82642529296875,-0.5386953949928284,-0.07661445438861847,0.1412578970193863
1765792821061404400,1.836404296875,-0.7182605266571045,-0.038307227194309235,0.13407529890537262
1765792821071414300,1.846414306640625,-0.5841852426528931,-0.19871874153614044,0.27054479718208313
1765792821081424100,1.856424072265625,-0.4668693244457245,-0.22026655077934265,0.05506663769483566
1765792821111422700,1.886422607421875,-0.2346317619085312,-0.004788403399288654,0.10534487664699554
1765792821121432600,1.8964326171875,0.0071826050989329815,-0.181959331035614,0.06224924325942993
1765792821131411700,1.90641162109375,0.10055647045373917,-0.07422025501728058,0.09816227108240128
1765792821141421600,1.916421630859375,0.23942017555236816,0.07661445438861847,0.0071826050989329815
1765792821151370200,1.926370361328125,0.3902548849582672,0.19393034279346466,0
1765792821161410600,1.93641064453125,0.4836287498474121,0.16519992053508759,-0.05985504388809204
1765792821171420400,1.94642041015625,0.23702596127986908,-0.3280056416988373,-0.06703764945268631
1765792821201419300,1.976419189453125,0.3232172429561615,0.038307227194309235,-0.10773907601833344
1765792821211428900,1.986428955078125,0.21547815203666687,-0.11971008777618408,-0.019153613597154617
1765792821221438700,1.996438720703125,0.23702596127986908,-0.4836287498474121,-0.026336219161748886
1765792821231417900,2.00641796875,0.23702596127986908,-0.028730420395731926,-0.13407529890537262
1765792821241427700,2.016427734375,0.15083470940589905,0.011971008032560349,-0.05506663769483566
1765792821251406800,2.02640673828125,0.1412578970193863,0.2082955539226532,0.011971008032560349
1765792821261416700,2.036416748046875,-0.10055647045373917,0.363918662071228,0.016759412363171577
1765792821271395800,2.046395751953125,-0.3471592366695404,0.16519992053508759,0.1173158809542656
1765792821281375200,2.056375244140625,-0.2346317619085312,-0.05746084079146385,0.038307227194309235
1765792821301364200,2.0763642578125,0.2801215946674347,-0.05027823522686958,-0.033518824726343155
1765792821311343400,2.08634326171875,0.49320554733276367,-0.05506663769483566,-0.0454898327589035
1765792821321383700,2.0963837890625,0.3280056416988373,-0.08379705995321274,0.11013327538967133
1765792821331393500,2.1063935546875,0.13168109953403473,-0.08619125932455063,0.17717093229293823
1765792821341403400,2.1164033203125,-0.040701430290937424,-0.026336219161748886,0.05746084079146385
1765792821351382500,2.126382568359375,-0.07900865375995636,-0.14365209639072418,0.1628057211637497
1765792821361361700,2.136361572265625,0.004788403399288654,-0.19393034279346466,-0.06464344263076782
1765792821371341000,2.146341064453125,0.023942016065120697,-0.08379705995321274,-0.026336219161748886
1765792821381351000,2.156350830078125,0.011971008032560349,-0.1867477297782898,-0.033518824726343155
1765792821391330000,2.166330078125,0.043095629662275314,-0.1628057211637497,-0.033518824726343155
1765792821431277600,2.206277587890625,-0.24181437492370605,-0.2825157940387726,0.038307227194309235
1765792821441287400,2.216287353515625,-0.17956513166427612,-0.028730420395731926,0.05506663769483566
1765792821451266600,2.2262666015625,-0.047884032130241394,0.040701430290937424,-0.014365210197865963
1765792821461245700,2.23624560546875,-0.10534487664699554,-0.37828385829925537,0.016759412363171577
1765792821471255600,2.246255615234375,0.09816227108240128,-0.2849099934101105,-0.1173158809542656
1765792821481265400,2.256265380859375,0.033518824726343155,-0.035913024097681046,-0.023942016065120697
1765792821501254400,2.27625439453125,0,0.12928688526153564,-0.07900865375995636
1765792821541202000,2.316201904296875,-0.2513911724090576,0.028730420395731926,-0.05506663769483566
1765792821551181000,2.32618115234375,-0.2106897532939911,0.10055647045373917,0.019153613597154617
1765792821561221400,2.336221435546875,-0.304063618183136,0.09576806426048279,0.05746084079146385
1765792821571170000,2.346170166015625,-0.22026655077934265,0.10295066982507706,0.002394201699644327
1765792821581180000,2.356179931640625,-0.2513911724090576,0.17238251864910126,0.002394201699644327
1765792821611148000,2.38614794921875,0.06464344263076782,-0.15801730751991272,-0.026336219161748886
1765792821621127400,2.39612744140625,-0.011971008032560349,-0.2513911724090576,0.06464344263076782
1765792821631137300,2.40613720703125,0.023942016065120697,-0.17477671802043915,0.05506663769483566
1765792821641147000,2.41614697265625,0.07182604819536209,-0.1412578970193863,0.028730420395731926
1765792821651126300,2.426126220703125,0.10295066982507706,0.002394201699644327,0.05746084079146385
1765792821661105400,2.43610546875,0.038307227194309235,0.002394201699644327,0.040701430290937424
1765792821671084800,2.446084716796875,-0.10534487664699554,0.019153613597154617,0.05267243832349777
1765792821681094400,2.456094482421875,-0.090979665517807,0.040701430290937424,-0.014365210197865963
1765792821691104300,2.466104248046875,-0.1173158809542656,0.14844051003456116,0.0933738648891449
1765792821741122600,2.51612255859375,-0.07900865375995636,0.09816227108240128,0.0071826050989329815
1765792821751071200,2.5260712890625,0.028730420395731926,-0.19153612852096558,-0.047884032130241394
1765792821761081000,2.5360810546875,0.05027823522686958,-0.12449848651885986,0.0071826050989329815
1765792821771060200,2.546060302734375,-0.009576806798577309,-0.06224924325942993,0.009576806798577309
1765792821781070000,2.556070068359375,0.06464344263076782,-0.09576806426048279,0.031124621629714966
1765792821791079700,2.56607958984375,0.12928688526153564,0.1628057211637497,-0.05027823522686958
1765792821801089500,2.576089599609375,0.05506663769483566,0.1843535304069519,-0.014365210197865963
1765792821831027200,2.606027099609375,0.019153613597154617,-0.004788403399288654,-0.05027823522686958
1765792821841037000,2.616037109375,-0.014365210197865963,-0.033518824726343155,-0.040701430290937424
1765792821851047000,2.626046875,-0.0933738648891449,-0.08379705995321274,-0.021547814831137657
1765792821861026000,2.636026123046875,-0.090979665517807,-0.05506663769483566,-0.028730420395731926
1765792821881015000,2.65601513671875,-0.06703764945268631,0.023942016065120697,-0.05027823522686958
1765792821890994400,2.665994384765625,0.043095629662275314,0.07900865375995636,-0.05506663769483566
1765792821900973600,2.6759736328125,0.0933738648891449,-0.10055647045373917,-0.10773907601833344
1765792821910953000,2.685952880859375,0.035913024097681046,-0.16759411990642548,-0.1173158809542656
1765792821930942000,2.70594189453125,-0.05267243832349777,-0.1388636976480484,0.07422025501728058
1765792821960940500,2.7359404296875,-0.07422025501728058,0.08379705995321274,0.08619125932455063
1765792821970920000,2.745919921875,-0.21547815203666687,0.2106897532939911,0.1364694982767105
1765792821990909000,2.765908935546875,-0.090979665517807,-0.08858546614646912,-0.002394201699644327
1765792822000949200,2.77594921875,0.019153613597154617,0.05746084079146385,-0.05267243832349777
1765792822010928400,2.785928466796875,0.026336219161748886,0.10534487664699554,-0.009576806798577309
1765792822040927200,2.81592724609375,0.019153613597154617,0.08140286058187485,0.031124621629714966
1765792822050937000,2.82593701171875,0,-0.10773907601833344,0.004788403399288654
1765792822060946700,2.83594677734375,0,-0.14844051003456116,0
1765792822070926000,2.845926025390625,0,-0.2106897532939911,-0.08619125932455063
1765792822080905200,2.8559052734375,0.05027823522686958,-0.07900865375995636,-0.07422025501728058
1765792822090884400,2.86588427734375,0.05746084079146385,0.009576806798577309,-0.07422025501728058
1765792822100924700,2.875924560546875,-0.05267243832349777,-0.028730420395731926,-0.07422025501728058
1765792822110904000,2.885904052734375,-0.0071826050989329815,-0.06224924325942993,-0.11971008777618408
1765792822140872200,2.9158720703125,0.1173158809542656,-0.0454898327589035,-0.14365209639072418
1765792822150821000,2.925821044921875,0.14365209639072418,-0.19632454216480255,-0.12689268589019775
1765792822160830700,2.935830810546875,0.2059013396501541,-0.14365209639072418,-0.035913024097681046
1765792822170840600,2.945840576171875,0.14365209639072418,-0.09816227108240128,0.0454898327589035
1765792822180819700,2.95581982421875,0.05506663769483566,0.0454898327589035,-0.009576806798577309
1765792822190829600,2.96582958984375,0.05027823522686958,0.10534487664699554,-0.019153613597154617
1765792822200839400,2.97583935546875,-0.06703764945268631,0.002394201699644327,-0.038307227194309235
1765792822210818600,2.985818603515625,-0.08858546614646912,-0.035913024097681046,-0.05746084079146385
1765792822240817400,3.0158173828125,-0.09816227108240128,-0.1173158809542656,0.014365210197865963
1765792822250796500,3.025796630859375,-0.11971008777618408,-0.028730420395731926,0.023942016065120697
1765792822260806400,3.035806396484375,-0.11252748221158981,0.035913024097681046,0.026336219161748886
1765792822270785500,3.04578564453125,-0.15801730751991272,-0.09816227108240128,0.023942016065120697
1765792822280795400,3.05579541015625,-0.12928688526153564,-0.002394201699644327,0.0694318488240242
1765792822290774500,3.0657744140625,-0.16519992053508759,0.090979665517807,0.10295066982507706
1765792822300784400,3.075784423828125,-0.1412578970193863,-0.026336219161748886,0.06464344263076782
1765792822310763500,3.085763427734375,-0.06464344263076782,0.011971008032560349,0.028730420395731926
1765792822320773400,3.0957734375,0.040701430290937424,0.10534487664699554,0.038307227194309235
1765792822370730800,3.145730712890625,-0.047884032130241394,-0.05506663769483566,0.033518824726343155
1765792822380740400,3.155740234375,-0.06224924325942993,-0.0454898327589035,0.07422025501728058
1765792822390719700,3.1657197265625,-0.031124621629714966,-0.11971008777618408,0
1765792822400729300,3.175729248046875,-0.047884032130241394,-0.06703764945268631,-0.09816227108240128
1765792822410708700,3.185708740234375,0.009576806798577309,-0.0933738648891449,-0.06464344263076782
1765792822420718300,3.19571826171875,0.06703764945268631,-0.0071826050989329815,-0.08619125932455063
1765792822430697700,3.20569775390625,0.10773907601833344,0.011971008032560349,-0.033518824726343155
1765792822440707600,3.21570751953125,0.0694318488240242,0.05267243832349777,-0.10295066982507706
1765792822490695200,3.265695068359375,-0.040701430290937424,-0.11013327538967133,0.0454898327589035
1765792822500674600,3.275674560546875,-0.0071826050989329815,0.07661445438861847,-0.028730420395731926
1765792822510684200,3.28568408203125,0.026336219161748886,0.1173158809542656,0.002394201699644327
1765792822520694000,3.295694091796875,-0.0694318488240242,-0.0071826050989329815,-0.019153613597154617
1765792822530642700,3.305642578125,0.035913024097681046,-0.08140286058187485,-0.033518824726343155
1765792822540683000,3.31568310546875,0.08379705995321274,-0.014365210197865963,-0.016759412363171577
1765792822590640400,3.365640380859375,-0.11013327538967133,-0.05267243832349777,-0.035913024097681046
1765792822600680700,3.3756806640625,-0.1388636976480484,-0.043095629662275314,0.07661445438861847
1765792822610659800,3.385659912109375,-0.15322890877723694,0.009576806798577309,0.07661445438861847
1765792822620669700,3.395669677734375,-0.06224924325942993,-0.014365210197865963,0.033518824726343155
1765792822630648800,3.40564892578125,-0.06464344263076782,-0.08619125932455063,-0.05027823522686958
1765792822640689200,3.415689208984375,-0.1173158809542656,-0.1388636976480484,-0.014365210197865963
1765792822650699000,3.425698974609375,-0.043095629662275314,-0.004788403399288654,0.07182604819536209
1765792822700656000,3.47565625,0.05746084079146385,-0.08858546614646912,-0.021547814831137657
1765792822710666000,3.485666015625,0.06224924325942993,0.05506663769483566,0.035913024097681046
1765792822720675800,3.49567578125,-0.004788403399288654,-0.011971008032560349,-0.038307227194309235
1765792822730655000,3.505655029296875,-0.05027823522686958,-0.0071826050989329815,-0.014365210197865963
1765792822740664800,3.515664794921875,-0.0071826050989329815,-0.009576806798577309,-0.06224924325942993
1765792822750644000,3.52564404296875,-0.0071826050989329815,0.023942016065120697,-0.07182604819536209
1765792822760623400,3.535623291015625,-0.011971008032560349,0.021547814831137657,-0.05746084079146385
1765792822790622000,3.5656220703125,-0.0454898327589035,-0.002394201699644327,0.05506663769483566
1765792822800631800,3.5756318359375,-0.08140286058187485,-0.08619125932455063,0.06703764945268631
1765792822810641700,3.5856416015625,-0.014365210197865963,0.026336219161748886,-0.011971008032560349
1765792822820651300,3.5956513671875,0.002394201699644327,-0.011971008032560349,-0.05746084079146385
1765792822830661000,3.6056611328125,0.043095629662275314,-0.05027823522686958,-0.038307227194309235
1765792822840671000,3.6156708984375,-0.028730420395731926,-0.07182604819536209,-0.08858546614646912
1765792822850650000,3.625650146484375,0.023942016065120697,-0.10534487664699554,0.026336219161748886
1765792822870639000,3.64563916015625,-0.06703764945268631,0.031124621629714966,-0.043095629662275314
1765792822890628000,3.665628173828125,-0.038307227194309235,-0.019153613597154617,0.014365210197865963
1765792822900638000,3.675637939453125,-0.021547814831137657,0.031124621629714966,0
1765792822910617000,3.6856171875,-0.12210428714752197,0.002394201699644327,0.016759412363171577
1765792822920627000,3.695626953125,-0.11971008777618408,0.06224924325942993,0.016759412363171577
1765792822930636800,3.70563671875,-0.07422025501728058,0.26336219906806946,-0.031124621629714966
1765792822940616000,3.715615966796875,0.021547814831137657,0.14604631066322327,0.035913024097681046
1765792822950595000,3.725594970703125,-0.002394201699644327,-0.035913024097681046,0.035913024097681046
1765792822980655000,3.755655029296875,0.035913024097681046,-0.0933738648891449,0
1765792822990664700,3.765664794921875,0.040701430290937424,-0.0071826050989329815,-0.043095629662275314
1765792823000674600,3.775674560546875,0.035913024097681046,-0.0071826050989329815,-0.043095629662275314
1765792823010684200,3.78568408203125,0.08379705995321274,-0.05746084079146385,0.05027823522686958
1765792823020694000,3.795694091796875,0.15083470940589905,-0.1867477297782898,-0.033518824726343155
1765792823030703900,3.805703857421875,0.22266076505184174,-0.15801730751991272,-0.07182604819536209
1765792823040713500,3.81571337890625,0.2561795711517334,0.002394201699644327,-0.043095629662275314
1765792823050723300,3.825723388671875,0.10295066982507706,-0.026336219161748886,-0.05267243832349777
1765792823060733200,3.835733154296875,0.033518824726343155,-0.10534487664699554,0
1765792823090762500,3.865762451171875,-0.06703764945268631,0.11971008777618408,-0.009576806798577309
1765792823100802800,3.875802734375,-0.11971008777618408,0.1388636976480484,0.014365210197865963
1765792823110782000,3.885781982421875,-0.06703764945268631,0.06703764945268631,0.023942016065120697
1765792823120822300,3.895822265625,-0.028730420395731926,-0.002394201699644327,0.011971008032560349
1765792823130801400,3.905801513671875,0.035913024097681046,-0.10055647045373917,0.040701430290937424
1765792823140811300,3.915811279296875,0.1149216815829277,-0.1628057211637497,0
1765792823150790400,3.925790283203125,0.14365209639072418,-0.13407529890537262,0.031124621629714966
1765792823170779400,3.945779296875,0.05985504388809204,-0.05267243832349777,-0.031124621629714966
1765792823190829600,3.96582958984375,-0.05985504388809204,-0.038307227194309235,-0.040701430290937424
1765792823200808700,3.97580859375,-0.11252748221158981,-0.043095629662275314,-0.031124621629714966
1765792823210788000,3.9857880859375,-0.06224924325942993,0.002394201699644327,-0.0694318488240242
1765792823220767200,3.995767333984375,-0.0454898327589035,0.047884032130241394,-0.009576806798577309
1765792823230746600,4.00574658203125,-0.05506663769483566,0.002394201699644327,0.05746084079146385
1765792823240787000,4.015786865234375,-0.016759412363171577,-0.0454898327589035,0.0454898327589035
1765792823250796500,4.025796630859375,-0.09816227108240128,-0.028730420395731926,-0.019153613597154617
1765792823260776000,4.03577587890625,-0.07900865375995636,-0.05746084079146385,0.016759412363171577
1765792823280765000,4.055764892578125,-0.06464344263076782,0.019153613597154617,0.002394201699644327
1765792823310702600,4.08570263671875,-0.009576806798577309,-0.028730420395731926,-0.06703764945268631
1765792823320712400,4.09571240234375,0,-0.1843535304069519,-0.05746084079146385
1765792823330691600,4.105691650390625,-0.023942016065120697,-0.12928688526153564,0.0071826050989329815
1765792823340701400,4.115701416015625,-0.019153613597154617,-0.0071826050989329815,-0.05985504388809204
1765792823350680600,4.1256806640625,-0.1173158809542656,0.004788403399288654,0.038307227194309235
1765792823360690400,4.1356904296875,-0.05746084079146385,-0.05267243832349777,0.023942016065120697
1765792823370669600,4.145669677734375,-0.07900865375995636,-0.040701430290937424,-0.09816227108240128
1765792823380679400,4.155679443359375,-0.09816227108240128,0.08619125932455063,0.002394201699644327
1765792823390658600,4.165658447265625,-0.11252748221158981,-0.026336219161748886,0.06703764945268631
1765792823410678300,4.18567822265625,-0.023942016065120697,0.2849099934101105,0.08619125932455063
1765792823420688000,4.19568798828125,-0.0454898327589035,0.11971008777618408,0.0694318488240242
1765792823430697700,4.20569775390625,0.040701430290937424,-0.20111294090747833,0.043095629662275314
1765792823440707600,4.21570751953125,0.090979665517807,-0.2561795711517334,-0.11252748221158981
1765792823450717200,4.22571728515625,0.2082955539226532,-0.14844051003456116,-0.033518824726343155
1765792823460727000,4.23572705078125,0.15083470940589905,-0.13168109953403473,-0.011971008032560349
1765792823470737000,4.24573681640625,0.13168109953403473,-0.19871874153614044,-0.0454898327589035
1765792823480746500,4.25574658203125,0.026336219161748886,-0.22266076505184174,-0.05267243832349777
1765792823490726000,4.265725830078125,0.011971008032560349,-0.2753331959247589,-0.019153613597154617
1765792823500735500,4.275735595703125,0.014365210197865963,-0.05746084079146385,-0.06464344263076782
1765792823530764800,4.305764892578125,-0.047884032130241394,-0.17238251864910126,0.09816227108240128
1765792823540744200,4.315744140625,0.07661445438861847,-0.13407529890537262,-0.0071826050989329815
1765792823550723300,4.325723388671875,0.15562310814857483,0.1412578970193863,-0.0454898327589035
1765792823560733200,4.335733154296875,0.12449848651885986,-0.05027823522686958,0.023942016065120697
1765792823570712300,4.34571240234375,0.33518823981285095,0,-0.040701430290937424
1765792823580691700,4.355691650390625,0.2537853717803955,0.40701428055763245,-0.035913024097681046
1765792823590670800,4.3656708984375,0.13407529890537262,0.1843535304069519,0.019153613597154617
1765792823600711200,4.375711181640625,0.0071826050989329815,-0.17238251864910126,0.009576806798577309
1765792823640750000,4.41575,0.06464344263076782,0.026336219161748886,-0.08619125932455063
1765792823650729500,4.4257294921875,0.043095629662275314,0.08140286058187485,-0.06464344263076782
1765792823660708600,4.43570849609375,0.043095629662275314,0.08140286058187485,-0.06224924325942993
1765792823670688000,4.44568798828125,0.05746084079146385,-0.011971008032560349,-0.10534487664699554
1765792823680697600,4.455697509765625,0.06703764945268631,-0.040701430290937424,0.014365210197865963
1765792823690707500,4.46570751953125,0.038307227194309235,-0.0694318488240242,-0.12210428714752197
1765792823700686800,4.475686767578125,0,-0.1388636976480484,-0.090979665517807
1765792823710666000,4.485666015625,0.028730420395731926,-0.12449848651885986,-0.090979665517807
1765792823740634000,4.515634033203125,-0.0694318488240242,-0.0454898327589035,0.028730420395731926
1765792823750644000,4.52564404296875,-0.047884032130241394,-0.040701430290937424,0.08858546614646912
1765792823760623400,4.535623291015625,-0.002394201699644327,-0.10773907601833344,0.07422025501728058
1765792823770633000,4.545633056640625,0.07661445438861847,-0.033518824726343155,0
1765792823780673300,4.55567333984375,0.016759412363171577,-0.0071826050989329815,0.1149216815829277
1765792823790683100,4.56568310546875,-0.11013327538967133,-0.1173158809542656,0.05985504388809204
1765792823800723500,4.575723388671875,-0.07661445438861847,-0.031124621629714966,0.13168109953403473
1765792823810702600,4.58570263671875,0.014365210197865963,0.047884032130241394,0.023942016065120697
1765792823820712400,4.59571240234375,0.028730420395731926,0.0694318488240242,0.028730420395731926
1765792823860751400,4.63575146484375,-0.08140286058187485,-0.10055647045373917,-0.043095629662275314
1765792823880771000,4.65577099609375,0.019153613597154617,-0.05027823522686958,-0.038307227194309235
1765792823890750200,4.665750244140625,0.009576806798577309,0.035913024097681046,-0.090979665517807
1765792823900760000,4.675760009765625,0.08140286058187485,0.011971008032560349,-0.040701430290937424
1765792823910769700,4.685769775390625,0.028730420395731926,-0.023942016065120697,-0.08619125932455063
1765792823920810000,4.69581005859375,0.08379705995321274,-0.016759412363171577,0.004788403399288654
1765792823940799000,4.715799072265625,-0.05506663769483566,-0.10295066982507706,-0.08619125932455063
1765792823950808800,4.725808837890625,0,-0.14844051003456116,-0.0071826050989329815
1765792823960818400,4.735818359375,0.028730420395731926,-0.12210428714752197,-0.07661445438861847
1765792823970828300,4.745828369140625,-0.019153613597154617,-0.038307227194309235,-0.06464344263076782
1765792823980838100,4.755838134765625,-0.0071826050989329815,0.0933738648891449,-0.0454898327589035
1765792823990847700,4.76584765625,-0.026336219161748886,0.08858546614646912,-0.021547814831137657
1765792824000888000,4.77588818359375,-0.040701430290937424,-0.019153613597154617,-0.004788403399288654
1765792824010867500,4.785867431640625,-0.05267243832349777,-0.05506663769483566,-0.021547814831137657
1765792824020907800,4.79590771484375,-0.06703764945268631,-0.038307227194309235,0.002394201699644327
1765792824040896800,4.815896728515625,-0.08619125932455063,-0.021547814831137657,0.08140286058187485
1765792824060885800,4.8358857421875,-0.040701430290937424,-0.1388636976480484,-0.14365209639072418
1765792824070865000,4.845864990234375,-0.05746084079146385,-0.15083470940589905,-0.1149216815829277
1765792824080905200,4.8559052734375,-0.028730420395731926,-0.05267243832349777,-0.08619125932455063
1765792824090884400,4.86588427734375,-0.028730420395731926,0.016759412363171577,-0.10055647045373917
1765792824100894200,4.875894287109375,-0.11252748221158981,0.023942016065120697,0
1765792824110873600,4.88587353515625,-0.004788403399288654,-0.08858546614646912,0.011971008032560349
1765792824120913700,4.89591357421875,-0.05985504388809204,-0.031124621629714966,-0.019153613597154617
1765792824130923500,4.905923583984375,-0.023942016065120697,-0.07900865375995636,0.004788403399288654
1765792824160922400,4.93592236328125,-0.021547814831137657,-0.043095629662275314,0.033518824726343155
1765792824170901500,4.945901611328125,-0.038307227194309235,-0.07182604819536209,-0.043095629662275314
1765792824180911400,4.955911376953125,-0.090979665517807,-0.17477671802043915,0.0071826050989329815
1765792824190890500,4.965890380859375,-0.10534487664699554,-0.19632454216480255,0.05985504388809204
1765792824200930800,4.975930908203125,-0.09816227108240128,-0.12689268589019775,0.0454898327589035
1765792824210910200,4.98591015625,0.0694318488240242,-0.043095629662275314,0.047884032130241394
1765792824220950300,4.9959501953125,0.002394201699644327,-0.05985504388809204,0.05985504388809204
1765792824230960000,5.005960205078125,-0.06464344263076782,-0.11013327538967133,0.05985504388809204
1765792824240970000,5.015969970703125,-0.033518824726343155,-0.035913024097681046,-0.011971008032560349
1765792824270938000,5.045938232421875,-0.040701430290937424,-0.043095629662275314,-0.035913024097681046
1765792824280978400,5.055978515625,-0.11252748221158981,-0.05267243832349777,-0.06464344263076782
1765792824290988300,5.06598828125,-0.16519992053508759,0.07422025501728058,-0.035913024097681046
1765792824301028600,5.076028564453125,-0.07900865375995636,-0.009576806798577309,-0.08379705995321274
1765792824311007700,5.0860078125,0.004788403399288654,-0.05985504388809204,-0.07661445438861847
1765792824330996700,5.105996826171875,0.038307227194309235,0.040701430290937424,-0.043095629662275314
1765792824341006600,5.116006591796875,0.019153613597154617,0.07422025501728058,0.009576806798577309
1765792824350985700,5.12598583984375,0.019153613597154617,0.009576806798577309,0.016759412363171577
1765792824380984600,5.155984619140625,-0.047884032130241394,-0.031124621629714966,0.021547814831137657
1765792824390963700,5.165963623046875,-0.1388636976480484,-0.038307227194309235,0.043095629662275314
1765792824401004000,5.176004150390625,-0.11013327538967133,-0.06224924325942993,0.090979665517807
1765792824411014000,5.186013916015625,-0.13168109953403473,-0.1867477297782898,0.040701430290937424
1765792824421023700,5.196023681640625,-0.023942016065120697,-0.14844051003456116,-0.06464344263076782
1765792824430972400,5.205972412109375,-0.033518824726343155,-0.0454898327589035,-0.009576806798577309
1765792824440982000,5.21598193359375,0.002394201699644327,-0.06464344263076782,0.0694318488240242
1765792824450961400,5.22596142578125,-0.021547814831137657,-0.014365210197865963,-0.004788403399288654
1765792824460940500,5.2359404296875,-0.016759412363171577,0.06464344263076782,0.028730420395731926
1765792824500949200,5.27594921875,0,0.10534487664699554,0
1765792824520968700,5.29596875,-0.033518824726343155,0.038307227194309235,0.023942016065120697
1765792824530947800,5.30594775390625,-0.05027823522686958,-0.033518824726343155,-0.021547814831137657
1765792824540927200,5.31592724609375,-0.014365210197865963,-0.11252748221158981,0.019153613597154617
1765792824550876000,5.3258759765625,-0.09816227108240128,-0.002394201699644327,-0.08379705995321274
1765792824560916200,5.335916259765625,-0.08379705995321274,-0.05027823522686958,-0.05985504388809204
1765792824580905200,5.3559052734375,0.07661445438861847,-0.043095629662275314,-0.05506663769483566
1765792824590884400,5.36588427734375,-0.023942016065120697,-0.043095629662275314,-0.043095629662275314
1765792824600894200,5.375894287109375,0,-0.004788403399288654,-0.009576806798577309
1765792824610873600,5.38587353515625,-0.06464344263076782,0.026336219161748886,0.05267243832349777
1765792824620883200,5.39588330078125,-0.011971008032560349,0.10295066982507706,0.004788403399288654
1765792824630893000,5.40589306640625,-0.05267243832349777,-0.004788403399288654,0.07900865375995636
1765792824640903000,5.41590283203125,-0.06703764945268631,-0.08858546614646912,0
1765792824650882000,5.425882080078125,-0.05746084079146385,-0.090979665517807,0.05985504388809204
1765792824660892000,5.435891845703125,-0.14604631066322327,-0.06224924325942993,0.05985504388809204
1765792824670871000,5.44587109375,-0.12689268589019775,-0.1173158809542656,-0.0454898327589035
1765792824710879500,5.48587939453125,0.16759411990642548,-0.12928688526153564,-0.05267243832349777
1765792824720889300,5.495889404296875,0.16519992053508759,-0.06703764945268631,-0.06703764945268631
1765792824730899200,5.505899169921875,0.009576806798577309,-0.10295066982507706,-0.06464344263076782
1765792824740908800,5.51590869140625,-0.043095629662275314,-0.14365209639072418,0.033518824726343155
1765792824750918700,5.525918701171875,-0.08140286058187485,0.026336219161748886,0
1765792824760928500,5.535928466796875,-0.033518824726343155,0.033518824726343155,0.021547814831137657
1765792824770907600,5.54590771484375,-0.1412578970193863,-0.028730420395731926,0.016759412363171577
1765792824790896600,5.565896728515625,-0.047884032130241394,-0.06464344263076782,0.035913024097681046
1765792824800906500,5.575906494140625,-0.07182604819536209,-0.011971008032560349,0.004788403399288654
1765792824810885600,5.5858857421875,0.011971008032560349,-0.08379705995321274,0.031124621629714966
1765792824820895500,5.5958955078125,0.0694318488240242,-0.14844051003456116,-0.011971008032560349
1765792824830905300,5.6059052734375,0.026336219161748886,-0.09816227108240128,-0.009576806798577309
1765792824840915000,5.6159150390625,0.021547814831137657,-0.019153613597154617,0.009576806798577309
1765792824850894300,5.625894287109375,-0.08379705995321274,-0.12210428714752197,0.016759412363171577
1765792824860904000,5.635904052734375,-0.12449848651885986,-0.09816227108240128,-0.023942016065120697
1765792824870913800,5.645913818359375,-0.1388636976480484,-0.011971008032560349,0.07182604819536209
1765792824910891800,5.685891845703125,-0.090979665517807,0.11971008777618408,0
1765792824920901600,5.695901611328125,-0.15083470940589905,0.12449848651885986,0.08858546614646912
1765792824930880800,5.705880859375,-0.021547814831137657,-0.09816227108240128,0.014365210197865963
1765792824940890600,5.715890625,0.0071826050989329815,0.17238251864910126,0.002394201699644327
1765792824950869800,5.725869873046875,0.18914192914962769,-0.08140286058187485,-0.07900865375995636
1765792824970858800,5.745858642578125,0.13407529890537262,-0.08619125932455063,0
1765792824980868600,5.75586865234375,0.23942017555236816,-0.009576806798577309,-0.11971008777618408
1765792825010898000,5.78589794921875,0.2059013396501541,-0.12449848651885986,-0.10773907601833344
1765792825020877000,5.795876953125,0.17238251864910126,-0.1628057211637497,-0.043095629662275314
1765792825030887000,5.805886962890625,0.07182604819536209,-0.12689268589019775,0.002394201699644327
1765792825040896800,5.815896728515625,0.0694318488240242,-0.11252748221158981,-0.0071826050989329815
1765792825050876000,5.8258759765625,-0.009576806798577309,-0.12449848651885986,0.011971008032560349
1765792825060885800,5.8358857421875,-0.031124621629714966,-0.11252748221158981,0.0071826050989329815
1765792825070834400,5.84583447265625,-0.05506663769483566,0.031124621629714966,0.10055647045373917
1765792825080844300,5.85584423828125,-0.06703764945268631,-0.004788403399288654,0.08858546614646912
1765792825110812400,5.8858125,-0.08619125932455063,0.009576806798577309,-0.0071826050989329815
1765792825140811300,5.915811279296875,-0.021547814831137657,-0.014365210197865963,0
1765792825150790400,5.925790283203125,-0.07182604819536209,-0.10534487664699554,-0.0454898327589035
1765792825160800300,5.93580029296875,-0.021547814831137657,-0.06703764945268631,-0.028730420395731926
1765792825170779400,5.945779296875,0.009576806798577309,0.035913024097681046,0.035913024097681046
1765792825180789200,5.955789306640625,0.040701430290937424,0.031124621629714966,-0.038307227194309235
1765792825190799000,5.965799072265625,0.038307227194309235,0.002394201699644327,-0.07661445438861847
1765792825220828400,5.995828369140625,-0.08379705995321274,-0.2968810200691223,-0.07900865375995636
1765792825240817400,6.0158173828125,0.40462008118629456,0.2849099934101105,-0.07900865375995636
1765792825250827000,6.025826904296875,0.33997663855552673,-0.19153612852096558,0.021547814831137657
1765792825260836900,6.0358369140625,0.15322890877723694,-0.7637503147125244,-0.040701430290937424
1765792825270816000,6.04581591796875,-0.08140286058187485,-0.6727706789970398,-0.040701430290937424
1765792825280856300,6.055856201171875,-0.24660277366638184,-0.35434186458587646,0.05267243832349777
1765792825290866200,6.0658662109375,-0.3902548849582672,0.06703764945268631,0.06703764945268631
1765792825300906500,6.075906494140625,-0.5482721924781799,0.3998316824436188,0.1388636976480484
1765792825330874600,6.10587451171875,-0.047884032130241394,0.3256114423274994,0.09576806426048279
1765792825340884500,6.115884521484375,0.08140286058187485,0.06703764945268631,-0.011971008032560349
1765792825350863600,6.125863525390625,0.05027823522686958,0.002394201699644327,-0.021547814831137657
1765792825360904000,6.135904052734375,0.05985504388809204,-0.06703764945268631,0.026336219161748886
1765792825370913800,6.145913818359375,0.047884032130241394,-0.13407529890537262,-0.10773907601833344
1765792825380923600,6.155923583984375,0.047884032130241394,0.0071826050989329815,0.021547814831137657
1765792825390933200,6.165933349609375,0.026336219161748886,0.22266076505184174,-0.014365210197865963
1765792825400943000,6.175943115234375,0.009576806798577309,0.15322890877723694,0.004788403399288654
1765792825430942000,6.20594189453125,0.023942016065120697,-0.06703764945268631,0.002394201699644327
1765792825440982000,6.21598193359375,-0.023942016065120697,-0.13168109953403473,0.009576806798577309
1765792825450991900,6.225991943359375,-0.05267243832349777,-0.17956513166427612,0.07900865375995636
1765792825461001700,6.236001708984375,-0.047884032130241394,-0.1412578970193863,0.09816227108240128
1765792825470980900,6.24598095703125,-0.026336219161748886,-0.1843535304069519,0.05027823522686958
1765792825481021200,6.256021240234375,-0.10295066982507706,-0.2801215946674347,0.033518824726343155
1765792825491031000,6.266031005859375,0.026336219161748886,-0.2825157940387726,0.021547814831137657
1765792825501071400,6.2760712890625,-0.05506663769483566,-0.10055647045373917,-0.028730420395731926
1765792825511081000,6.2860810546875,-0.014365210197865963,-0.06224924325942993,-0.011971008032560349
1765792825541079800,6.316079833984375,-0.002394201699644327,0.14844051003456116,-0.033518824726343155
1765792825551089700,6.326089599609375,0.033518824726343155,0.13168109953403473,-0.026336219161748886
1765792825561099300,6.336099365234375,-0.002394201699644327,0.17238251864910126,0.0071826050989329815
1765792825571109000,6.346109130859375,-0.014365210197865963,0.05267243832349777,-0.07900865375995636
1765792825581119000,6.356118896484375,0.0071826050989329815,0.11013327538967133,-0.004788403399288654
1765792825591128600,6.366128662109375,0.035913024097681046,0.16519992053508759,-0.035913024097681046
1765792825601169000,6.3761689453125,0.06464344263076782,0.031124621629714966,-0.0454898327589035
1765792825631167700,6.406167724609375,-0.05027823522686958,-0.14365209639072418,0.0454898327589035
1765792825641177300,6.41617724609375,-0.05027823522686958,-0.14365209639072418,0.047884032130241394
1765792825651187200,6.426187255859375,-0.10055647045373917,-0.13168109953403473,-0.021547814831137657
1765792825661197000,6.436197021484375,-0.06464344263076782,-0.10773907601833344,0.05267243832349777
1765792825671176200,6.44617626953125,-0.009576806798577309,-0.2106897532939911,0.09576806426048279
1765792825681216500,6.456216552734375,-0.004788403399288654,-0.15083470940589905,0.0454898327589035
1765792825691195600,6.466195556640625,-0.011971008032560349,-0.07661445438861847,0.10295066982507706
1765792825701236000,6.476236083984375,-0.0694318488240242,-0.05746084079146385,0.023942016065120697
1765792825711185000,6.486184814453125,-0.05506663769483566,0.004788403399288654,-0.026336219161748886
1765792825751223800,6.526223876953125,0.031124621629714966,0,-0.011971008032560349
1765792825761233700,6.536233642578125,0.004788403399288654,-0.040701430290937424,-0.038307227194309235
1765792825771243300,6.5462431640625,-0.0071826050989329815,-0.009576806798577309,-0.002394201699644327
1765792825781222700,6.55622265625,-0.035913024097681046,0.011971008032560349,-0.08379705995321274
1765792825791201800,6.566201904296875,-0.026336219161748886,0.043095629662275314,-0.05985504388809204
1765792825801242000,6.5762421875,-0.05267243832349777,0.040701430290937424,-0.05027823522686958
1765792825811221500,6.586221435546875,-0.05746084079146385,0.019153613597154617,-0.06464344263076782
1765792825821261600,6.596261474609375,-0.004788403399288654,-0.031124621629714966,-0.06224924325942993
1765792825851291000,6.626290771484375,0.0071826050989329815,-0.0071826050989329815,-0.004788403399288654
1765792825861300700,6.63630078125,-0.038307227194309235,-0.13407529890537262,0.011971008032560349
1765792825871279900,6.64627978515625,-0.06703764945268631,-0.1364694982767105,-0.009576806798577309
1765792825881289700,6.656289794921875,0.023942016065120697,-0.06224924325942993,-0.009576806798577309
1765792825891299600,6.666299560546875,-0.047884032130241394,-0.07661445438861847,0.0071826050989329815
1765792825901309200,6.67630908203125,-0.1867477297782898,-0.17477671802043915,-0.002394201699644327
1765792825911288600,6.68628857421875,0.15801730751991272,-0.1843535304069519,-0.002394201699644327
1765792825921298200,6.696298095703125,0.0933738648891449,0.3016694188117981,-0.023942016065120697
1765792825931308000,6.70630810546875,-0.031124621629714966,-0.08379705995321274,0.0454898327589035
1765792825961307000,6.736306884765625,-0.11971008777618408,0.016759412363171577,0.05267243832349777
1765792825971316500,6.74631640625,0.05027823522686958,-0.14844051003456116,0.043095629662275314
1765792825981295900,6.7562958984375,0.031124621629714966,0.20350714027881622,-0.10055647045373917
1765792825991305700,6.7663056640625,-0.047884032130241394,0.10534487664699554,0.05267243832349777
1765792826001315300,6.7763154296875,-0.047884032130241394,-0.07661445438861847,0.016759412363171577
1765792826011325200,6.7863251953125,-0.014365210197865963,-0.0933738648891449,0.014365210197865963
1765792826021335000,6.7963349609375,0,-0.009576806798577309,-0.0071826050989329815
1765792826031314200,6.806314208984375,0.031124621629714966,0,-0.043095629662275314
1765792826061374000,6.8363740234375,-0.06703764945268631,-0.14844051003456116,-0.05027823522686958
1765792826071322600,6.846322509765625,0.031124621629714966,-0.1412578970193863,-0.05746084079146385
1765792826081363000,6.856363037109375,0.004788403399288654,-0.031124621629714966,-0.05027823522686958
1765792826091372800,6.866372802734375,0.023942016065120697,0.011971008032560349,-0.09576806426048279
1765792826101352000,6.87635205078125,-0.021547814831137657,0.035913024097681046,0.019153613597154617
1765792826111361800,6.88636181640625,-0.05985504388809204,0.06703764945268631,0.014365210197865963
1765792826121371600,6.89637158203125,-0.08379705995321274,0.0694318488240242,0.011971008032560349
1765792826131320300,6.9063203125,-0.0933738648891449,0.090979665517807,0.0694318488240242
1765792826141360600,6.916360595703125,-0.11013327538967133,-0.021547814831137657,0.08858546614646912
1765792826171359200,6.946359130859375,-0.2059013396501541,0.023942016065120697,-0.021547814831137657
1765792826181338600,6.956338623046875,-0.17477671802043915,0.016759412363171577,0
1765792826191348200,6.96634814453125,-0.08619125932455063,0.11013327538967133,-0.011971008032560349
1765792826201358000,6.976358154296875,-0.033518824726343155,0.05027823522686958,-0.06703764945268631
1765792826211337500,6.98633740234375,0.05985504388809204,0.033518824726343155,-0.13407529890537262
1765792826221347000,6.99634716796875,-0.0071826050989329815,0.06224924325942993,0.011971008032560349
1765792826231326500,7.006326416015625,0.028730420395731926,0.0454898327589035,0.002394201699644327
1765792826241366500,7.016366455078125,-0.031124621629714966,-0.031124621629714966,0.0694318488240242
1765792826251315500,7.0263154296875,0.06703764945268631,-0.08619125932455063,-0.090979665517807
1765792826291324000,7.066323974609375,0.09816227108240128,-0.1843535304069519,-0.043095629662275314
1765792826301303300,7.07630322265625,0.090979665517807,-0.181959331035614,-0.040701430290937424
1765792826311313000,7.08631298828125,0.031124621629714966,-0.07182604819536209,0.0454898327589035
1765792826321322800,7.09632275390625,0.11013327538967133,-0.038307227194309235,0
1765792826331332400,7.106332275390625,0.026336219161748886,-0.07182604819536209,-0.004788403399288654
1765792826341342200,7.11634228515625,-0.016759412363171577,-0.13407529890537262,0.014365210197865963
1765792826351321600,7.126321533203125,0.0071826050989329815,-0.090979665517807,0.016759412363171577
1765792826371310600,7.146310546875,0.038307227194309235,-0.05985504388809204,0
1765792826391330000,7.166330078125,0.08140286058187485,-0.07182604819536209,-0.07900865375995636
1765792826401370400,7.176370361328125,0.004788403399288654,-0.05267243832349777,-0.07661445438861847
1765792826411380000,7.1863798828125,0.016759412363171577,0.040701430290937424,-0.043095629662275314
1765792826421389800,7.196389892578125,0.05746084079146385,0.15322890877723694,-0.033518824726343155
1765792826431399700,7.206399658203125,0.05267243832349777,0.10055647045373917,-0.004788403399288654
1765792826441409300,7.2164091796875,0.05746084079146385,-0.016759412363171577,-0.021547814831137657
1765792826451419100,7.226419189453125,0.12210428714752197,-0.033518824726343155,-0.10773907601833344
1765792826481448400,7.256448486328125,-0.043095629662275314,-0.272938996553421,-0.1149216815829277
1765792826501468000,7.276468017578125,0.1173158809542656,-0.040701430290937424,-0.10534487664699554
1765792826511447300,7.286447265625,0.11971008777618408,-0.026336219161748886,-0.20111294090747833
1765792826521457000,7.296456787109375,0.038307227194309235,-0.3208230137825012,-0.0694318488240242
1765792826531436300,7.306436279296875,-0.026336219161748886,-0.2968810200691223,-0.043095629662275314
1765792826541446000,7.31644580078125,-0.21547815203666687,-0.30885201692581177,-0.047884032130241394
1765792826551425300,7.32642529296875,-0.3208230137825012,-0.2059013396501541,0.047884032130241394
1765792826561435100,7.33643505859375,-0.2561795711517334,0.14365209639072418,0.14365209639072418
1765792826591372800,7.366372802734375,0.181959331035614,-0.009576806798577309,0.0071826050989329815
1765792826601382400,7.37638232421875,0.1149216815829277,-0.11971008777618408,-0.05027823522686958
1765792826621371600,7.39637158203125,0.033518824726343155,-0.08379705995321274,-0.009576806798577309
1765792826631381200,7.40638134765625,0.011971008032560349,-0.031124621629714966,-0.021547814831137657
1765792826641421600,7.416421630859375,-0.06224924325942993,0.021547814831137657,0.002394201699644327
1765792826651431400,7.426431396484375,-0.043095629662275314,0.17238251864910126,-0.021547814831137657
1765792826661441000,7.43644091796875,-0.028730420395731926,0.2992752194404602,-0.031124621629714966
1765792826671390000,7.446389892578125,-0.0071826050989329815,0.2825157940387726,0.05746084079146385
1765792826681399600,7.456399658203125,-0.0694318488240242,0.12689268589019775,-0.0454898327589035
1765792826691409400,7.466409423828125,0.09576806426048279,0.035913024097681046,-0.08619125932455063
1765792826701419300,7.476419189453125,-0.026336219161748886,-0.040701430290937424,0.0071826050989329815
1765792826711398400,7.4863984375,-0.009576806798577309,-0.1604115068912506,-0.023942016065120697
1765792826721408300,7.496408203125,0.002394201699644327,-0.1412578970193863,-0.090979665517807
1765792826731387400,7.506387451171875,-0.004788403399288654,-0.1412578970193863,0.026336219161748886
1765792826741397200,7.516397216796875,-0.0694318488240242,-0.10534487664699554,0.08140286058187485
1765792826751376400,7.52637646484375,-0.14365209639072418,-0.17956513166427612,0.13168109953403473
1765792826771395800,7.546395751953125,-0.14844051003456116,-0.090979665517807,0.10055647045373917
1765792826781405700,7.55640576171875,-0.13168109953403473,-0.05746084079146385,0.08858546614646912
1765792826801455900,7.576455810546875,-0.21547815203666687,0.038307227194309235,0.12449848651885986
1765792826811465500,7.586465576171875,-0.1604115068912506,0.033518824726343155,0.028730420395731926
1765792826821475300,7.596475341796875,-0.07422025501728058,0.026336219161748886,0.009576806798577309
1765792826831454500,7.606454345703125,-0.016759412363171577,0.038307227194309235,-0.05027823522686958
1765792826841464300,7.61646435546875,-0.0933738648891449,-0.0071826050989329815,0.014365210197865963
1765792826851474200,7.62647412109375,-0.11013327538967133,0.13168109953403473,-0.021547814831137657
1765792826861453300,7.636453369140625,-0.09576806426048279,0.1412578970193863,-0.08140286058187485
1765792826871463200,7.646463134765625,-0.05746084079146385,0.11252748221158981,-0.05027823522686958
1765792826891482600,7.666482666015625,-0.08140286058187485,0.0933738648891449,-0.021547814831137657
1765792826901523000,7.67652294921875,-0.10295066982507706,0.011971008032560349,0.023942016065120697
1765792826911502000,7.686502197265625,-0.090979665517807,-0.023942016065120697,-0.05506663769483566
1765792826921542400,7.69654248046875,0.028730420395731926,0,-0.0071826050989329815
1765792826931521800,7.706521728515625,0.035913024097681046,0.023942016065120697,0.014365210197865963
1765792826941531400,7.716531494140625,0.021547814831137657,-0.11252748221158981,-0.05985504388809204
1765792826951541200,7.726541259765625,0.033518824726343155,-0.14365209639072418,-0.019153613597154617
1765792826971560700,7.746560791015625,0.040701430290937424,-0.22744916379451752,-0.028730420395731926
1765792827001590000,7.776590087890625,0.10055647045373917,-0.16519992053508759,-0.05746084079146385
1765792827011600000,7.786599853515625,0.004788403399288654,-0.12449848651885986,-0.040701430290937424
1765792827021609500,7.796609375,-0.047884032130241394,-0.021547814831137657,0.004788403399288654
1765792827031588900,7.8065888671875,-0.05027823522686958,0.002394201699644327,-0.0071826050989329815
1765792827041598500,7.816598388671875,-0.040701430290937424,-0.0071826050989329815,-0.004788403399288654
1765792827051608300,7.8266083984375,-0.033518824726343155,-0.021547814831137657,-0.0071826050989329815
1765792827061618200,7.8366181640625,0.05506663769483566,-0.016759412363171577,0.026336219161748886
1765792827071597300,7.846597412109375,0.06703764945268631,0.002394201699644327,0.05267243832349777
1765792827081607200,7.856607177734375,-0.014365210197865963,0.06703764945268631,0.05985504388809204
1765792827111606000,7.88660595703125,-0.07900865375995636,0.15083470940589905,-0.009576806798577309
1765792827121646000,7.89664599609375,-0.07900865375995636,0.026336219161748886,-0.05267243832349777
1765792827151645000,7.92664501953125,-0.05027823522686958,-0.047884032130241394,0.047884032130241394
1765792827171664400,7.946664306640625,0.0933738648891449,-0.13407529890537262,-0.026336219161748886
1765792827181643800,7.956643798828125,0.10295066982507706,-0.2082955539226532,-0.0454898327589035
1765792827191623000,7.966622802734375,0,-0.06703764945268631,-0.019153613597154617
1765792827221621800,7.996621826171875,-0.14844051003456116,0.009576806798577309,-0.009576806798577309
1765792827231601200,8.00660107421875,-0.09576806426048279,0.08858546614646912,0.08858546614646912
1765792827241672000,8.016671875,-0.033518824726343155,0.014365210197865963,0.011971008032560349
1765792827251651000,8.026651123046875,0.014365210197865963,-0.047884032130241394,0.004788403399288654
1765792827261691400,8.03669140625,0.043095629662275314,-0.09816227108240128,-0.033518824726343155
1765792827271670500,8.04667041015625,-0.05506663769483566,-0.07182604819536209,-0.004788403399288654
1765792827281710800,8.0567109375,-0.05267243832349777,0.0071826050989329815,-0.016759412363171577
1765792827291720700,8.066720703125,-0.002394201699644327,0.05746084079146385,-0.08858546614646912
1765792827301730300,8.076730224609374,-0.028730420395731926,0.047884032130241394,-0.06224924325942993
1765792827331759600,8.106759521484374,0.07182604819536209,0.08619125932455063,-0.014365210197865963
1765792827341739000,8.116739013671875,0.07422025501728058,0.033518824726343155,-0.08379705995321274
1765792827351748600,8.12674853515625,0.07182604819536209,-0.10773907601833344,0.014365210197865963
1765792827361789000,8.136788818359374,0.06703764945268631,-0.22266076505184174,0.011971008032560349
1765792827371737900,8.14673779296875,0.009576806798577309,-0.181959331035614,0.004788403399288654
1765792827381778000,8.15677783203125,-0.06464344263076782,-0.12449848651885986,0.040701430290937424
1765792827391757300,8.16675732421875,-0.12689268589019775,-0.040701430290937424,0.06224924325942993
1765792827401736400,8.176736328125,-0.026336219161748886,-0.026336219161748886,0.031124621629714966
1765792827411746300,8.186746337890625,-0.016759412363171577,0.019153613597154617,-0.028730420395731926
1765792827451785500,8.226785400390625,-0.009576806798577309,0.05506663769483566,0.004788403399288654
1765792827461795000,8.236795166015625,-0.014365210197865963,0.05746084079146385,0.05027823522686958
1765792827471774500,8.2467744140625,0,0.014365210197865963,0.05985504388809204
1765792827481814500,8.256814453125,0.0071826050989329815,-0.035913024097681046,-0.07182604819536209
1765792827491794000,8.2667939453125,0.002394201699644327,0.009576806798577309,0.009576806798577309
1765792827501773000,8.27677294921875,-0.033518824726343155,0.06703764945268631,0.07422025501728058
1765792827511783000,8.286782958984375,-0.038307227194309235,0.06224924325942993,-0.031124621629714966
1765792827541781800,8.31678173828125,-0.019153613597154617,-0.08140286058187485,-0.004788403399288654
1765792827551761000,8.326760986328125,0,-0.040701430290937424,-0.06464344263076782
1765792827561740300,8.336740234375,0.07900865375995636,-0.06224924325942993,-0.07182604819536209
1765792827571750000,8.34675,0.0694318488240242,-0.15322890877723694,-0.05267243832349777
1765792827581759700,8.356759765625,0.033518824726343155,-0.15801730751991272,0.0071826050989329815
1765792827591739000,8.36673876953125,0.033518824726343155,-0.05267243832349777,0.019153613597154617
1765792827601748700,8.376748779296875,-0.026336219161748886,-0.08858546614646912,0.07182604819536209
1765792827611758600,8.386758544921875,-0.07422025501728058,-0.10295066982507706,0.040701430290937424
1765792827641818400,8.416818359375,-0.047884032130241394,0.028730420395731926,0.06703764945268631
1765792827651828000,8.426827880859374,-0.023942016065120697,0,0.05027823522686958
1765792827661837800,8.436837890625,0,-0.05985504388809204,0.12210428714752197
1765792827671847700,8.44684765625,-0.016759412363171577,0.035913024097681046,0.031124621629714966
1765792827681857300,8.456857177734374,0.011971008032560349,0,0.033518824726343155
1765792827691867100,8.4668671875,-0.004788403399288654,-0.0454898327589035,0.06464344263076782
1765792827701877000,8.476876953125,-0.08858546614646912,0.033518824726343155,-0.06224924325942993
1765792827711856000,8.486856201171875,-0.023942016065120697,0.033518824726343155,-0.0454898327589035
1765792827741855000,8.51685498046875,-0.021547814831137657,0.026336219161748886,-0.043095629662275314
1765792827751834000,8.526834228515625,-0.019153613597154617,-0.016759412363171577,-0.026336219161748886
1765792827761874400,8.53687451171875,0.05506663769483566,0.004788403399288654,0.05506663769483566
1765792827771853800,8.546853759765625,-0.038307227194309235,0.05027823522686958,0.040701430290937424
1765792827781894000,8.556893798828124,-0.06703764945268631,-0.07182604819536209,0
1765792827791903700,8.56690380859375,-0.10055647045373917,-0.08619125932455063,-0.05027823522686958
1765792827801913600,8.57691357421875,-0.05506663769483566,-0.0071826050989329815,0.004788403399288654
1765792827811923200,8.586923095703124,0.035913024097681046,0.026336219161748886,0
1765792827831912200,8.606912109375,-0.05267243832349777,-0.1173158809542656,-0.043095629662275314
1765792827841922000,8.616922119140625,-0.06464344263076782,-0.002394201699644327,0.021547814831137657
1765792827851870700,8.62687060546875,-0.026336219161748886,0,0.002394201699644327
1765792827861880600,8.636880615234375,0.05746084079146385,-0.040701430290937424,-0.014365210197865963
1765792827871859700,8.646859619140624,0.019153613597154617,0.1388636976480484,0.026336219161748886
1765792827881900000,8.656900146484375,-0.038307227194309235,0.040701430290937424,0.004788403399288654
1765792827891910000,8.666909912109375,-0.038307227194309235,0.05267243832349777,0.09576806426048279
1765792827901919700,8.676919677734375,-0.05027823522686958,-0.09816227108240128,-0.06464344263076782
1765792827921908700,8.69690869140625,-0.031124621629714966,-0.13168109953403473,-0.047884032130241394
1765792827941928200,8.71692822265625,0.023942016065120697,-0.035913024097681046,-0.0933738648891449
1765792827951938000,8.72693798828125,0.002394201699644327,-0.035913024097681046,-0.031124621629714966
1765792827961947600,8.73694775390625,0,0.028730420395731926,0
1765792827971957500,8.74695751953125,0.002394201699644327,0.06703764945268631,-0.06464344263076782
1765792827981967400,8.75696728515625,0.0071826050989329815,0.019153613597154617,-0.047884032130241394
1765792827991946500,8.766946533203125,-0.004788403399288654,-0.05506663769483566,-0.019153613597154617
1765792828001925600,8.776925537109374,-0.05267243832349777,0,-0.019153613597154617
1765792828011905000,8.786905029296875,-0.031124621629714966,-0.06464344263076782,-0.016759412363171577
1765792828021914600,8.79691455078125,0.004788403399288654,-0.0933738648891449,-0.004788403399288654
1765792828031924500,8.806924560546875,-0.031124621629714966,-0.15083470940589905,0.0071826050989329815
1765792828061953800,8.836953857421875,-0.05267243832349777,-0.026336219161748886,-0.019153613597154617
1765792828071963600,8.846963623046875,-0.043095629662275314,-0.031124621629714966,0.011971008032560349
1765792828081973200,8.85697314453125,-0.019153613597154617,0.026336219161748886,-0.016759412363171577
1765792828091983000,8.866983154296875,-0.026336219161748886,0.06224924325942993,-0.07900865375995636
1765792828101993000,8.876992919921875,-0.011971008032560349,-0.05746084079146385,0.09576806426048279
1765792828112002600,8.88700244140625,0,-0.12928688526153564,0.019153613597154617
1765792828122012400,8.897012451171875,0.014365210197865963,-0.07900865375995636,-0.026336219161748886
1765792828131991600,8.906991455078124,-0.08619125932455063,-0.11971008777618408,0.05985504388809204
1765792828142001400,8.91700146484375,-0.05746084079146385,-0.15562310814857483,0
1765792828172000300,8.947000244140625,0.026336219161748886,0.009576806798577309,0.0454898327589035
1765792828181979400,8.9569794921875,-0.028730420395731926,0.0071826050989329815,-0.07661445438861847
1765792828191989200,8.9669892578125,0.019153613597154617,0.11013327538967133,-0.021547814831137657
1765792828201999000,8.9769990234375,0.0454898327589035,0.06224924325942993,-0.05746084079146385
1765792828212008700,8.9870087890625,-0.016759412363171577,-0.004788403399288654,-0.06703764945268631
1765792828222018600,8.9970185546875,0,0.002394201699644327,-0.05267243832349777
1765792828232028200,9.007028076171874,0,-0.0694318488240242,-0.06224924325942993
1765792828242068500,9.017068359375,0.016759412363171577,-0.047884032130241394,-0.07182604819536209
1765792828252048000,9.0270478515625,0,-0.07182604819536209,-0.0071826050989329815
1765792828282046500,9.05704638671875,-0.019153613597154617,-0.016759412363171577,0
1765792828292056300,9.067056396484375,-0.08140286058187485,-0.021547814831137657,-0.038307227194309235
1765792828302066200,9.077066162109375,-0.08379705995321274,-0.019153613597154617,-0.038307227194309235
1765792828312075800,9.08707568359375,-0.11252748221158981,-0.047884032130241394,0
1765792828322085600,9.097085693359375,-0.08619125932455063,-0.06703764945268631,-0.043095629662275314
1765792828332065000,9.10706494140625,-0.040701430290937424,0.026336219161748886,0.026336219161748886
1765792828342074600,9.11707470703125,0.05746084079146385,0.026336219161748886,-0.043095629662275314
1765792828352084500,9.12708447265625,-0.047884032130241394,-0.021547814831137657,0.009576806798577309
1765792828362094000,9.137093994140624,-0.09816227108240128,0.05985504388809204,0.043095629662275314
1765792828392062500,9.1670625,0.08379705995321274,-0.0071826050989329815,0.031124621629714966
1765792828402133200,9.17713330078125,0.019153613597154617,-0.10295066982507706,0.040701430290937424
1765792828412143000,9.18714306640625,-0.038307227194309235,-0.05985504388809204,-0.040701430290937424
1765792828422152700,9.197152587890624,0.002394201699644327,0,0.0071826050989329815
1765792828432162600,9.20716259765625,-0.021547814831137657,0.014365210197865963,0
1765792828442172400,9.21717236328125,0.090979665517807,-0.06464344263076782,-0.05506663769483566
1765792828452151600,9.227151611328125,0.033518824726343155,-0.06464344263076782,0
1765792828462191900,9.23719189453125,-0.033518824726343155,-0.10534487664699554,-0.05506663769483566
1765792828472201700,9.24720166015625,0.028730420395731926,-0.07182604819536209,-0.08619125932455063
1765792828492221200,9.26722119140625,0.05506663769483566,-0.08858546614646912,-0.13407529890537262
1765792828512271000,9.28727099609375,0,0,-0.004788403399288654
1765792828522281000,9.297281005859375,0.0071826050989329815,-0.014365210197865963,-0.019153613597154617
1765792828532260000,9.307260009765624,0.009576806798577309,0.05027823522686958,-0.016759412363171577
1765792828542270000,9.31727001953125,-0.043095629662275314,0.06224924325942993,0.009576806798577309
1765792828552218600,9.327218505859374,-0.028730420395731926,0.043095629662275314,0
1765792828562289400,9.337289306640624,-0.033518824726343155,-0.028730420395731926,0.014365210197865963
1765792828572299300,9.34729931640625,-0.002394201699644327,-0.033518824726343155,0.023942016065120697
1765792828592349400,9.367349365234375,-0.035913024097681046,0,0.06703764945268631
1765792828602359000,9.377359130859375,0.004788403399288654,-0.08140286058187485,-0.016759412363171577
1765792828612338400,9.38733837890625,-0.07182604819536209,-0.11013327538967133,0.023942016065120697
1765792828622378500,9.39737841796875,-0.019153613597154617,-0.10773907601833344,0.014365210197865963
1765792828632388400,9.407388427734375,-0.009576806798577309,0,-0.014365210197865963
1765792828642398200,9.417398193359375,-0.016759412363171577,-0.05746084079146385,-0.014365210197865963
1765792828652377300,9.42737744140625,0.033518824726343155,-0.12449848651885986,0.009576806798577309
1765792828662356700,9.437356689453125,0.07661445438861847,-0.08140286058187485,-0.06703764945268631
1765792828672366300,9.447366455078125,-0.043095629662275314,0.009576806798577309,0.0071826050989329815
1765792828682376200,9.457376220703125,-0.05027823522686958,-0.038307227194309235,0
1765792828712405500,9.487405517578125,-0.031124621629714966,-0.05027823522686958,-0.014365210197865963
1765792828722415400,9.497415283203125,-0.05506663769483566,-0.05027823522686958,0.07661445438861847
1765792828732425000,9.507425048828125,-0.08379705995321274,0.035913024097681046,0.009576806798577309
1765792828742434800,9.517434814453125,-0.07900865375995636,0.0933738648891449,0.05027823522686958
1765792828752444400,9.5274443359375,-0.07182604819536209,-0.033518824726343155,-0.023942016065120697
1765792828762454300,9.537454345703125,0.014365210197865963,-0.05746084079146385,-0.040701430290937424
1765792828772433700,9.54743359375,0.038307227194309235,-0.13168109953403473,-0.004788403399288654
1765792828782473700,9.5574736328125,-0.0071826050989329815,-0.14365209639072418,0.019153613597154617
1765792828802493400,9.577493408203125,0.009576806798577309,0.004788403399288654,0.002394201699644327
1765792828812472600,9.58747265625,-0.07900865375995636,0.05746084079146385,0.026336219161748886
1765792828822482400,9.597482421875,-0.10055647045373917,0.0071826050989329815,0.016759412363171577
1765792828832492000,9.607491943359374,-0.11252748221158981,-0.014365210197865963,0.021547814831137657
1765792828842471400,9.617471435546875,-0.1604115068912506,0.05746084079146385,0.038307227194309235
1765792828852450600,9.627450439453124,-0.12210428714752197,0.035913024097681046,0.0454898327589035
1765792828862491000,9.637490966796875,0.004788403399288654,-0.026336219161748886,0.0071826050989329815
1765792828872500700,9.647500732421875,0.05985504388809204,-0.019153613597154617,0.0071826050989329815
1765792828882510300,9.65751025390625,0.1412578970193863,-0.10773907601833344,-0.038307227194309235
1765792828922549500,9.697549560546875,0.019153613597154617,-0.12928688526153564,-0.05267243832349777
1765792828932559400,9.707559326171875,-0.15801730751991272,-0.08140286058187485,-0.011971008032560349
1765792828942569000,9.71756884765625,-0.07182604819536209,-0.004788403399288654,-0.07900865375995636
1765792828952548400,9.72754833984375,0.026336219161748886,0.07661445438861847,-0.043095629662275314
1765792828962558000,9.737557861328124,0.033518824726343155,0.011971008032560349,0
1765792828972537300,9.747537353515625,0.038307227194309235,-0.08619125932455063,0.019153613597154617
1765792828982547200,9.757547119140625,0.023942016065120697,-0.15801730751991272,-0.009576806798577309
1765792828992556800,9.767556884765625,0.019153613597154617,-0.15562310814857483,-0.009576806798577309
1765792829022525200,9.797525146484375,0.1173158809542656,-0.08858546614646912,0
1765792829032504300,9.80750439453125,-0.1149216815829277,-0.090979665517807,0.090979665517807
1765792829042514200,9.81751416015625,-0.24660277366638184,-0.42616790533065796,0.090979665517807
1765792829052523800,9.827523681640624,-0.16519992053508759,-0.38546648621559143,-0.033518824726343155
1765792829062503200,9.837503173828125,-0.10773907601833344,-0.15801730751991272,-0.023942016065120697
1765792829072512800,9.8475126953125,-0.004788403399288654,-0.4381389021873474,-0.016759412363171577
1765792829082522600,9.857522705078125,0.043095629662275314,0,0.040701430290937424
1765792829092532500,9.867532470703125,0.014365210197865963,0.15083470940589905,0.0454898327589035
1765792829102542000,9.8775419921875,0.0454898327589035,-0.023942016065120697,0.035913024097681046
1765792829122561800,9.897561767578125,0.13168109953403473,0.4644751250743866,0.1388636976480484
1765792829132571400,9.9075712890625,0.09576806426048279,0.5291185975074768,0.06703764945268631
1765792829142581200,9.917581298828125,0.07661445438861847,0.2585737705230713,0.0454898327589035
1765792829152560400,9.927560302734374,-0.031124621629714966,0.1173158809542656,0.08858546614646912
1765792829162600700,9.9376005859375,0.09576806426048279,0.21308395266532898,0.009576806798577309
1765792829172549600,9.947549560546875,0.31124621629714966,0.2106897532939911,-0.047884032130241394
1765792829182589700,9.957589599609374,0.45010992884635925,0.011971008032560349,-0.09576806426048279
1765792829192569000,9.967569091796875,0.47644615173339844,-0.15322890877723694,-0.10295066982507706
1765792829222598400,9.997598388671875,0.37828385829925537,-0.06224924325942993,-0.20350714027881622
1765792829232577500,10.00757763671875,0.2585737705230713,-0.10295066982507706,-0.181959331035614
1765792829242617900,10.017617919921875,0.11013327538967133,-0.22744916379451752,-0.10773907601833344
1765792829252597200,10.02759716796875,-0.035913024097681046,-0.21308395266532898,-0.0694318488240242
1765792829262576400,10.037576416015625,-0.14844051003456116,-0.047884032130241394,0.004788403399288654
1765792829272586200,10.047586181640625,-0.19871874153614044,-0.009576806798577309,0.035913024097681046
1765792829282565400,10.0575654296875,-0.28969839215278625,0.047884032130241394,0.07422025501728058
1765792829292544500,10.06754443359375,-0.30885201692581177,-0.016759412363171577,0.1388636976480484
1765792829302554400,10.077554443359375,-0.3256114423274994,-0.12449848651885986,0.10055647045373917
1765792829332492000,10.107491943359374,-0.24420857429504395,-0.038307227194309235,0.07900865375995636
1765792829372470300,10.14747021484375,-0.17238251864910126,0.07422025501728058,-0.014365210197865963
1765792829382449400,10.157449462890625,-0.1843535304069519,0.06703764945268631,0.028730420395731926
1765792829392459300,10.167459228515625,0,-0.047884032130241394,0.021547814831137657
1765792829402468900,10.17746875,-0.023942016065120697,0.035913024097681046,0.05027823522686958
1765792829412478700,10.187478759765625,-0.08379705995321274,0.1388636976480484,0.07900865375995636
1765792829442508000,10.217508056640625,-0.2537853717803955,-0.3471592366695404,-0.021547814831137657
1765792829452487200,10.227487060546874,-0.1412578970193863,-0.021547814831137657,-0.038307227194309235
1765792829462497000,10.2374970703125,-0.07661445438861847,0.05027823522686958,0
1765792829472476200,10.24747607421875,-0.22026655077934265,-0.06464344263076782,0.023942016065120697
1765792829482486000,10.257486083984375,-0.33279404044151306,-0.12210428714752197,0.07422025501728058
1765792829492434700,10.2674345703125,-0.1604115068912506,-0.047884032130241394,-0.0071826050989329815
1765792829502505500,10.27750537109375,-0.3423708379268646,-0.10295066982507706,0.016759412363171577
1765792829512484900,10.28748486328125,-0.5482721924781799,-0.21308395266532898,0.06703764945268631
1765792829522494500,10.297494384765624,-0.4572925269603729,-0.1364694982767105,0.1843535304069519
1765792829542514200,10.31751416015625,-0.033518824726343155,-0.009576806798577309,0
1765792829562533600,10.33753369140625,0.31124621629714966,0.4189853072166443,-0.047884032130241394
1765792829572512800,10.3475126953125,0.507570743560791,0.4908113479614258,-0.13168109953403473
1765792829582522600,10.357522705078125,0.730231523513794,0.49559974670410156,-0.10534487664699554
1765792829592502000,10.367501953125,0.6775590777397156,0.30885201692581177,-0.07661445438861847
1765792829602511600,10.37751171875,0.6967126727104187,-0.2753331959247589,-0.22744916379451752
1765792829612521500,10.387521484375,0.5530605912208557,-0.849941611289978,-0.2513911724090576
1765792829652469000,10.427468994140625,0.6248866319656372,-0.3016694188117981,-0.15562310814857483
1765792829662509300,10.43750927734375,0.5219359993934631,-0.20111294090747833,-0.21787235140800476
1765792829672488400,10.447488525390625,0.38067805767059326,0.0071826050989329815,-0.07900865375995636
1765792829682498300,10.457498291015625,0.4189853072166443,0.06464344263076782,-0.043095629662275314
1765792829692538600,10.46753857421875,0.1843535304069519,-0.06464344263076782,-0.05027823522686958
1765792829702548200,10.47754833984375,-0.1149216815829277,-0.2992752194404602,0.038307227194309235
1765792829712527600,10.487527587890625,-0.304063618183136,-0.20111294090747833,0.035913024097681046
1765792829722537200,10.497537109375,-0.4644751250743866,-0.009576806798577309,0.1149216815829277
1765792829742557000,10.517556884765625,-0.6200982332229614,0.0071826050989329815,0.09576806426048279
1765792829752536000,10.5275361328125,-0.5339069962501526,0.033518824726343155,0.07422025501728058
1765792829762546000,10.5375458984375,-0.38067805767059326,0.07422025501728058,-0.023942016065120697
1765792829772555500,10.547555419921874,-0.31364041566848755,0.1149216815829277,0.12928688526153564
1765792829782535000,10.557534912109375,-0.15801730751991272,0.05746084079146385,0.07182604819536209
1765792829792544500,10.56754443359375,-0.10534487664699554,0.1173158809542656,0.07900865375995636
1765792829802524000,10.57752392578125,0.028730420395731926,0.0694318488240242,0.05985504388809204
1765792829812533800,10.58753369140625,0.13407529890537262,0.026336219161748886,0.028730420395731926
1765792829822543400,10.59754345703125,0.1412578970193863,-0.09576806426048279,0.07182604819536209
1765792829852542200,10.627542236328125,0.035913024097681046,-0.31364041566848755,0.031124621629714966
1765792829862552000,10.637552001953125,-0.026336219161748886,-0.2513911724090576,0.06703764945268631
1765792829872561700,10.647561767578125,0,-0.3016694188117981,0.016759412363171577
1765792829882571500,10.657571533203125,0.035913024097681046,-0.33039984107017517,-0.021547814831137657
1765792829892550700,10.667550537109374,0.23702596127986908,-0.17238251864910126,-0.09576806426048279
1765792829902560500,10.677560546875,0.1628057211637497,0.05027823522686958,-0.047884032130241394
1765792829912570400,10.6875703125,0.07422025501728058,0.1388636976480484,-0.12928688526153564
1765792829922580000,10.697580078125,0.038307227194309235,-0.026336219161748886,-0.08619125932455063
1765792829932589800,10.70758984375,0.0454898327589035,-0.023942016065120697,-0.0454898327589035
1765792829962519000,10.73751904296875,0.2849099934101105,-0.304063618183136,-0.1149216815829277
1765792829972529000,10.74752880859375,0.31842881441116333,-0.16519992053508759,-0.026336219161748886
1765792829982538800,10.757538818359375,0.2968810200691223,-0.11971008777618408,-0.05506663769483566
1765792829992518000,10.767517822265624,0.2944868206977844,-0.009576806798577309,-0.031124621629714966
1765792830002527700,10.77752783203125,0.3974374830722809,0.26815059781074524,0.031124621629714966
1765792830012537300,10.787537353515624,0.3687070608139038,0.2849099934101105,-0.06224924325942993
1765792830022547200,10.797547119140624,0.33039984107017517,0.33997663855552673,0.016759412363171577
1765792830032557000,10.80755712890625,0.19632454216480255,0.08858546614646912,0.05746084079146385
1765792830042566700,10.817566650390624,0.15322890877723694,-0.07900865375995636,-0.08140286058187485
1765792830052576500,10.827576416015624,0.23702596127986908,-0.1364694982767105,0.014365210197865963
1765792830062555600,10.8375556640625,0.2753331959247589,-0.07182604819536209,0.05746084079146385
1765792830072565500,10.8475654296875,0.2106897532939911,-0.009576806798577309,0.05027823522686958
1765792830082575400,10.857575439453125,0.11252748221158981,0.043095629662275314,0.10295066982507706
1765792830092585000,10.8675849609375,0.11013327538967133,-0.009576806798577309,0.08379705995321274
1765792830102594800,10.8775947265625,-0.038307227194309235,-0.12689268589019775,0.011971008032560349
1765792830112574000,10.887573974609374,-0.014365210197865963,-0.17238251864910126,0.004788403399288654
1765792830122553300,10.89755322265625,0,-0.2082955539226532,0.07422025501728058
1765792830132532500,10.907532470703124,0.07422025501728058,-0.014365210197865963,0.07182604819536209
1765792830142542300,10.917542236328124,0.0933738648891449,0.1149216815829277,0.14365209639072418
1765792830162561800,10.937561767578124,0.028730420395731926,-0.08858546614646912,-0.004788403399288654
1765792830202539800,10.977539794921874,0.035913024097681046,0.1412578970193863,0.014365210197865963
1765792830212519200,10.987519287109375,-0.035913024097681046,0.16519992053508759,-0.014365210197865963
1765792830222528800,10.99752880859375,-0.08379705995321274,0.06703764945268631,-0.0694318488240242
1765792830232508200,11.007508056640624,-0.10295066982507706,0.05746084079146385,0.031124621629714966
1765792830242517800,11.017517822265624,-0.13168109953403473,0.22505496442317963,-0.014365210197865963
1765792830252527600,11.027527587890624,-0.1628057211637497,0.17717093229293823,0.021547814831137657
1765792830272516600,11.0475166015625,-0.1412578970193863,-0.040701430290937424,-0.1364694982767105
1765792830282526500,11.0575263671875,-0.11013327538967133,0.009576806798577309,-0.05267243832349777
1765792830292536000,11.0675361328125,-0.07661445438861847,-0.0071826050989329815,-0.10295066982507706
1765792830302546000,11.0775458984375,-0.033518824726343155,-0.021547814831137657,-0.0933738648891449
1765792830312525300,11.087525390625,-0.10534487664699554,-0.1604115068912506,-0.1173158809542656
1765792830322535000,11.097534912109374,-0.1604115068912506,-0.10534487664699554,-0.12689268589019775
1765792830332544800,11.107544677734374,-0.17717093229293823,0.016759412363171577,-0.026336219161748886
1765792830342554600,11.1175546875,-0.21787235140800476,-0.10295066982507706,0.016759412363171577
1765792830352564200,11.127564208984374,-0.2082955539226532,-0.19632454216480255,-0.033518824726343155
1765792830362574000,11.137573974609374,-0.304063618183136,-0.19153612852096558,-0.019153613597154617
1765792830382563000,11.15756298828125,-0.4405331015586853,-0.19393034279346466,0.07422025501728058
1765792830392542200,11.167542236328124,-0.3711012601852417,-0.20111294090747833,0.07182604819536209
1765792830402552000,11.177552001953124,-0.17717093229293823,0.17238251864910126,0.0454898327589035
1765792830412562000,11.18756201171875,0.040701430290937424,0.38546648621559143,-0.0933738648891449
1765792830422571500,11.197571533203124,-0.1173158809542656,0.17717093229293823,-0.05027823522686958
1765792830432551000,11.207551025390625,-0.395043283700943,-0.38307225704193115,-0.040701430290937424
1765792830442530000,11.217530029296874,-0.706289529800415,-0.5147533416748047,0.016759412363171577
1765792830452509400,11.227509521484375,-0.7829039692878723,-0.22026655077934265,0.040701430290937424
1765792830462580200,11.237580322265625,-0.6536170840263367,-0.05506663769483566,0.023942016065120697
1765792830492578800,11.267578857421874,-0.30885201692581177,-0.0071826050989329815,-0.028730420395731926
1765792830502588700,11.277588623046874,-0.12689268589019775,0.06703764945268631,-0.0454898327589035
1765792830512537300,11.287537353515624,-0.0454898327589035,0.021547814831137657,-0.05985504388809204
1765792830522547200,11.297547119140624,-0.07182604819536209,-0.14844051003456116,-0.014365210197865963
1765792830532526300,11.3075263671875,0,-0.1173158809542656,-0.05506663769483566
1765792830542505700,11.317505615234374,0.1412578970193863,-0.09816227108240128,-0.06464344263076782
1765792830552515300,11.327515380859374,0.23702596127986908,-0.035913024097681046,-0.18914192914962769
1765792830562525200,11.337525146484374,0.24899697303771973,0.06703764945268631,-0.0933738648891449
1765792830602472700,11.37747265625,0.19632454216480255,-0.1388636976480484,-0.0694318488240242
1765792830612482600,11.387482666015625,0.08379705995321274,-0.2082955539226532,-0.11252748221158981
1765792830622461700,11.397461669921874,0.09816227108240128,-0.08379705995321274,-0.10055647045373917
1765792830632471600,11.407471435546874,0.13168109953403473,-0.004788403399288654,-0.07422025501728058
1765792830642481200,11.417481201171874,0.12689268589019775,-0.002394201699644327,-0.028730420395731926
1765792830652491000,11.427490966796874,0.1364694982767105,-0.15083470940589905,-0.08140286058187485
1765792830662500900,11.4375009765625,0.07661445438861847,-0.1628057211637497,-0.1412578970193863
1765792830682489900,11.45748974609375,0.16759411990642548,-0.15322890877723694,-0.12689268589019775
1765792830692499500,11.46749951171875,0.11013327538967133,-0.10773907601833344,-0.1149216815829277
1765792830702509300,11.47750927734375,0.1388636976480484,-0.11013327538967133,-0.05506663769483566
1765792830712488700,11.48748876953125,0.17477671802043915,-0.12689268589019775,-0.038307227194309235
1765792830722467800,11.4974677734375,0.1604115068912506,-0.08858546614646912,-0.07900865375995636
1765792830732447000,11.507447021484374,0.12689268589019775,-0.011971008032560349,-0.033518824726343155
1765792830742487300,11.5174873046875,0.08858546614646912,-0.002394201699644327,0.06703764945268631
1765792830752436000,11.52743603515625,0.07422025501728058,0.08858546614646912,0.10773907601833344
1765792830762445800,11.53744580078125,-0.12928688526153564,0.0454898327589035,0.038307227194309235
1765792830772425200,11.54742529296875,-0.304063618183136,0.15322890877723694,0.16519992053508759
1765792830792414200,11.567414306640625,-0.5363011956214905,0.13407529890537262,0.2322375625371933
1765792830802423800,11.577423828125,-0.44771572947502136,0.014365210197865963,0.2106897532939911
1765792830812433700,11.58743359375,-0.3687070608139038,-0.05267243832349777,0.20111294090747833
1765792830822443500,11.597443603515625,-0.22026655077934265,-0.11013327538967133,0.035913024097681046
1765792830832392200,11.60739208984375,-0.26336219906806946,-0.038307227194309235,0.05027823522686958
1765792830842432500,11.6174326171875,-0.2537853717803955,-0.002394201699644327,0.07182604819536209
1765792830852442000,11.627442138671874,-0.23942017555236816,-0.05027823522686958,-0.021547814831137657
1765792830862421500,11.63742138671875,-0.22744916379451752,-0.14365209639072418,-0.0694318488240242
1765792830872431000,11.64743115234375,-0.22266076505184174,-0.07422025501728058,-0.08379705995321274
1765792830902430000,11.677429931640624,-0.16759411990642548,-0.05985504388809204,0.0454898327589035
1765792830912378600,11.687378662109374,-0.016759412363171577,-0.014365210197865963,-0.021547814831137657
1765792830922388500,11.697388427734374,0.08140286058187485,0.011971008032560349,-0.033518824726343155
1765792830932367600,11.70736767578125,0.14365209639072418,-0.040701430290937424,0.031124621629714966
1765792830942347000,11.717346923828124,0.1364694982767105,-0.035913024097681046,0.026336219161748886
1765792830952356900,11.72735693359375,0.20350714027881622,0.0454898327589035,-0.05985504388809204
1765792830962366500,11.737366455078124,0.2777273952960968,0.14844051003456116,-0.038307227194309235
1765792830972345900,11.747345947265625,0.16759411990642548,0.14844051003456116,-0.05746084079146385
1765792830982325000,11.757324951171874,0.11252748221158981,0.028730420395731926,-0.031124621629714966
1765792831012323800,11.78732373046875,0.19153612852096558,-0.06703764945268631,-0.15562310814857483
1765792831032312800,11.807312744140624,0.24660277366638184,-0.17956513166427612,-0.11013327538967133
1765792831042322700,11.81732275390625,0.1843535304069519,-0.1843535304069519,-0.0454898327589035
1765792831052332300,11.827332275390624,0.181959331035614,-0.1388636976480484,-0.07182604819536209
1765792831062342100,11.837342041015624,0.19393034279346466,-0.08379705995321274,-0.040701430290937424
1765792831072351700,11.847351806640624,0.14604631066322327,-0.10773907601833344,-0.047884032130241394
1765792831082361600,11.857361572265624,0.11971008777618408,-0.18914192914962769,-0.028730420395731926
1765792831092341000,11.867341064453125,0.19632454216480255,-0.12928688526153564,0.002394201699644327
1765792831112299300,11.88729931640625,0.3064578175544739,0.08858546614646912,-0.0454898327589035
1765792831122309000,11.89730908203125,0.3016694188117981,0.05506663769483566,-0.019153613597154617
1765792831132288500,11.90728857421875,0.21547815203666687,-0.05985504388809204,-0.12210428714752197
1765792831142328600,11.91732861328125,0.11252748221158981,0,-0.07422025501728058
1765792831152338400,11.92733837890625,-0.10773907601833344,0.014365210197865963,-0.021547814831137657
1765792831162348300,11.937348388671875,-0.22505496442317963,-0.08379705995321274,-0.019153613597154617
1765792831172297000,11.947296875,-0.3208230137825012,-0.004788403399288654,0.08379705995321274
1765792831182306800,11.957306884765625,-0.35673606395721436,-0.05506663769483566,0.05746084079146385
1765792831192286000,11.967285888671874,-0.19871874153614044,-0.1388636976480484,0.028730420395731926
1765792831202326300,11.977326171875,-0.11013327538967133,0,0.035913024097681046
1765792831222315300,11.997315185546874,-0.07900865375995636,-0.1149216815829277,0.033518824726343155
1765792831232294400,12.00729443359375,-0.10534487664699554,0.0071826050989329815,-0.0071826050989329815
1765792831242334700,12.017334716796874,-0.047884032130241394,0.019153613597154617,0.08619125932455063
1765792831252344600,12.027344482421874,-0.12449848651885986,-0.026336219161748886,0.004788403399288654
1765792831262354200,12.037354248046874,-0.07422025501728058,-0.07182604819536209,-0.009576806798577309
1765792831272333600,12.04733349609375,-0.08858546614646912,-0.07422025501728058,0.021547814831137657
1765792831282343400,12.057343505859375,-0.05506663769483566,0.004788403399288654,0.07182604819536209
1765792831292322600,12.067322509765624,0.028730420395731926,0.06464344263076782,-0.016759412363171577
1765792831302332400,12.07733251953125,0.05985504388809204,0.002394201699644327,-0.028730420395731926
1765792831322351900,12.097351806640624,-0.10055647045373917,-0.07422025501728058,0
1765792831332331000,12.1073310546875,-0.12689268589019775,-0.07422025501728058,-0.07182604819536209
1765792831342340900,12.1173408203125,-0.05267243832349777,-0.10773907601833344,0.0071826050989329815
1765792831352320000,12.127320068359374,0.011971008032560349,0.033518824726343155,-0.021547814831137657
1765792831362329900,12.137329833984374,-0.011971008032560349,0.12449848651885986,-0.021547814831137657
1765792831372339700,12.147339599609374,0.002394201699644327,0.05985504388809204,-0.023942016065120697
1765792831382349300,12.157349365234374,0.021547814831137657,-0.05746084079146385,-0.028730420395731926
1765792831392328700,12.16732861328125,0.0454898327589035,-0.026336219161748886,-0.05267243832349777
1765792831402369000,12.177369140625,0.040701430290937424,0.028730420395731926,-0.08858546614646912
1765792831412378600,12.187378662109374,-0.016759412363171577,-0.021547814831137657,0.023942016065120697
1765792831452417800,12.227417724609374,-0.06224924325942993,0.011971008032560349,0.019153613597154617
1765792831462427600,12.237427734375,0,0.040701430290937424,-0.05746084079146385
1765792831472406800,12.24740673828125,-0.26815059781074524,-0.06464344263076782,0.0694318488240242
1765792831482416600,12.257416748046875,-0.17956513166427612,0.10534487664699554,0.047884032130241394
1765792831492395800,12.267395751953124,-0.2513911724090576,0.18914192914962769,0.033518824726343155
1765792831502405600,12.277405517578124,-0.19871874153614044,0.06464344263076782,0.10534487664699554
1765792831512384800,12.287384765625,-0.031124621629714966,0.043095629662275314,0.11252748221158981
1765792831532404200,12.307404296875,0.038307227194309235,0.11971008777618408,-0.009576806798577309
1765792831552393500,12.3273935546875,-0.021547814831137657,-0.011971008032560349,-0.033518824726343155
1765792831562403000,12.337403076171874,0.014365210197865963,-0.028730420395731926,-0.08379705995321274
1765792831572413000,12.347412841796874,0.026336219161748886,-0.07182604819536209,-0.033518824726343155
1765792831582422800,12.3574228515625,-0.038307227194309235,-0.14604631066322327,-0.08140286058187485
1765792831592402000,12.36740185546875,-0.033518824726343155,-0.14844051003456116,-0.07900865375995636
1765792831602411800,12.377411865234375,-0.08379705995321274,-0.17956513166427612,-0.0694318488240242
1765792831612421400,12.38742138671875,-0.12210428714752197,-0.15083470940589905,-0.07900865375995636
1765792831622431200,12.39743115234375,0,-0.10534487664699554,-0.040701430290937424
1765792831672419000,12.447419189453125,-0.002394201699644327,-0.021547814831137657,-0.033518824726343155
1765792831682428700,12.4574287109375,-0.004788403399288654,-0.0694318488240242,0.0454898327589035
1765792831692408000,12.467407958984374,-0.028730420395731926,-0.10534487664699554,0.031124621629714966
1765792831702417700,12.477417724609374,-0.05267243832349777,-0.06224924325942993,0.047884032130241394
1765792831712397000,12.48739697265625,-0.011971008032560349,0.0071826050989329815,0.016759412363171577
1765792831722407000,12.497406982421875,0,-0.05985504388809204,0.014365210197865963
1765792831732355600,12.50735546875,-0.021547814831137657,-0.009576806798577309,0.05985504388809204
1765792831752314000,12.527314208984375,0.040701430290937424,-0.033518824726343155,0.07661445438861847
1765792831762323700,12.53732373046875,-0.028730420395731926,0.05746084079146385,0.05027823522686958
1765792831772303000,12.54730322265625,-0.040701430290937424,0.028730420395731926,-0.06703764945268631
1765792831782312700,12.557312744140624,0,0.0694318488240242,-0.05267243832349777
1765792831792292000,12.5672919921875,-0.0694318488240242,-0.05746084079146385,0.014365210197865963
1765792831802301700,12.5773017578125,-0.08140286058187485,-0.15801730751991272,-0.07661445438861847
1765792831812281000,12.587281005859374,-0.05267243832349777,-0.13168109953403473,0.004788403399288654
1765792831822260200,12.59726025390625,-0.040701430290937424,-0.11013327538967133,-0.011971008032560349
1765792831832239600,12.607239501953124,-0.002394201699644327,-0.1364694982767105,0.0071826050989329815
1765792831852228600,12.627228515625,-0.014365210197865963,0.014365210197865963,0.06224924325942993
1765792831872187100,12.647187255859375,0.047884032130241394,0.019153613597154617,-0.023942016065120697
1765792831882166300,12.657166259765624,0.043095629662275314,-0.06224924325942993,-0.05267243832349777
1765792831892145700,12.667145751953125,0.031124621629714966,0.031124621629714966,-0.021547814831137657
1765792831902155300,12.6771552734375,0.040701430290937424,0.1149216815829277,0.016759412363171577
1765792831912134700,12.687134765625,-0.038307227194309235,0.06224924325942993,-0.023942016065120697
1765792831922144300,12.697144287109374,-0.05027823522686958,0.033518824726343155,-0.09816227108240128
1765792831932123600,12.70712353515625,-0.10055647045373917,-0.026336219161748886,-0.08379705995321274
1765792831942133200,12.71713330078125,-0.15801730751991272,0,0.0694318488240242
1765792831982080800,12.757080810546874,0.40222588181495667,-0.08140286058187485,-0.11971008777618408
1765792832002069800,12.77706982421875,0.1388636976480484,-0.0933738648891449,-0.009576806798577309
1765792832012049200,12.787049072265624,0.1149216815829277,-0.09816227108240128,-0.011971008032560349
1765792832022059000,12.79705908203125,0.090979665517807,-0.014365210197865963,-0.0071826050989329815
1765792832032068600,12.807068603515624,-0.009576806798577309,0.021547814831137657,-0.090979665517807
1765792832042048000,12.817048095703125,-0.0694318488240242,-0.05267243832349777,-0.0071826050989329815
1765792832052088000,12.827088134765624,-0.1388636976480484,-0.033518824726343155,-0.019153613597154617
1765792832092096800,12.8670966796875,0,0.19632454216480255,0.028730420395731926
1765792832102106600,12.877106689453125,-0.028730420395731926,0.07182604819536209,0.014365210197865963
1765792832112116200,12.8871162109375,-0.05027823522686958,-0.05506663769483566,0.08140286058187485
1765792832122126000,12.8971259765625,-0.026336219161748886,-0.009576806798577309,0.035913024097681046
1765792832132105200,12.907105224609374,-0.047884032130241394,0.06464344263076782,0.05506663769483566
1765792832142084600,12.917084716796875,0.031124621629714966,0.11013327538967133,0.011971008032560349
1765792832162073600,12.937073486328124,-0.10055647045373917,-0.090979665517807,0.002394201699644327
1765792832172052700,12.947052734375,-0.090979665517807,-0.12928688526153564,0.033518824726343155
1765792832182062600,12.9570625,-0.021547814831137657,-0.019153613597154617,-0.026336219161748886
1765792832192041700,12.967041748046874,-0.043095629662275314,-0.06703764945268631,0.004788403399288654
1765792832202051600,12.977051513671874,-0.10055647045373917,-0.08379705995321274,-0.011971008032560349
1765792832212000300,12.987000244140624,-0.09816227108240128,-0.10295066982507706,-0.06224924325942993
1765792832221979600,12.996979736328125,-0.09576806426048279,-0.10295066982507706,-0.06464344263076782
1765792832231989200,13.0069892578125,-0.05267243832349777,0,-0.10534487664699554
1765792832242029600,13.017029541015624,-0.05027823522686958,0.05267243832349777,-0.05985504388809204
1765792832252039400,13.027039306640624,-0.028730420395731926,-0.05267243832349777,0.009576806798577309
1765792832292017400,13.067017333984374,-0.05985504388809204,-0.07661445438861847,0.026336219161748886
1765792832302027300,13.07702734375,-0.016759412363171577,-0.1149216815829277,0.026336219161748886
1765792832312006400,13.08700634765625,-0.021547814831137657,0.004788403399288654,-0.031124621629714966
1765792832322046700,13.097046630859374,-0.021547814831137657,-0.08379705995321274,0.021547814831137657
1765792832331995400,13.106995361328124,-0.038307227194309235,-0.05746084079146385,0.031124621629714966
1765792832342035700,13.11703564453125,-0.08140286058187485,0,-0.031124621629714966
1765792832351984400,13.126984375,-0.08140286058187485,0.011971008032560349,-0.038307227194309235
1765792832361994200,13.136994140625,0.0071826050989329815,0.0694318488240242,-0.011971008032560349
1765792832381952800,13.156952880859375,-0.0071826050989329815,-0.11013327538967133,-0.004788403399288654
1765792832401972200,13.17697216796875,0.033518824726343155,0.043095629662275314,0.035913024097681046
1765792832411982000,13.186982177734375,0.035913024097681046,-0.019153613597154617,0.004788403399288654
1765792832421961200,13.196961181640624,0.009576806798577309,-0.06464344263076782,0.014365210197865963
1765792832431940600,13.206940673828125,-0.043095629662275314,-0.08140286058187485,-0.011971008032560349
1765792832441919700,13.216919677734374,-0.028730420395731926,0.028730420395731926,0.08858546614646912
1765792832451899000,13.22689892578125,0.011971008032560349,0.07422025501728058,-0.040701430290937424
1765792832461908700,13.23690869140625,-0.07422025501728058,-0.040701430290937424,-0.07182604819536209
1765792832471857400,13.246857421875,-0.047884032130241394,-0.047884032130241394,0
1765792832491877000,13.266877197265625,0.014365210197865963,-0.12689268589019775,-0.035913024097681046
1765792832501886700,13.27688671875,0.026336219161748886,-0.10534487664699554,0.033518824726343155
1765792832511866000,13.2868662109375,0.016759412363171577,0.004788403399288654,-0.028730420395731926
1765792832521875700,13.296875732421874,0.0071826050989329815,-0.026336219161748886,-0.028730420395731926
1765792832531824600,13.30682470703125,-0.016759412363171577,-0.011971008032560349,-0.021547814831137657
1765792832541864700,13.31686474609375,0.033518824726343155,0.028730420395731926,0.043095629662275314
1765792832551844000,13.326843994140624,0.040701430290937424,-0.021547814831137657,-0.004788403399288654
1765792832561853700,13.336853759765624,0.019153613597154617,-0.047884032130241394,0.040701430290937424
1765792832571863600,13.346863525390624,-0.040701430290937424,-0.06224924325942993,-0.021547814831137657
1765792832581843000,13.356843017578125,-0.043095629662275314,-0.05506663769483566,0.05746084079146385
1765792832591852500,13.3668525390625,-0.07182604819536209,-0.08619125932455063,0.023942016065120697
1765792832601862400,13.3768623046875,-0.06703764945268631,-0.14365209639072418,0.026336219161748886
1765792832611872000,13.3868720703125,-0.0454898327589035,-0.08140286058187485,-0.002394201699644327
1765792832621881900,13.3968818359375,0.026336219161748886,0.07900865375995636,-0.028730420395731926
1765792832631861200,13.406861328125,-0.014365210197865963,0.06224924325942993,-0.021547814831137657
1765792832641870800,13.416870849609374,-0.06464344263076782,-0.011971008032560349,-0.002394201699644327
1765792832651880700,13.426880615234374,-0.002394201699644327,0.004788403399288654,-0.026336219161748886
1765792832661890600,13.436890625,0.033518824726343155,0.023942016065120697,0
1765792832671869700,13.44686962890625,-0.011971008032560349,-0.033518824726343155,0.0454898327589035
1765792832681848800,13.456848876953124,-0.002394201699644327,-0.014365210197865963,0.07182604819536209
1765792832711878100,13.486878173828124,-0.15083470940589905,-0.07900865375995636,0.043095629662275314
1765792832731867100,13.5068671875,0.07182604819536209,-0.1604115068912506,0.004788403399288654
1765792832741846500,13.516846435546874,-0.090979665517807,0.026336219161748886,-0.026336219161748886
1765792832751825700,13.52682568359375,0.06224924325942993,0.07900865375995636,0.033518824726343155
1765792832761835500,13.53683544921875,-0.002394201699644327,0.06464344263076782,0.016759412363171577
1765792832771845400,13.546845458984375,0.002394201699644327,-0.15562310814857483,0.026336219161748886
1765792832781824500,13.556824462890624,0.019153613597154617,0.011971008032560349,0.0454898327589035
1765792832791834400,13.56683447265625,0.014365210197865963,0.09816227108240128,-0.026336219161748886
1765792832801844000,13.576843994140624,-0.06464344263076782,0.05746084079146385,-0.016759412363171577
1765792832821802500,13.596802490234374,-0.033518824726343155,-0.009576806798577309,0.014365210197865963
1765792832831782000,13.606781982421875,0.002394201699644327,0.002394201699644327,-0.002394201699644327
1765792832841822000,13.616822021484374,0.014365210197865963,-0.09816227108240128,-0.05746084079146385
1765792832851771000,13.62677099609375,0.014365210197865963,-0.09816227108240128,-0.05746084079146385
1765792832861780500,13.636780517578124,-0.038307227194309235,-0.002394201699644327,0.014365210197865963
1765792832871760000,13.646759765625,0.0071826050989329815,0.05027823522686958,-0.08140286058187485
1765792832881739000,13.656739013671874,0.019153613597154617,0.14365209639072418,-0.040701430290937424
1765792832891718400,13.666718505859375,0.002394201699644327,-0.033518824726343155,0.031124621629714966
1765792832901758700,13.6767587890625,-0.019153613597154617,-0.05027823522686958,0.014365210197865963
1765792832931787800,13.706787841796874,-0.026336219161748886,-0.016759412363171577,0.019153613597154617
1765792832941797600,13.716797607421874,-0.06703764945268631,-0.07422025501728058,0.014365210197865963
1765792832951807500,13.726807373046874,-0.021547814831137657,-0.09816227108240128,-0.002394201699644327
1765792832961817000,13.736817138671874,-0.026336219161748886,-0.011971008032560349,0.021547814831137657
1765792832971827000,13.746826904296874,-0.035913024097681046,0.0071826050989329815,0.0694318488240242
1765792832981836800,13.7568369140625,-0.031124621629714966,-0.10295066982507706,0.043095629662275314
1765792832991816000,13.76681591796875,-0.028730420395731926,-0.06224924325942993,-0.023942016065120697
1765792833001825800,13.77682568359375,-0.035913024097681046,-0.08140286058187485,0.028730420395731926
1765792833011805000,13.786804931640624,-0.031124621629714966,-0.004788403399288654,0.016759412363171577
1765792833021814800,13.796814697265624,-0.0454898327589035,-0.021547814831137657,-0.05267243832349777
1765792833051783000,13.826782958984374,-0.08140286058187485,-0.05506663769483566,0.035913024097681046
1765792833061762300,13.83676220703125,-0.040701430290937424,0.023942016065120697,-0.028730420395731926
1765792833071741400,13.846741455078124,0,0.10773907601833344,0
1765792833081781800,13.85678173828125,0.019153613597154617,-0.014365210197865963,-0.047884032130241394
1765792833091761200,13.86676123046875,-0.031124621629714966,-0.1388636976480484,0.021547814831137657
1765792833101770800,13.876770751953124,0.009576806798577309,-0.028730420395731926,0.028730420395731926
1765792833111750100,13.886750244140625,0.019153613597154617,0,-0.06224924325942993
1765792833121790500,13.89679052734375,0.05506663769483566,0.019153613597154617,0.004788403399288654
1765792833161768400,13.9367685546875,-0.05985504388809204,0.014365210197865963,0.035913024097681046
1765792833171778000,13.946778076171874,-0.1412578970193863,0.0694318488240242,0.028730420395731926
1765792833191767000,13.96676708984375,0.019153613597154617,-0.090979665517807,-0.016759412363171577
1765792833211786800,13.986786865234375,-0.0694318488240242,-0.05027823522686958,0
1765792833221796400,13.99679638671875,-0.05985504388809204,-0.15562310814857483,-0.0454898327589035
1765792833231775700,14.006775634765624,-0.07661445438861847,-0.033518824726343155,0.040701430290937424
1765792833241785300,14.016785400390624,0.05506663769483566,0.11013327538967133,-0.004788403399288654
1765792833261805000,14.03680517578125,0.028730420395731926,-0.011971008032560349,-0.033518824726343155
1765792833271814700,14.046814697265624,-0.014365210197865963,-0.05985504388809204,-0.15083470940589905
1765792833281824500,14.056824462890624,-0.026336219161748886,-0.033518824726343155,-0.004788403399288654
1765792833291803600,14.0668037109375,0,-0.040701430290937424,-0.07661445438861847
1765792833301783000,14.076782958984374,-0.033518824726343155,-0.09576806426048279,-0.011971008032560349
1765792833311793000,14.08679296875,-0.07422025501728058,-0.08140286058187485,0.004788403399288654
1765792833321802500,14.096802490234374,-0.040701430290937424,-0.011971008032560349,0.090979665517807
1765792833331782000,14.106781982421875,-0.047884032130241394,-0.05746084079146385,0.011971008032560349
1765792833341822000,14.116822021484374,-0.10534487664699554,-0.07422025501728058,-0.002394201699644327
1765792833371820800,14.14682080078125,-0.10055647045373917,-0.035913024097681046,0.040701430290937424
1765792833381830700,14.15683056640625,-0.09576806426048279,-0.05985504388809204,-0.026336219161748886
1765792833391840500,14.166840576171875,-0.08858546614646912,-0.009576806798577309,-0.002394201699644327
1765792833401850000,14.17685009765625,0.026336219161748886,-0.0071826050989329815,-0.07661445438861847
1765792833411829500,14.18682958984375,-0.004788403399288654,-0.002394201699644327,0.011971008032560349
1765792833421839000,14.196839111328124,0.016759412363171577,-0.11013327538967133,-0.0071826050989329815
1765792833431818500,14.206818603515625,-0.011971008032560349,-0.08858546614646912,-0.011971008032560349
1765792833441828000,14.216828125,-0.009576806798577309,-0.07661445438861847,0.040701430290937424
1765792833451838000,14.226837890625,-0.05506663769483566,-0.06224924325942993,-0.026336219161748886
1765792833481836800,14.2568369140625,-0.019153613597154617,0.011971008032560349,0.002394201699644327
1765792833491846400,14.266846435546874,-0.043095629662275314,-0.07661445438861847,-0.004788403399288654
1765792833501825800,14.27682568359375,0.011971008032560349,-0.06464344263076782,-0.021547814831137657
1765792833511835400,14.28683544921875,0.011971008032560349,-0.06464344263076782,-0.021547814831137657
1765792833521845200,14.29684521484375,-0.011971008032560349,-0.035913024097681046,0.047884032130241394
1765792833531855000,14.306855224609375,-0.016759412363171577,0.014365210197865963,-0.033518824726343155
1765792833541864700,14.31686474609375,-0.038307227194309235,-0.011971008032560349,-0.016759412363171577
1765792833551813600,14.326813720703125,-0.0071826050989329815,-0.1149216815829277,-0.033518824726343155
1765792833591791600,14.36679150390625,-0.033518824726343155,-0.002394201699644327,0.009576806798577309
1765792833601832000,14.37683203125,0.009576806798577309,-0.028730420395731926,0.05746084079146385
1765792833611841500,14.386841552734374,-0.016759412363171577,0.014365210197865963,-0.021547814831137657
1765792833621821000,14.396821044921875,-0.06224924325942993,-0.05027823522686958,0.028730420395731926
1765792833631830500,14.40683056640625,-0.07661445438861847,-0.08858546614646912,-0.028730420395731926
1765792833641840400,14.41684033203125,-0.0071826050989329815,-0.014365210197865963,0
1765792833651850200,14.426850341796875,-0.0454898327589035,0.031124621629714966,-0.019153613597154617
1765792833661859800,14.43685986328125,-0.023942016065120697,-0.016759412363171577,-0.040701430290937424
1765792833681818400,14.456818359375,-0.06703764945268631,0.016759412363171577,0.011971008032560349
1765792833691828200,14.466828125,-0.05267243832349777,0,0.040701430290937424
1765792833701837800,14.476837890625,0.026336219161748886,-0.05985504388809204,0.035913024097681046
1765792833711817200,14.486817138671874,0,-0.033518824726343155,-0.016759412363171577
1765792833731806200,14.50680615234375,0.026336219161748886,-0.031124621629714966,-0.035913024097681046
1765792833741816000,14.516816162109375,0.031124621629714966,-0.11252748221158981,-0.035913024097681046
1765792833751825700,14.52682568359375,0.05746084079146385,-0.09816227108240128,-0.05506663769483566
1765792842237718800,23.01271875,-0.014365210197865963,-0.0454898327589035,0.004788403399288654
1765792842247759000,23.022759033203126,10.5344877243042,8.003816604614258,-1.137245774269104
1765792842297077500,23.072077392578127,-1.2330138683319092,-0.31842881441116333,0.5937620401382446
1765792842316835800,23.0918359375,-1.4077905416488647,-0.6919242739677429,-0.05506663769483566
1765792842326876200,23.101876220703126,-0.9552865028381348,-0.828393816947937,-0.14604631066322327
1765792842336855600,23.11185546875,-0.7757213711738586,-0.6057330369949341,0.011971008032560349
1765792842346865200,23.121865234375,-0.2992752194404602,-0.13168109953403473,0.3208230137825012
1765792842366823700,23.14182373046875,-0.16998831927776337,-0.06464344263076782,0.8523358106613159
1765792842386843100,23.161843017578125,0.5171475410461426,-0.22744916379451752,-0.35673606395721436
1765792842396792000,23.1717919921875,0.8954314589500427,0.08619125932455063,-0.7110779285430908
1765792842406801700,23.1818017578125,0.586579442024231,0.43335050344467163,-0.8882488012313843
1765792842426821400,23.2018212890625,-1.0438719987869263,-1.4053963422775269,0.043095629662275314
1765792842436831000,23.2118310546875,-1.1635819673538208,-0.06464344263076782,0.395043283700943
1765792842446840800,23.2218408203125,-0.6392518281936646,-0.06464344263076782,0.5219359993934631
1765792842476839700,23.251839599609376,0.6200982332229614,0.586579442024231,0.28969839215278625
1765792842516848000,23.29184814453125,0.4429273009300232,-2.030282974243164,-1.7310078144073486
1765792842606875000,23.381875,0.7493851184844971,1.2066776752471924,0.1843535304069519
1765792842656862700,23.43186279296875,-1.5610195398330688,-2.537853717803955,-0.16998831927776337
1765792842666872600,23.44187255859375,-1.237802267074585,-1.802833914756775,-0.31124621629714966
1765792842676851700,23.451851806640626,-0.07182604819536209,-0.5961562395095825,-0.7422025203704834
1765792842686831000,23.4618310546875,0.7445967197418213,0.31603461503982544,-1.4197616577148438
1765792842696840700,23.4718408203125,0.4812345504760742,-0.4429273009300232,-2.2242133617401123
1765792842706850600,23.4818505859375,0.47165772318840027,-0.4668693244457245,-2.0925323963165283
1765792842746828500,23.52182861328125,0.5267243981361389,-0.5841852426528931,-1.2473790645599365
1765792842756808000,23.531807861328126,0.40701428055763245,-0.12449848651885986,-0.4668693244457245
1765792842766817500,23.541817626953126,0.2968810200691223,0.3064578175544739,0.4357447028160095
1765792842776827400,23.551827392578126,0.43095630407333374,0.15562310814857483,1.2066776752471924
1765792842786806500,23.561806640625,0.4692635238170624,0.11013327538967133,1.4053963422775269
1765792842796786000,23.571785888671876,0.7661445140838623,-0.016759412363171577,1.580173134803772
1765792842806795500,23.58179541015625,0.933738648891449,0.3758896589279175,1.3000515699386597
1765792842816775000,23.59177490234375,0.37828385829925537,0.5793967843055725,1.403002142906189
1765792842826784800,23.60178466796875,0.2346317619085312,0.8020575642585754,1.0558429956436157
1765792842856813800,23.631813720703125,-1.2210428714752197,-0.36152446269989014,0.24181437492370605
1765792842876772400,23.6517724609375,-1.558625340461731,-0.272938996553421,0.5195417404174805
1765792842906771200,23.681771240234376,-1.280897855758667,-0.4189853072166443,-0.07422025501728058
1765792842916750600,23.69175048828125,-0.7445967197418213,-1.259350061416626,0.3998316824436188
1765792842946779600,23.721779541015625,-1.161187767982483,0.038307227194309235,0.7158663272857666
1765792842956789500,23.73178955078125,-0.8523358106613159,-0.993593692779541,1.3096283674240112
1765792842966799400,23.74179931640625,-0.6344634294509888,0.14604631066322327,0.07900865375995636
1765792842976778500,23.751778564453126,-0.4141969084739685,-0.009576806798577309,-0.011971008032560349
1765792842986788400,23.761788330078126,-0.08619125932455063,-0.1843535304069519,-0.2322375625371933
1765792842996767500,23.771767578125,0.730231523513794,0.13168109953403473,-0.5434837937355042
1765792843006747000,23.781746826171876,1.1851298809051514,0.08140286058187485,-0.811634361743927
1765792843016787200,23.791787109375,1.5155296325683594,0.181959331035614,-1.1037269830703735
1765792843026796800,23.801796875,1.7190368175506592,0.26575639843940735,-1.2018892765045166
1765792843046755300,23.82175537109375,2.7724854946136475,0.27054479718208313,-1.7908629179000854
1765792843056734700,23.831734619140626,3.2345664501190186,0.1867477297782898,-1.6160861253738403
1765792843066774800,23.84177490234375,3.550601005554199,0.2944868206977844,-1.3215993642807007
1765792843076784600,23.85178466796875,3.6990416049957275,0.7038952708244324,-0.9600749015808105
1765792843086794500,23.86179443359375,3.2968156337738037,0.667982280254364,-0.8140285611152649
1765792843096804000,23.87180419921875,2.964021682739258,0.8667010068893433,-0.4381389021873474
1765792843106814000,23.88181396484375,3.287238836288452,2.1164743900299072,2.183511972427368
1765792843116823800,23.89182373046875,2.8131868839263916,1.2449848651885986,-0.8068459630012512
1765792843126803000,23.901802978515626,2.1811177730560303,0.7661445140838623,-1.5131354331970215
1765792843136843300,23.91184326171875,2.2409727573394775,0.8451532125473022,-1.5059528350830078
1765792843166872600,23.94187255859375,0.035913024097681046,0.2082955539226532,-4.903325080871582
1765792843176851700,23.951851806640626,-0.40701428055763245,-0.5578489899635315,-3.404554843902588
1765792843186831000,23.9618310546875,-0.31842881441116333,0.272938996553421,-2.2242133617401123
1765792843196810200,23.971810302734376,-0.5722141861915588,-0.6512228846549988,-3.442862033843994
1765792843206789600,23.98178955078125,0.016759412363171577,-0.9744400978088379,-2.9161376953125
1765792843216829700,23.99182958984375,0.7398083209991455,0.1149216815829277,-1.8076223134994507
1765792843226809000,24.00180908203125,0.6272808313369751,0.6847416758537292,-2.0254945755004883
1765792843246798000,24.021798095703126,-0.7541735172271729,-0.14365209639072418,-1.6519991159439087
1765792843266817500,24.041817626953126,-1.094150185585022,0.2537853717803955,-2.056619167327881
1765792843276766500,24.051766357421876,-1.1252747774124146,-0.7541735172271729,-1.292868971824646
1765792843286745600,24.06174560546875,-0.8595184087753296,-0.9217676520347595,-1.2282254695892334
1765792843296755500,24.07175537109375,0.768538773059845,-1.764526605606079,-2.1092917919158936
1765792843306765000,24.08176513671875,1.9345149993896484,-3.1292216777801514,-2.0374655723571777
1765792843316744400,24.091744384765626,1.0414776802062988,-3.1220390796661377,-1.86508309841156
1765792843326784800,24.10178466796875,1.1444283723831177,-2.583343744277954,-2.3726539611816406
