time,seconds_elapsed,z,y,x
1765792819182876200,-0.042123779296875,7.429207801818848,-6.445190906524658,-1.2042834758758545
1765792819192655400,-0.0323447265625,7.429207801818848,-6.445190906524658,-1.2042834758758545
1765792819202465300,-0.02253466796875,7.316680431365967,-6.607996463775635,-1.1779472827911377
1765792819212344300,-0.01265576171875,7.357381820678711,-6.567295074462891,-1.280897855758667
1765792819222323700,-0.00267626953125,7.29034423828125,-6.493074893951416,-1.1659762859344482
1765792819232333600,0.00733349609375,7.354987621307373,-6.497863292694092,-1.2713210582733154
1765792819242343200,0.01734326171875,7.38132381439209,-6.615179061889648,-1.2880805730819702
1765792819252291800,0.027291748046875,7.333439826965332,-6.797138690948486,-1.3455413579940796
1765792819262332200,0.037332275390625,7.287950038909912,-6.811503887176514,-1.3646949529647827
1765792819272311600,0.0473115234375,7.295132637023926,-6.7277069091796875,-1.280897855758667
1765792819282321200,0.057321044921875,7.311892032623291,-6.596025466918945,-1.37906014919281
1765792819292270000,0.06727001953125,7.371747016906738,-6.588842868804932,-1.213860273361206
1765792819302310100,0.07731005859375,7.33583402633667,-6.406883716583252,-1.2689268589019775
1765792819312259000,0.087259033203125,7.354987621307373,-6.428431510925293,-1.3024457693099976
1765792819322207700,0.097207763671875,7.268796443939209,-6.610390663146973,-1.2545616626739502
1765792819332156400,0.107156494140625,7.204153060913086,-6.703764915466309,-1.259350061416626
1765792819342166300,0.117166259765625,7.309497833251953,-6.782773494720459,-1.3048399686813354
1765792819352115000,0.127114990234375,7.304709434509277,-6.670246124267578,-1.290474772453308
1765792819362124800,0.137124755859375,7.352593421936035,-6.658275127410889,-1.3503297567367554
1765792819372104000,0.14710400390625,7.42681360244751,-6.631938934326172,-1.280897855758667
1765792819382083300,0.157083251953125,7.398083209991455,-6.471527099609375,-1.278503656387329
1765792819412082000,0.18708203125,7.328651428222656,-6.584054470062256,-1.290474772453308
1765792819422061300,0.197061279296875,7.304709434509277,-6.576871871948242,-1.3192051649093628
1765792819432040400,0.20704052734375,7.304709434509277,-6.63433313369751,-1.2306196689605713
1765792819442050300,0.21705029296875,7.331045627593994,-6.617573261260986,-1.2761094570159912
1765792819452029400,0.227029541015625,7.3669586181640625,-6.552929878234863,-1.213860273361206
1765792819462008800,0.2370087890625,7.319074630737305,-6.698976516723633,-1.256955862045288
1765792819472018400,0.247018310546875,7.271190643310547,-6.641515731811523,-1.1994950771331787
1765792819481997800,0.256997802734375,7.261613845825195,-6.593631267547607,-1.1803414821624756
1765792819492007400,0.26700732421875,7.275979042053223,-6.521805286407471,-1.3048399686813354
1765792819522006300,0.29700634765625,7.398083209991455,-6.581660270690918,-1.3024457693099976
1765792819531985700,0.306985595703125,7.371747016906738,-6.543353080749512,-1.2880805730819702
1765792819541964800,0.31696484375,7.307103633880615,-6.574477672576904,-1.3623007535934448
1765792819551944000,0.32694384765625,7.386112213134766,-6.543353080749512,-1.3311761617660522
1765792819561953800,0.336953857421875,7.359776020050049,-6.452373504638672,-1.2761094570159912
1765792819571902500,0.34690234375,7.316680431365967,-6.567295074462891,-1.314416766166687
1765792819581912300,0.356912353515625,7.331045627593994,-6.641515731811523,-1.2856862545013428
1765792819591891500,0.366891357421875,7.407660007476807,-6.617573261260986,-1.2401964664459229
1765792819601901300,0.3769013671875,7.340622425079346,-6.722918510437012,-1.2449848651885986
1765792819641879300,0.41687939453125,7.402871608734131,-6.50025749206543,-1.3263877630233765
1765792819651828000,0.426827880859375,7.378929615020752,-6.466738700866699,-1.3311761617660522
1765792819661807400,0.436807373046875,7.319074630737305,-6.624756336212158,-1.235408067703247
1765792819671817200,0.446817138671875,7.343016624450684,-6.572083473205566,-1.3311761617660522
1765792819681826800,0.456826904296875,7.316680431365967,-6.452373504638672,-1.2737152576446533
1765792819691836700,0.466836669921875,7.316680431365967,-6.517016887664795,-1.3072341680526733
1765792819701846300,0.47684619140625,7.285555839538574,-6.605602264404297,-1.3503297567367554
1765792819711825700,0.48682568359375,7.285555839538574,-6.636727333068848,-1.3862427473068237
1765792819731814700,0.506814697265625,7.319074630737305,-6.524199485778809,-1.2401964664459229
1765792819741824500,0.516824462890625,7.354987621307373,-6.531382083892822,-1.3048399686813354
1765792819751803600,0.5268037109375,7.371747016906738,-6.536170482635498,-1.2856862545013428
1765792819761813500,0.5368134765625,7.417236804962158,-6.564900875091553,-1.3024457693099976
1765792819771823000,0.546822998046875,7.405265808105469,-6.509834289550781,-1.3215993642807007
1765792819781833000,0.5568330078125,7.402871608734131,-6.421248912811279,-1.2832920551300049
1765792819791781600,0.56678173828125,7.393294811248779,-6.145915985107422,-1.2976573705673218
1765792819801761000,0.576760986328125,7.393294811248779,-6.145915985107422,-1.2976573705673218
1765792819811740200,0.586740234375,7.371747016906738,-6.246472358703613,-1.2737152576446533
1765792819831729200,0.606729248046875,7.316680431365967,-6.205770969390869,-1.2306196689605713
1765792819841769500,0.61676953125,7.280767440795898,-6.332663536071777,-1.192312479019165
1765792819851779300,0.626779296875,7.326257228851318,-6.260837554931641,-1.2521674633026123
1765792819861789000,0.636788818359375,7.484274387359619,-6.066906929016113,-1.1994950771331787
1765792819881778000,0.65677783203125,7.8960771560668945,-5.6910176277160645,-1.5705963373184204
1765792819891757300,0.66675732421875,8.063671112060547,-5.310339450836182,-1.8363527059555054
1765792819901736400,0.676736328125,8.446743965148926,-4.867412090301514,-2.1475989818573
1765792819911746300,0.686746337890625,8.71728801727295,-4.7405195236206055,-2.2433669567108154
1765792819921756200,0.696756103515625,8.669404029846191,-4.618414878845215,-2.2697031497955322
1765792819951693800,0.72669384765625,8.710105895996094,-5.0900726318359375,-2.185906171798706
1765792819961703700,0.73670361328125,8.724471092224121,-4.4939165115356445,-2.3127987384796143
1765792819971682800,0.746682861328125,8.528146743774414,-4.20421838760376,-2.4013843536376953
1765792819981662000,0.756661865234375,8.334216117858887,-4.125209331512451,-2.5115175247192383
1765792819991641300,0.766641357421875,8.159439086914062,-4.271255970001221,-2.4157495498657227
1765792820001651200,0.776651123046875,7.9631147384643555,-4.1611223220825195,-2.609679937362671
1765792820011660800,0.786660888671875,7.752425193786621,-4.158728122711182,-2.6623523235321045
1765792820021640200,0.79664013671875,7.429207801818848,-4.592078685760498,-2.911349296569824
1765792820031619300,0.806619384765625,6.854599475860596,-5.461174011230469,-2.896984100341797
1765792820041659600,0.81665966796875,6.358999729156494,-6.4595561027526855,-2.8203697204589844
1765792820051638800,0.826638671875,5.872976779937744,-7.453149795532227,-2.7461493015289307
1765792820061648600,0.836648681640625,5.485116004943848,-8.379706382751465,-2.3989901542663574
1765792820071627800,0.846627685546875,5.125985622406006,-9.725247383117676,-2.1811177730560303
1765792820081668000,0.856668212890625,4.72376012802124,-10.273519515991211,-2.0614075660705566
1765792820091678000,0.866677978515625,4.323928356170654,-10.225635528564453,-1.886630892753601
1765792820101657000,0.876656982421875,3.6846764087677,-10.007762908935547,-1.9943699836730957
1765792820111636500,0.886636474609375,3.1890766620635986,-9.770736694335938,-1.9177556037902832
1765792820121646000,0.89664599609375,2.6886885166168213,-9.488221168518066,-1.900996208190918
1765792820131625500,0.90662548828125,2.470816135406494,-9.169792175292969,-1.7764976024627686
1765792820141635300,0.91663525390625,1.9800047874450684,-9.033323287963867,-1.7860745191574097
1765792820161654800,0.93665478515625,0.9457096457481384,-9.718064308166504,-1.2497732639312744
1765792820171634000,0.946634033203125,0.5482721924781799,-10.089165687561035,-1.0965443849563599
1765792820181674200,0.95667431640625,0.35434186458587646,-10.105925559997559,-1.1037269830703735
1765792820191684000,0.96668408203125,0.16998831927776337,-9.81143856048584,-1.0342950820922852
1765792820201693700,0.976693603515625,0.16759411990642548,-10.323798179626465,-1.0247182846069336
1765792820211673000,0.986673095703125,0.035913024097681046,-10.984597206115723,-1.0462661981582642
1765792820221652200,0.99665234375,0.05985504388809204,-11.202469825744629,-0.8882488012313843
1765792820231631600,1.006631591796875,-0.11971008777618408,-10.69489860534668,-0.5530605912208557
1765792820241672000,1.016671875,-0.17477671802043915,-10.031704902648926,-0.8762778043746948
1765792820271609600,1.046609619140625,-0.016759412363171577,-9.014169692993164,-1.4963760375976562
1765792820281619500,1.056619384765625,-0.6775590777397156,-8.779537200927734,-1.5849615335464478
1765792820291598600,1.0665986328125,-1.3958195447921753,-9.193734169006348,-1.5921441316604614
1765792820301577700,1.07657763671875,-1.7166426181793213,-9.773131370544434,-1.86508309841156
1765792820311557000,1.08655712890625,-1.8962076902389526,-10.235212326049805,-1.7310078144073486
1765792820321597400,1.096597412109375,-2.1308395862579346,-10.553641319274902,-1.7573440074920654
1765792820331576600,1.10657666015625,-2.5546131134033203,-10.220847129821777,-1.7741034030914307
1765792820341586400,1.11658642578125,-2.741360902786255,-10.06043529510498,-1.6400281190872192
1765792820351596000,1.126595947265625,-2.695871114730835,-9.813833236694336,-1.5610195398330688
1765792820371615700,1.14661572265625,-2.1523873805999756,-9.404424667358398,-1.7860745191574097
1765792820381595000,1.156594970703125,-1.764526605606079,-9.102754592895508,-1.8770540952682495
1765792820391543600,1.16654345703125,-1.8842366933822632,-8.729259490966797,-2.140416383743286
1765792820401553400,1.176553466796875,-2.3726539611816406,-8.990227699279785,-2.0829553604125977
1765792820411532500,1.186532470703125,-3.026270866394043,-9.370905876159668,-2.1045033931732178
1765792820421512000,1.196511962890625,-3.4787750244140625,-9.442731857299805,-2.008735179901123
1765792820431491000,1.206490966796875,-3.6104562282562256,-9.62947940826416,-1.9297266006469727
1765792820441531400,1.216531494140625,-3.6104562282562256,-9.62947940826416,-1.9297266006469727
1765792820451541200,1.226541259765625,-3.3710360527038574,-9.493009567260742,-2.032677173614502
1765792820471499800,1.246499755859375,-3.2848446369171143,-9.66299819946289,-1.9369091987609863
1765792820491488800,1.26648876953125,-3.840299606323242,-9.275136947631836,-1.8914192914962769
1765792820531436300,1.306436279296875,-4.177882194519043,-8.904036521911621,-1.647210717201233
1765792820541415400,1.31641552734375,-4.20421838760376,-8.98543930053711,-1.625662922859192
1765792820551425300,1.32642529296875,-4.110844135284424,-8.98543930053711,-1.6519991159439087
1765792820561435100,1.33643505859375,-3.864241600036621,-8.99740982055664,-1.6041151285171509
1765792820571444700,1.34644482421875,-3.754108190536499,-9.107542991638184,-1.7956513166427612
1765792820581454600,1.35645458984375,-3.7229835987091064,-9.167398452758789,-1.8052281141281128
1765792820591433700,1.366433837890625,-3.648763418197632,-9.279925346374512,-1.867477297782898
1765792820601443600,1.376443603515625,-3.847482204437256,-9.047688484191895,-1.7070658206939697
1765792820611422700,1.386422607421875,-3.797203779220581,-9.042900085449219,-1.9105730056762695
1765792820621432600,1.3964326171875,-3.6727054119110107,-9.011775016784668,-1.9129672050476074
1765792820631411700,1.40641162109375,-3.687070608139038,-9.2033109664917,-1.8171991109848022
1765792820641421600,1.416421630859375,-3.5745432376861572,-9.730035781860352,-2.3104045391082764
1765792820651401000,1.42640087890625,-3.648763418197632,-9.493009567260742,-1.824381709098816
1765792820661410600,1.43641064453125,-3.641580820083618,-9.651026725769043,-2.0805611610412598
1765792820671390000,1.446389892578125,-2.875436305999756,-9.258378028869629,-2.0590133666992188
1765792820691409400,1.466409423828125,-3.2800562381744385,-9.516951560974121,-2.3582887649536133
1765792820701419300,1.476419189453125,-3.6583402156829834,-8.995016098022461,-1.8555063009262085
1765792820711428900,1.486428955078125,-3.7397429943084717,-8.951920509338379,-2.1068975925445557
1765792820721438700,1.496438720703125,-3.845088005065918,-9.342175483703613,-2.099714994430542
1765792820731448300,1.5064482421875,-3.7612907886505127,-8.722076416015625,-1.8171991109848022
1765792820741427700,1.516427734375,-3.797203779220581,-8.779537200927734,-1.8267759084701538
1765792820751437600,1.5264375,-3.936067581176758,-9.150638580322266,-1.8746598958969116
1765792820761447200,1.536447265625,-3.5649664402008057,-8.858546257019043,-1.802833914756775
1765792820771426600,1.546426513671875,-3.248931646347046,-8.4108304977417,-1.824381709098816
1765792820801455900,1.576455810546875,-3.8546648025512695,-9.105149269104004,-1.8818424940109253
1765792820811435000,1.58643505859375,-3.9456443786621094,-9.272743225097656,-1.843535304069519
1765792820821414100,1.5964140625,-3.84269380569458,-9.251194953918457,-2.0039467811584473
1765792820841372700,1.61637255859375,-3.5745432376861572,-9.126696586608887,-2.142810583114624
1765792820851382500,1.626382568359375,-3.6391866207122803,-8.609549522399902,-2.1547815799713135
1765792820861392400,1.636392333984375,-3.7612907886505127,-8.465897560119629,-2.0254945755004883
1765792820871371500,1.64637158203125,-3.928884983062744,-8.544905662536621,-1.889025092124939
1765792820891360500,1.666360595703125,-3.536235809326172,-8.650250434875488,-2.1571757793426514
1765792820901370400,1.676370361328125,-3.464409828186035,-8.62630844116211,-2.1739351749420166
1765792820911349500,1.686349609375,-3.6966474056243896,-8.413225173950195,-2.1763293743133545
1765792820921359400,1.696359375,-3.8714241981506348,-8.492233276367188,-2.0422539710998535
1765792820931369200,1.706369140625,-4.259284973144531,-8.978256225585938,-2.0661959648132324
1765792820941378800,1.71637890625,-4.175487995147705,-9.421183586120605,-2.0614075660705566
1765792820951388700,1.726388671875,-4.036623954772949,-8.877699851989746,-2.0925323963165283
1765792820961398300,1.736398193359375,-3.818751811981201,-8.683769226074219,-2.0422539710998535
1765792820971377700,1.746377685546875,-3.8115692138671875,-8.9064302444458,-2.0925323963165283
1765792821011386000,1.78638623046875,-3.8355112075805664,-8.616731643676758,-1.8411411046981812
1765792821021396000,1.79639599609375,-3.8953661918640137,-8.576030731201172,-1.9105730056762695
1765792821031405800,1.80640576171875,-4.094084739685059,-8.56645393371582,-1.7812861204147339
1765792821041415400,1.81641552734375,-4.359841346740723,-8.880094528198242,-1.8626888990402222
1765792821051425300,1.82642529296875,-4.558559894561768,-8.834604263305664,-1.8626888990402222
1765792821061404400,1.836404296875,-4.460397720336914,-8.983044624328613,-1.7142484188079834
1765792821071414300,1.846414306640625,-4.378994941711426,-8.992621421813965,-1.9105730056762695
1765792821081424100,1.856424072265625,-4.378994941711426,-8.992621421813965,-1.9105730056762695
1765792821111422700,1.886422607421875,-3.9647979736328125,-8.937555313110352,-1.8483237028121948
1765792821121432600,1.8964326171875,-3.8714241981506348,-8.832210540771484,-1.802833914756775
1765792821131411700,1.90641162109375,-3.7229835987091064,-8.686163902282715,-1.886630892753601
1765792821141421600,1.916421630859375,-3.56017804145813,-8.576030731201172,-1.886630892753601
1765792821151370200,1.926370361328125,-3.4548330307006836,-8.609549522399902,-1.946485996246338
1765792821161410600,1.93641064453125,-3.689464807510376,-9.11233139038086,-1.9512743949890137
1765792821171420400,1.94642041015625,-3.6320040225982666,-9.141061782836914,-1.920149803161621
1765792821181430000,1.956429931640625,-3.4763808250427246,-9.02135181427002,-1.9632453918457031
1765792821201419300,1.976419189453125,-3.6176388263702393,-8.944737434387207,-1.9033904075622559
1765792821211428900,1.986428955078125,-3.5745432376861572,-9.318233489990234,-1.9129672050476074
1765792821221438700,1.996438720703125,-3.550601005554199,-8.87291145324707,-2.0207061767578125
1765792821231417900,2.00641796875,-3.6176388263702393,-8.83699893951416,-1.944091796875
1765792821241427700,2.016427734375,-3.6128504276275635,-8.645462036132812,-1.8770540952682495
1765792821251406800,2.02640673828125,-3.8522706031799316,-8.492233276367188,-1.8722656965255737
1765792821261416700,2.036416748046875,-4.101267337799072,-8.69095230102539,-1.7717092037200928
1765792821271395800,2.046395751953125,-3.9911341667175293,-8.913613319396973,-1.8507179021835327
1765792821281375200,2.056375244140625,-3.7708675861358643,-8.966285705566406,-1.8698714971542358
1765792821291354400,2.066354248046875,-3.485957622528076,-8.904036521911621,-1.920149803161621
1765792821301364200,2.0763642578125,-3.2776620388031006,-8.9064302444458,-1.9321208000183105
1765792821311343400,2.08634326171875,-3.4404678344726562,-8.935160636901855,-1.7741034030914307
1765792821321383700,2.0963837890625,-3.6296098232269287,-8.942343711853027,-1.7070658206939697
1765792821331393500,2.1063935546875,-3.797203779220581,-8.884882926940918,-1.821987509727478
1765792821341403400,2.1164033203125,-3.8331170082092285,-9.004592895507812,-1.7142484188079834
1765792821351382500,2.126382568359375,-3.7493197917938232,-9.05487060546875,-1.9393033981323242
1765792821361361700,2.136361572265625,-3.732560396194458,-8.944737434387207,-1.8962076902389526
1765792821371341000,2.146341064453125,-3.7469255924224854,-9.045293807983398,-1.900996208190918
1765792821381351000,2.156350830078125,-3.7181951999664307,-9.02135181427002,-1.900996208190918
1765792821391330000,2.166330078125,-3.7708675861358643,-8.851364135742188,-1.7118542194366455
1765792821431277600,2.206277587890625,-3.993528366088867,-8.868123054504395,-1.7980455160140991
1765792821441287400,2.216287353515625,-3.8810009956359863,-8.789113998413086,-1.867477297782898
1765792821451266600,2.2262666015625,-3.9600095748901367,-9.20091724395752,-1.8315643072128296
1765792821461245700,2.23624560546875,-3.773261785507202,-9.100360870361328,-1.965639591217041
1765792821471255600,2.246255615234375,-3.8522706031799316,-8.846575736999512,-1.8698714971542358
1765792821481265400,2.256265380859375,-3.971980571746826,-8.887276649475098,-1.86508309841156
1765792821491244500,2.26624462890625,-3.8953661918640137,-8.674192428588867,-1.9177556037902832
1765792821511233500,2.286233642578125,-4.091690540313721,-8.655038833618164,-1.8722656965255737
1765792821541202000,2.316201904296875,-4.151545524597168,-8.683769226074219,-1.8171991109848022
1765792821551181000,2.32618115234375,-4.252102375030518,-8.686163902282715,-1.778891921043396
1765792821561221400,2.336221435546875,-4.177882194519043,-8.674192428588867,-1.8339585065841675
1765792821571170000,2.346170166015625,-4.220977783203125,-8.59997272491455,-1.8339585065841675
1765792821581180000,2.356179931640625,-4.146757125854492,-8.523358345031738,-1.7501614093780518
1765792821591159000,2.366158935546875,-4.022258758544922,-8.813055992126465,-1.8818424940109253
1765792821611148000,2.38614794921875,-4.022258758544922,-9.009381294250488,-1.7717092037200928
1765792821621127400,2.39612744140625,-3.9815573692321777,-8.932766914367676,-1.778891921043396
1765792821631137300,2.40613720703125,-3.931279182434082,-8.899248123168945,-1.802833914756775
1765792821641147000,2.41614697265625,-3.8977603912353516,-8.755595207214355,-1.7717092037200928
1765792821651126300,2.426126220703125,-3.9624037742614746,-8.755595207214355,-1.7860745191574097
1765792821661105400,2.43610546875,-4.110844135284424,-8.738836288452148,-1.7717092037200928
1765792821671084800,2.446084716796875,-4.101267337799072,-8.71728801727295,-1.8387469053268433
1765792821681094400,2.456094482421875,-4.127603530883789,-8.609549522399902,-1.7262194156646729
1765792821691104300,2.466104248046875,-4.2090067863464355,-8.520963668823242,-1.7070658206939697
1765792821701113900,2.47611376953125,-4.19224739074707,-8.796297073364258,-1.7908629179000854
1765792821741122600,2.51612255859375,-4.015076160430908,-8.937555313110352,-1.8579005002975464
1765792821751071200,2.5260712890625,-3.995922565460205,-8.868123054504395,-1.800439715385437
1765792821761081000,2.5360810546875,-4.05817174911499,-8.80587387084961,-1.7980455160140991
1765792821771060200,2.546060302734375,-3.9815573692321777,-8.83939266204834,-1.7764976024627686
1765792821781070000,2.556070068359375,-3.9169139862060547,-8.580819129943848,-1.8602946996688843
1765792821791079700,2.56607958984375,-3.9887399673461914,-8.559270858764648,-1.824381709098816
1765792821801089500,2.576089599609375,-4.027047157287598,-8.7484130859375,-1.867477297782898
1765792821811069000,2.58606884765625,-4.0294413566589355,-8.757989883422852,-1.8579005002975464
1765792821831027200,2.606027099609375,-4.05817174911499,-8.779537200927734,-1.8579005002975464
1765792821841037000,2.616037109375,-4.137180328369141,-8.827422142028809,-1.843535304069519
1765792821851047000,2.626046875,-4.134786128997803,-8.798690795898438,-1.8507179021835327
1765792821861026000,2.636026123046875,-4.132391929626465,-8.927978515625,-1.946485996246338
1765792821881015000,2.65601513671875,-3.995922565460205,-8.662221908569336,-1.8842366933822632
1765792821890994400,2.665994384765625,-3.9432501792907715,-8.844181060791016,-1.9369091987609863
1765792821900973600,2.6759736328125,-3.998316764831543,-8.913613319396973,-1.9488801956176758
1765792821910953000,2.685952880859375,-4.091690540313721,-8.904036521911621,-1.8602946996688843
1765792821920962600,2.695962646484375,-4.086902141571045,-8.884882926940918,-1.7597382068634033
1765792821930942000,2.70594189453125,-4.079719543457031,-8.829815864562988,-1.7741034030914307
1765792821960940500,2.7359404296875,-4.244919776916504,-8.53532886505127,-1.6974890232086182
1765792821970920000,2.745919921875,-4.266467571258545,-8.650250434875488,-1.7693150043487549
1765792821980929500,2.755929443359375,-4.127603530883789,-8.834604263305664,-1.8315643072128296
1765792821990909000,2.765908935546875,-4.019864559173584,-8.683769226074219,-1.8794482946395874
1765792822000949200,2.77594921875,-4.01268196105957,-8.635885238647461,-1.8363527059555054
1765792822010928400,2.785928466796875,-3.9025487899780273,-8.628703117370605,-1.8339585065841675
1765792822020938200,2.795938232421875,-3.950432777404785,-8.564059257507324,-1.7884687185287476
1765792822040927200,2.81592724609375,-4.041412353515625,-8.851364135742188,-1.821987509727478
1765792822050937000,2.82593701171875,-4.039018154144287,-8.892065048217773,-1.8291701078414917
1765792822060946700,2.83594677734375,-4.036623954772949,-8.954314231872559,-1.920149803161621
1765792822070926000,2.845926025390625,-3.9815573692321777,-8.825027465820312,-1.9105730056762695
1765792822080905200,2.8559052734375,-3.971980571746826,-8.734047889709473,-1.9129672050476074
1765792822090884400,2.86588427734375,-4.082113742828369,-8.777143478393555,-1.9129672050476074
1765792822100924700,2.875924560546875,-4.034229755401611,-8.810662269592285,-1.9584569931030273
1765792822110904000,2.885904052734375,-4.019864559173584,-8.789113998413086,-1.922544002532959
1765792822120944400,2.8959443359375,-4.005499362945557,-8.731653213500977,-1.922544002532959
1765792822150821000,2.925821044921875,-3.8115692138671875,-8.892065048217773,-1.889025092124939
1765792822160830700,2.935830810546875,-3.866635799407959,-8.848969459533691,-1.8076223134994507
1765792822170840600,2.945840576171875,-3.9480385780334473,-8.705317497253418,-1.8698714971542358
1765792822180819700,2.95581982421875,-3.9456443786621094,-8.647856712341309,-1.8818424940109253
1765792822190829600,2.96582958984375,-4.062960147857666,-8.753201484680176,-1.900996208190918
1765792822200839400,2.97583935546875,-4.082113742828369,-8.793902397155762,-1.922544002532959
1765792822210818600,2.985818603515625,-4.060565948486328,-8.769960403442383,-1.9105730056762695
1765792822240817400,3.0158173828125,-4.106055736541748,-8.789113998413086,-1.845929503440857
1765792822250796500,3.025796630859375,-4.098873138427734,-8.722076416015625,-1.843535304069519
1765792822260806400,3.035806396484375,-4.144362926483154,-8.858546257019043,-1.845929503440857
1765792822270785500,3.04578564453125,-4.1180267333984375,-8.762778282165527,-1.800439715385437
1765792822280795400,3.05579541015625,-4.153939723968506,-8.664615631103516,-1.764526605606079
1765792822290774500,3.0657744140625,-4.134786128997803,-8.78432559967041,-1.800439715385437
1765792822300784400,3.075784423828125,-4.062960147857666,-8.741230010986328,-1.8339585065841675
1765792822310763500,3.085763427734375,-3.957615375518799,-8.647856712341309,-1.821987509727478
1765792822320773400,3.0957734375,-3.890577793121338,-8.736441612243652,-1.8914192914962769
1765792822330783200,3.105783203125,-3.998316764831543,-8.89445972442627,-1.8339585065841675
1765792822370730800,3.145730712890625,-4.060565948486328,-8.803479194641113,-1.7812861204147339
1765792822380740400,3.155740234375,-4.0294413566589355,-8.877699851989746,-1.8579005002975464
1765792822390719700,3.1657197265625,-4.043806552886963,-8.825027465820312,-1.9560627937316895
1765792822400729300,3.175729248046875,-3.9815573692321777,-8.853757858276367,-1.920149803161621
1765792822410708700,3.185708740234375,-3.9217023849487305,-8.767566680908203,-1.941697597503662
1765792822420718300,3.19571826171875,-3.8762125968933105,-8.7484130859375,-1.889025092124939
1765792822430697700,3.20569775390625,-3.912125587463379,-8.710105895996094,-1.9584569931030273
1765792822440707600,3.21570751953125,-3.9264907836914062,-8.81784439086914,-1.889025092124939
1765792822450686700,3.225686767578125,-3.8977603912353516,-8.944737434387207,-1.9369091987609863
1765792822490695200,3.265695068359375,-3.971980571746826,-8.69334602355957,-1.886630892753601
1765792822500674600,3.275674560546875,-3.93367338180542,-8.655038833618164,-1.8531121015548706
1765792822510684200,3.28568408203125,-4.027047157287598,-8.78432559967041,-1.8746598958969116
1765792822520694000,3.295694091796875,-3.9169139862060547,-8.858546257019043,-1.889025092124939
1765792822530642700,3.305642578125,-3.866635799407959,-8.793902397155762,-1.8698714971542358
1765792822540683000,3.31568310546875,-3.8139634132385254,-8.7268648147583,-1.8722656965255737
1765792822550662400,3.325662353515625,-3.8786067962646484,-8.686163902282715,-1.8267759084701538
1765792822590640400,3.365640380859375,-4.079719543457031,-8.827422142028809,-1.7764976024627686
1765792822600680700,3.3756806640625,-4.091690540313721,-8.772355079650879,-1.778891921043396
1765792822610659800,3.385659912109375,-4.000710964202881,-8.798690795898438,-1.821987509727478
1765792822620669700,3.395669677734375,-4.005499362945557,-8.87051773071289,-1.9081788063049316
1765792822630648800,3.40564892578125,-4.05817174911499,-8.923190116882324,-1.8722656965255737
1765792822640689200,3.415689208984375,-3.9839515686035156,-8.789113998413086,-1.7836803197860718
1765792822650699000,3.425698974609375,-3.9169139862060547,-8.71728801727295,-1.778891921043396
1765792822700656000,3.47565625,-3.8786067962646484,-8.7268648147583,-1.8148049116134644
1765792822710666000,3.485666015625,-3.9480385780334473,-8.796297073364258,-1.8914192914962769
1765792822720675800,3.49567578125,-3.993528366088867,-8.791508674621582,-1.867477297782898
1765792822730655000,3.505655029296875,-3.950432777404785,-8.793902397155762,-1.9129672050476074
1765792822740664800,3.515664794921875,-3.9480385780334473,-8.757989883422852,-1.922544002532959
1765792822750644000,3.52564404296875,-3.952826976776123,-8.762778282165527,-1.9081788063049316
1765792822760623400,3.535623291015625,-3.9264907836914062,-8.813055992126465,-1.8602946996688843
1765792822790622000,3.5656220703125,-4.017470359802246,-8.87291145324707,-1.7836803197860718
1765792822800631800,3.5756318359375,-3.950432777404785,-8.757989883422852,-1.86508309841156
1765792822810641700,3.5856416015625,-3.928884983062744,-8.798690795898438,-1.9129672050476074
1765792822820651300,3.5956513671875,-3.88818359375,-8.83699893951416,-1.8938134908676147
1765792822830661000,3.6056611328125,-3.9600095748901367,-8.860940933227539,-1.944091796875
1765792822840671000,3.6156708984375,-3.9025487899780273,-8.89445972442627,-1.8267759084701538
1765792822850650000,3.625650146484375,-3.9169139862060547,-8.791508674621582,-1.8698714971542358
1765792822860660000,3.635659912109375,-3.993528366088867,-8.757989883422852,-1.8986018896102905
1765792822880649000,3.65564892578125,-3.9600095748901367,-8.813055992126465,-1.8363527059555054
1765792822900638000,3.675637939453125,-4.039018154144287,-8.791508674621582,-1.8339585065841675
1765792822910617000,3.6856171875,-4.031835556030273,-8.731653213500977,-1.8339585065841675
1765792822920627000,3.695626953125,-3.9863457679748535,-8.53293514251709,-1.8842366933822632
1765792822930636800,3.70563671875,-3.88818359375,-8.650250434875488,-1.8148049116134644
1765792822940616000,3.715615966796875,-3.914519786834717,-8.834604263305664,-1.8148049116134644
1765792822950595000,3.725594970703125,-3.9001545906066895,-8.851364135742188,-1.766920804977417
1765792822960605000,3.73560498046875,-3.8762125968933105,-8.880094528198242,-1.8531121015548706
1765792822980655000,3.755655029296875,-3.861847400665283,-8.808267593383789,-1.8986018896102905
1765792822990664700,3.765664794921875,-3.861847400665283,-8.808267593383789,-1.8986018896102905
1765792823000674600,3.775674560546875,-3.8115692138671875,-8.860940933227539,-1.802833914756775
1765792823010684200,3.78568408203125,-3.7397429943084717,-8.992621421813965,-1.889025092124939
1765792823020694000,3.795694091796875,-3.665522813796997,-8.96389102935791,-1.9273324012756348
1765792823030703900,3.805703857421875,-3.624821424484253,-8.80587387084961,-1.900996208190918
1765792823040713500,3.81571337890625,-3.7684733867645264,-8.83939266204834,-1.9105730056762695
1765792823050723300,3.825723388671875,-3.8283286094665527,-8.923190116882324,-1.8602946996688843
1765792823060733200,3.835733154296875,-3.9671921730041504,-8.822632789611816,-1.9488801956176758
1765792823070742800,3.84574267578125,-3.907337188720703,-8.798690795898438,-1.8746598958969116
1765792823090762500,3.865762451171875,-3.9647979736328125,-8.683769226074219,-1.845929503440857
1765792823100802800,3.875802734375,-3.912125587463379,-8.755595207214355,-1.8363527059555054
1765792823110782000,3.885781982421875,-3.8738183975219727,-8.827422142028809,-1.8507179021835327
1765792823120822300,3.895822265625,-3.8067808151245117,-8.925583839416504,-1.821987509727478
1765792823130801400,3.905801513671875,-3.7277719974517822,-8.987833023071289,-1.86508309841156
1765792823140811300,3.915811279296875,-3.7014358043670654,-8.956708908081055,-1.8339585065841675
1765792823150790400,3.925790283203125,-3.691859006881714,-8.884882926940918,-1.9057846069335938
1765792823170779400,3.945779296875,-3.8762125968933105,-8.832210540771484,-1.886630892753601
1765792823180789200,3.955789306640625,-3.9001545906066895,-8.863334655761719,-1.9057846069335938
1765792823190829600,3.96582958984375,-3.952826976776123,-8.87051773071289,-1.8962076902389526
1765792823200808700,3.97580859375,-3.9025487899780273,-8.822632789611816,-1.9345149993896484
1765792823210788000,3.9857880859375,-3.885789394378662,-8.777143478393555,-1.8746598958969116
1765792823220767200,3.995767333984375,-3.8977603912353516,-8.820239067077637,-1.8052281141281128
1765792823230746600,4.00574658203125,-3.8594532012939453,-8.87051773071289,-1.8171991109848022
1765792823240787000,4.015786865234375,-3.9408559799194336,-8.853757858276367,-1.8842366933822632
1765792823250796500,4.025796630859375,-3.9217023849487305,-8.882488250732422,-1.845929503440857
1765792823260776000,4.03577587890625,-3.890577793121338,-8.786720275878906,-1.8722656965255737
1765792823270755000,4.045755126953125,-3.9049429893493652,-8.80587387084961,-1.8579005002975464
1765792823280765000,4.055764892578125,-3.8786067962646484,-8.75080680847168,-1.8483237028121948
1765792823290744000,4.065744140625,-3.8762125968933105,-8.734047889709473,-1.8818424940109253
1765792823310702600,4.08570263671875,-3.840299606323242,-9.011775016784668,-1.920149803161621
1765792823320712400,4.09571240234375,-3.864241600036621,-8.956708908081055,-1.8555063009262085
1765792823330691600,4.105691650390625,-3.8570590019226074,-8.834604263305664,-1.9249382019042969
1765792823340701400,4.115701416015625,-3.952826976776123,-8.822632789611816,-1.824381709098816
1765792823350680600,4.1256806640625,-3.890577793121338,-8.882488250732422,-1.8387469053268433
1765792823360690400,4.1356904296875,-3.909731388092041,-8.87291145324707,-1.9632453918457031
1765792823370669600,4.145669677734375,-3.9264907836914062,-8.743624687194824,-1.8602946996688843
1765792823380679400,4.155679443359375,-3.9384617805480957,-8.858546257019043,-1.7956513166427612
1765792823390658600,4.165658447265625,-3.861847400665283,-8.743624687194824,-1.7836803197860718
1765792823400638000,4.175637939453125,-3.845088005065918,-8.549694061279297,-1.7741034030914307
1765792823410678300,4.18567822265625,-3.864241600036621,-8.71489429473877,-1.7884687185287476
1765792823420688000,4.19568798828125,-3.77565598487854,-9.038111686706543,-1.8148049116134644
1765792823430697700,4.20569775390625,-3.7229835987091064,-9.095572471618652,-1.9704279899597168
1765792823440707600,4.21570751953125,-3.5960910320281982,-8.990227699279785,-1.8938134908676147
1765792823450717200,4.22571728515625,-3.646369218826294,-8.978256225585938,-1.8722656965255737
1765792823460727000,4.23572705078125,-3.6535518169403076,-9.050082206726074,-1.9057846069335938
1765792823470737000,4.24573681640625,-3.7469255924224854,-9.078812599182129,-1.9129672050476074
1765792823480746500,4.25574658203125,-3.7469255924224854,-9.136273384094238,-1.8794482946395874
1765792823490726000,4.265725830078125,-3.73016619682312,-8.925583839416504,-1.922544002532959
1765792823500735500,4.275735595703125,-3.7445313930511475,-8.978256225585938,-1.8411411046981812
1765792823510745300,4.285745361328125,-3.818751811981201,-9.08838939666748,-1.7070658206939697
1765792823530764800,4.305764892578125,-3.5936968326568604,-9.035717010498047,-1.8555063009262085
1765792823540744200,4.315744140625,-3.4835634231567383,-8.772355079650879,-1.889025092124939
1765792823550723300,4.325723388671875,-3.488351821899414,-8.975862503051758,-1.8124107122421265
1765792823560733200,4.335733154296875,-3.248931646347046,-8.937555313110352,-1.8746598958969116
1765792823570712300,4.34571240234375,-3.31118106842041,-8.537723541259766,-1.867477297782898
1765792823580691700,4.355691650390625,-3.4141316413879395,-8.767566680908203,-1.8076223134994507
1765792823590670800,4.3656708984375,-3.533841609954834,-9.129091262817383,-1.8148049116134644
1765792823600711200,4.375711181640625,-3.4596214294433594,-8.853757858276367,-1.8531121015548706
1765792823610721000,4.385720947265625,-3.4739866256713867,-8.89445972442627,-1.8507179021835327
1765792823640750000,4.41575,-3.488351821899414,-8.875306129455566,-1.8986018896102905
1765792823650729500,4.4257294921875,-3.488351821899414,-8.875306129455566,-1.8986018896102905
1765792823660708600,4.43570849609375,-3.4739866256713867,-8.971074104309082,-1.946485996246338
1765792823670688000,4.44568798828125,-3.464409828186035,-8.999804496765137,-1.8267759084701538
1765792823680697600,4.455697509765625,-3.49314022064209,-9.026140213012695,-1.9704279899597168
1765792823690707500,4.46570751953125,-3.531447410583496,-9.095572471618652,-1.941697597503662
1765792823700686800,4.475686767578125,-3.5003228187561035,-9.081207275390625,-1.946485996246338
1765792823710666000,4.485666015625,-3.5721490383148193,-9.006986618041992,-1.8363527059555054
1765792823720645000,4.49564501953125,-3.557783842086792,-8.973467826843262,-1.9393033981323242
1765792823740634000,4.515634033203125,-3.576937437057495,-8.99740982055664,-1.7717092037200928
1765792823750644000,4.52564404296875,-3.533841609954834,-9.062053680419922,-1.7860745191574097
1765792823760623400,4.535623291015625,-3.4524388313293457,-8.987833023071289,-1.8626888990402222
1765792823770633000,4.545633056640625,-3.512293815612793,-8.96149730682373,-1.745373010635376
1765792823780673300,4.55567333984375,-3.643975019454956,-9.071630477905273,-1.800439715385437
1765792823790683100,4.56568310546875,-3.6128504276275635,-8.98543930053711,-1.7286136150360107
1765792823800723500,4.575723388671875,-3.5218706130981445,-8.901641845703125,-1.8339585065841675
1765792823810702600,4.58570263671875,-3.509899616241455,-8.880094528198242,-1.8267759084701538
1765792823820712400,4.59571240234375,-3.56017804145813,-9.006986618041992,-1.7621324062347412
1765792823830722000,4.60572216796875,-3.533841609954834,-9.05487060546875,-1.8387469053268433
1765792823860751400,4.63575146484375,-3.557783842086792,-9.0859956741333,-1.9153614044189453
1765792823880771000,4.65577099609375,-3.5386300086975098,-8.911218643188477,-1.946485996246338
1765792823890750200,4.665750244140625,-3.466804027557373,-8.935160636901855,-1.8962076902389526
1765792823900760000,4.675760009765625,-3.5218706130981445,-8.971074104309082,-1.944091796875
1765792823910769700,4.685769775390625,-3.469198226928711,-8.96389102935791,-1.8507179021835327
1765792823920810000,4.69581005859375,-3.5194764137268066,-9.028534889221191,-1.920149803161621
1765792823930789400,4.705789306640625,-3.6104562282562256,-9.047688484191895,-1.9488801956176758
1765792823940799000,4.715799072265625,-3.552995204925537,-9.093177795410156,-1.8698714971542358
1765792823950808800,4.725808837890625,-3.5242648124694824,-9.066842079162598,-1.941697597503662
1765792823960818400,4.735818359375,-3.5745432376861572,-8.983044624328613,-1.9321208000183105
1765792823970828300,4.745828369140625,-3.5625722408294678,-8.848969459533691,-1.9129672050476074
1765792823980838100,4.755838134765625,-3.581725835800171,-8.853757858276367,-1.8914192914962769
1765792823990847700,4.76584765625,-3.5960910320281982,-8.96389102935791,-1.8746598958969116
1765792824000888000,4.77588818359375,-3.6128504276275635,-8.99740982055664,-1.8938134908676147
1765792824010867500,4.785867431640625,-3.6296098232269287,-8.978256225585938,-1.867477297782898
1765792824020907800,4.79590771484375,-3.5721490383148193,-8.93037223815918,-1.802833914756775
1765792824030887000,4.805886962890625,-3.6583402156829834,-8.959102630615234,-1.7908629179000854
1765792824040896800,4.815896728515625,-3.6607344150543213,-9.01895809173584,-1.9105730056762695
1765792824050876000,4.8258759765625,-3.622427225112915,-9.071630477905273,-2.0183119773864746
1765792824060885800,4.8358857421875,-3.641580820083618,-9.081207275390625,-1.98958158493042
1765792824070865000,4.845864990234375,-3.6152446269989014,-8.983044624328613,-1.9632453918457031
1765792824080905200,4.8559052734375,-3.6128504276275635,-8.911218643188477,-1.9776105880737305
1765792824090884400,4.86588427734375,-3.6942532062530518,-8.904036521911621,-1.8770540952682495
1765792824100894200,4.875894287109375,-3.5889084339141846,-9.01895809173584,-1.86508309841156
1765792824110873600,4.88587353515625,-3.643975019454956,-8.96149730682373,-1.8986018896102905
1765792824120913700,4.89591357421875,-3.6104562282562256,-9.009381294250488,-1.8722656965255737
1765792824130923500,4.905923583984375,-3.603273630142212,-8.923190116882324,-1.9057846069335938
1765792824140933400,4.915933349609375,-3.56017804145813,-8.927978515625,-1.8626888990402222
1765792824160922400,4.93592236328125,-3.6320040225982666,-8.99740982055664,-1.922544002532959
1765792824170901500,4.945901611328125,-3.687070608139038,-9.100360870361328,-1.8698714971542358
1765792824180911400,4.955911376953125,-3.7038300037384033,-9.121908187866211,-1.8195933103561401
1765792824190890500,4.965890380859375,-3.6966474056243896,-9.05247688293457,-1.8339585065841675
1765792824200930800,4.975930908203125,-3.5242648124694824,-8.968679428100586,-1.8291701078414917
1765792824210910200,4.98591015625,-3.5913026332855225,-8.98543930053711,-1.8171991109848022
1765792824220950300,4.9959501953125,-3.6607344150543213,-9.035717010498047,-1.8148049116134644
1765792824230960000,5.005960205078125,-3.6296098232269287,-8.96149730682373,-1.889025092124939
1765792824240970000,5.015969970703125,-3.56017804145813,-9.009381294250488,-1.9057846069335938
1765792824250949000,5.02594921875,-3.663128614425659,-8.96389102935791,-1.9057846069335938
1765792824270938000,5.045938232421875,-3.7158010005950928,-8.978256225585938,-1.9369091987609863
1765792824280978400,5.055978515625,-3.7684733867645264,-8.848969459533691,-1.9057846069335938
1765792824290988300,5.06598828125,-3.6846764087677,-8.932766914367676,-1.9536685943603516
1765792824301028600,5.076028564453125,-3.600879430770874,-8.983044624328613,-1.946485996246338
1765792824311007700,5.0860078125,-3.5697548389434814,-8.880094528198242,-1.9105730056762695
1765792824330996700,5.105996826171875,-3.5889084339141846,-8.846575736999512,-1.8555063009262085
1765792824341006600,5.116006591796875,-3.5889084339141846,-8.911218643188477,-1.8483237028121948
1765792824350985700,5.12598583984375,-3.622427225112915,-8.999804496765137,-1.9129672050476074
1765792824360995600,5.13599560546875,-3.6511576175689697,-8.927978515625,-1.824381709098816
1765792824380984600,5.155984619140625,-3.751713991165161,-8.959102630615234,-1.824381709098816
1765792824390963700,5.165963623046875,-3.7229835987091064,-8.983044624328613,-1.7764976024627686
1765792824401004000,5.176004150390625,-3.7445313930511475,-9.107542991638184,-1.8267759084701538
1765792824411014000,5.186013916015625,-3.6391866207122803,-9.069235801696777,-1.9345149993896484
1765792824421023700,5.196023681640625,-3.646369218826294,-8.966285705566406,-1.8794482946395874
1765792824430972400,5.205972412109375,-3.6080620288848877,-8.98543930053711,-1.7956513166427612
1765792824440982000,5.21598193359375,-3.6320040225982666,-8.937555313110352,-1.8722656965255737
1765792824450961400,5.22596142578125,-3.624821424484253,-8.856152534484863,-1.8339585065841675
1765792824460940500,5.2359404296875,-3.60566782951355,-8.968679428100586,-1.86508309841156
1765792824470920000,5.245919921875,-3.627215623855591,-8.916007041931152,-1.8483237028121948
1765792824500949200,5.27594921875,-3.6367924213409424,-8.89685344696045,-1.8914192914962769
1765792824520968700,5.29596875,-3.6559460163116455,-8.959102630615234,-1.8794482946395874
1765792824530947800,5.30594775390625,-3.620033025741577,-9.038111686706543,-1.8387469053268433
1765792824540927200,5.31592724609375,-3.7038300037384033,-8.927978515625,-1.944091796875
1765792824550876000,5.3258759765625,-3.689464807510376,-8.975862503051758,-1.920149803161621
1765792824560916200,5.335916259765625,-3.603273630142212,-9.042900085449219,-1.8938134908676147
1765792824570926000,5.345926025390625,-3.5266590118408203,-8.968679428100586,-1.9153614044189453
1765792824580905200,5.3559052734375,-3.6296098232269287,-8.968679428100586,-1.9033904075622559
1765792824590884400,5.36588427734375,-3.603273630142212,-8.93037223815918,-1.8698714971542358
1765792824600894200,5.375894287109375,-3.667917013168335,-8.89685344696045,-1.8052281141281128
1765792824610873600,5.38587353515625,-3.6152446269989014,-8.820239067077637,-1.8531121015548706
1765792824620883200,5.39588330078125,-3.6559460163116455,-8.93037223815918,-1.7812861204147339
1765792824630893000,5.40589306640625,-3.6727054119110107,-9.014169692993164,-1.8626888990402222
1765792824640903000,5.41590283203125,-3.665522813796997,-9.016563415527344,-1.800439715385437
1765792824650882000,5.425882080078125,-3.754108190536499,-8.987833023071289,-1.802833914756775
1765792824660892000,5.435891845703125,-3.734954595565796,-9.042900085449219,-1.9081788063049316
1765792824670871000,5.44587109375,-3.7229835987091064,-8.98543930053711,-1.8626888990402222
1765792824680881000,5.455880859375,-3.643975019454956,-8.83939266204834,-1.8722656965255737
1765792824710879500,5.48587939453125,-3.428496837615967,-8.99740982055664,-1.9297266006469727
1765792824720889300,5.495889404296875,-3.581725835800171,-9.033323287963867,-1.9297266006469727
1765792824730899200,5.505899169921875,-3.6320040225982666,-9.074024200439453,-1.8291701078414917
1765792824740908800,5.51590869140625,-3.665522813796997,-8.904036521911621,-1.867477297782898
1765792824750918700,5.525918701171875,-3.6128504276275635,-8.899248123168945,-1.843535304069519
1765792824760928500,5.535928466796875,-3.7158010005950928,-8.966285705566406,-1.8483237028121948
1765792824770907600,5.54590771484375,-3.670311212539673,-9.030928611755371,-1.8507179021835327
1765792824780887000,5.555886962890625,-3.620033025741577,-9.002198219299316,-1.8315643072128296
1765792824800906500,5.575906494140625,-3.555389642715454,-9.023746490478516,-1.8339585065841675
1765792824810885600,5.5858857421875,-3.4955344200134277,-9.08838939666748,-1.8794482946395874
1765792824820895500,5.5958955078125,-3.536235809326172,-9.038111686706543,-1.8770540952682495
1765792824830905300,5.6059052734375,-3.5410242080688477,-8.96149730682373,-1.8555063009262085
1765792824840915000,5.6159150390625,-3.646369218826294,-9.064447402954102,-1.8483237028121948
1765792824850894300,5.625894287109375,-3.6846764087677,-9.040505409240723,-1.8914192914962769
1765792824860904000,5.635904052734375,-3.6966474056243896,-8.956708908081055,-1.7908629179000854
1765792824870913800,5.645913818359375,-3.6583402156829834,-8.916007041931152,-1.9057846069335938
1765792824880923600,5.655923583984375,-3.646369218826294,-8.93037223815918,-1.8579005002975464
1765792824910891800,5.685891845703125,-3.7038300037384033,-8.822632789611816,-1.764526605606079
1765792824920901600,5.695901611328125,-3.576937437057495,-9.045293807983398,-1.8387469053268433
1765792824930880800,5.705880859375,-3.5458126068115234,-8.772355079650879,-1.8483237028121948
1765792824940890600,5.715890625,-3.3638534545898438,-9.028534889221191,-1.9321208000183105
1765792824950869800,5.725869873046875,-3.4141316413879395,-9.035717010498047,-1.8507179021835327
1765792824960879600,5.735879638671875,-3.4141316413879395,-9.035717010498047,-1.8507179021835327
1765792824970858800,5.745858642578125,-3.308786630630493,-8.959102630615234,-1.9728221893310547
1765792824980868600,5.75586865234375,-3.383007049560547,-9.006986618041992,-1.965639591217041
1765792824990847700,5.76584765625,-3.3877954483032227,-9.131484985351562,-2.0183119773864746
1765792825010898000,5.78589794921875,-3.3446998596191406,-9.121908187866211,-1.9129672050476074
1765792825020877000,5.795876953125,-3.4332852363586426,-9.08838939666748,-1.8698714971542358
1765792825030887000,5.805886962890625,-3.423708438873291,-9.078812599182129,-1.8842366933822632
1765792825040896800,5.815896728515625,-3.4979286193847656,-9.093177795410156,-1.86508309841156
1765792825050876000,5.8258759765625,-3.512293815612793,-9.083600997924805,-1.8698714971542358
1765792825060885800,5.8358857421875,-3.531447410583496,-8.939949035644531,-1.7741034030914307
1765792825070834400,5.84583447265625,-3.5410242080688477,-8.980650901794434,-1.7860745191574097
1765792825080844300,5.85584423828125,-3.6104562282562256,-8.975862503051758,-1.7597382068634033
1765792825090854000,5.86585400390625,-3.531447410583496,-8.882488250732422,-1.8195933103561401
1765792825110812400,5.8858125,-3.5218706130981445,-8.99740982055664,-1.8938134908676147
1765792825140811300,5.915811279296875,-3.5410242080688477,-9.083600997924805,-1.9153614044189453
1765792825150790400,5.925790283203125,-3.490746021270752,-9.045293807983398,-1.8986018896102905
1765792825160800300,5.93580029296875,-3.4548330307006836,-8.939949035644531,-1.8315643072128296
1765792825170779400,5.945779296875,-3.421314239501953,-8.947132110595703,-1.9081788063049316
1765792825180789200,5.955789306640625,-3.421314239501953,-8.975862503051758,-1.946485996246338
1765792825190799000,5.965799072265625,-3.181894063949585,-8.877699851989746,-1.8531121015548706
1765792825200808700,5.97580859375,-3.4332852363586426,-8.925583839416504,-1.8602946996688843
1765792825220828400,5.995828369140625,-3.2585084438323975,-9.272743225097656,-1.8986018896102905
1765792825240817400,6.0158173828125,-3.1004912853240967,-9.17936897277832,-1.8531121015548706
1765792825250827000,6.025826904296875,-3.2776620388031006,-9.75397777557373,-1.920149803161621
1765792825260836900,6.0358369140625,-3.5051112174987793,-9.66539192199707,-1.920149803161621
1765792825270816000,6.04581591796875,-3.6607344150543213,-9.351752281188965,-1.821987509727478
1765792825280856300,6.055856201171875,-3.799597978591919,-8.932766914367676,-1.800439715385437
1765792825290866200,6.0658662109375,-3.952826976776123,-8.60236644744873,-1.723825216293335
1765792825300906500,6.075906494140625,-3.9264907836914062,-8.611943244934082,-1.8507179021835327
1765792825310885600,6.0858857421875,-3.6535518169403076,-8.56645393371582,-1.8052281141281128
1765792825340884500,6.115884521484375,-3.4356794357299805,-8.973467826843262,-1.8555063009262085
1765792825350863600,6.125863525390625,-3.4356794357299805,-9.040505409240723,-1.8052281141281128
1765792825360904000,6.135904052734375,-3.450044631958008,-9.107542991638184,-1.941697597503662
1765792825370913800,6.145913818359375,-3.4524388313293457,-8.96389102935791,-1.8100165128707886
1765792825380923600,6.155923583984375,-3.471592426300049,-8.7484130859375,-1.8483237028121948
1765792825390933200,6.165933349609375,-3.485957622528076,-8.81784439086914,-1.8291701078414917
1765792825400943000,6.175943115234375,-3.531447410583496,-8.987833023071289,-1.867477297782898
1765792825410953000,6.185952880859375,-3.557783842086792,-9.011775016784668,-1.8698714971542358
1765792825430942000,6.20594189453125,-3.514688014984131,-9.107542991638184,-1.8339585065841675
1765792825440982000,6.21598193359375,-3.5410242080688477,-9.155426979064941,-1.766920804977417
1765792825450991900,6.225991943359375,-3.536235809326172,-9.114726066589355,-1.7501614093780518
1765792825461001700,6.236001708984375,-3.514688014984131,-9.157821655273438,-1.7980455160140991
1765792825470980900,6.24598095703125,-3.5913026332855225,-9.253589630126953,-1.8148049116134644
1765792825481021200,6.256021240234375,-3.4596214294433594,-9.258378028869629,-1.824381709098816
1765792825491031000,6.266031005859375,-3.5434184074401855,-9.07641887664795,-1.8746598958969116
1765792825501071400,6.2760712890625,-3.5003228187561035,-9.038111686706543,-1.8555063009262085
1765792825511081000,6.2860810546875,-3.5218706130981445,-8.980650901794434,-1.8698714971542358
1765792825541079800,6.316079833984375,-3.450044631958008,-8.846575736999512,-1.8579005002975464
1765792825551089700,6.326089599609375,-3.488351821899414,-8.80587387084961,-1.8195933103561401
1765792825561099300,6.336099365234375,-3.5003228187561035,-8.925583839416504,-1.9057846069335938
1765792825571109000,6.346109130859375,-3.4787750244140625,-8.868123054504395,-1.8339585065841675
1765792825581119000,6.356118896484375,-3.450044631958008,-8.813055992126465,-1.86508309841156
1765792825591128600,6.366128662109375,-3.421314239501953,-8.944737434387207,-1.8746598958969116
1765792825601169000,6.3761689453125,-3.490746021270752,-9.148244857788086,-1.9321208000183105
1765792825611117600,6.38611767578125,-3.4787750244140625,-9.023746490478516,-1.8387469053268433
1765792825631167700,6.406167724609375,-3.5410242080688477,-9.119514465332031,-1.7884687185287476
1765792825641177300,6.41617724609375,-3.5913026332855225,-9.107542991638184,-1.8602946996688843
1765792825651187200,6.426187255859375,-3.555389642715454,-9.083600997924805,-1.7860745191574097
1765792825661197000,6.436197021484375,-3.5027170181274414,-9.186552047729492,-1.742978811264038
1765792825671176200,6.44617626953125,-3.4979286193847656,-9.124302864074707,-1.7908629179000854
1765792825681216500,6.456216552734375,-3.507505416870117,-9.05247688293457,-1.7310078144073486
1765792825691195600,6.466195556640625,-3.5649664402008057,-9.033323287963867,-1.8076223134994507
1765792825701236000,6.476236083984375,-3.550601005554199,-8.968679428100586,-1.8579005002975464
1765792825711185000,6.486184814453125,-3.555389642715454,-8.942343711853027,-1.7741034030914307
1765792825721225000,6.496224853515625,-3.5386300086975098,-8.880094528198242,-1.802833914756775
1765792825751223800,6.526223876953125,-3.488351821899414,-9.01895809173584,-1.8579005002975464
1765792825761233700,6.536233642578125,-3.5051112174987793,-8.987833023071289,-1.821987509727478
1765792825771243300,6.5462431640625,-3.533841609954834,-8.96389102935791,-1.900996208190918
1765792825781222700,6.55622265625,-3.5266590118408203,-8.93037223815918,-1.8770540952682495
1765792825791201800,6.566201904296875,-3.552995204925537,-8.932766914367676,-1.8698714971542358
1765792825801242000,6.5762421875,-3.557783842086792,-8.954314231872559,-1.8842366933822632
1765792825811221500,6.586221435546875,-3.507505416870117,-9.006986618041992,-1.8818424940109253
1765792825821261600,6.596261474609375,-3.4835634231567383,-9.035717010498047,-1.8411411046981812
1765792825831271400,6.606271484375,-3.4356794357299805,-8.913613319396973,-1.824381709098816
1765792825851291000,6.626290771484375,-3.5410242080688477,-9.107542991638184,-1.8100165128707886
1765792825861300700,6.63630078125,-3.5721490383148193,-9.10993766784668,-1.8363527059555054
1765792825871279900,6.64627978515625,-3.4787750244140625,-9.035717010498047,-1.8363527059555054
1765792825881289700,6.656289794921875,-3.552995204925537,-9.050082206726074,-1.8171991109848022
1765792825891299600,6.666299560546875,-3.691859006881714,-9.148244857788086,-1.8315643072128296
1765792825901309200,6.67630908203125,-3.3446998596191406,-9.157821655273438,-1.8315643072128296
1765792825911288600,6.68628857421875,-3.406949043273926,-8.669404029846191,-1.8507179021835327
1765792825921298200,6.696298095703125,-3.533841609954834,-9.057265281677246,-1.778891921043396
1765792825931308000,6.70630810546875,-3.6391866207122803,-9.282320022583008,-1.8100165128707886
1765792825961307000,6.736306884765625,-3.4620156288146973,-9.119514465332031,-1.778891921043396
1765792825971316500,6.74631640625,-3.4811692237854004,-8.765172004699707,-1.922544002532959
1765792825981295900,6.7562958984375,-3.5625722408294678,-8.863334655761719,-1.766920804977417
1765792826001315300,6.7763154296875,-3.533841609954834,-9.062053680419922,-1.802833914756775
1765792826011325200,6.7863251953125,-3.5194764137268066,-8.978256225585938,-1.8267759084701538
1765792826021335000,6.7963349609375,-3.490746021270752,-8.96389102935791,-1.8626888990402222
1765792826031314200,6.806314208984375,-3.581725835800171,-8.901641845703125,-1.824381709098816
1765792826041354500,6.8163544921875,-3.576937437057495,-8.975862503051758,-1.824381709098816
1765792826061374000,6.8363740234375,-3.490746021270752,-9.107542991638184,-1.8770540952682495
1765792826071322600,6.846322509765625,-3.514688014984131,-8.99740982055664,-1.8698714971542358
1765792826081363000,6.856363037109375,-3.49314022064209,-8.954314231872559,-1.9177556037902832
1765792826091372800,6.866372802734375,-3.5386300086975098,-8.93037223815918,-1.800439715385437
1765792826101352000,6.87635205078125,-3.5745432376861572,-8.899248123168945,-1.8052281141281128
1765792826111361800,6.88636181640625,-3.598485231399536,-8.899248123168945,-1.8100165128707886
1765792826121371600,6.89637158203125,-3.60566782951355,-8.877699851989746,-1.7549498081207275
1765792826131320300,6.9063203125,-3.620033025741577,-8.992621421813965,-1.7357962131500244
1765792826141360600,6.916360595703125,-3.6343982219696045,-9.038111686706543,-1.8148049116134644
1765792826171359200,6.946359130859375,-3.6942532062530518,-8.947132110595703,-1.8267759084701538
1765792826181338600,6.956338623046875,-3.6104562282562256,-8.853757858276367,-1.8411411046981812
1765792826191348200,6.96634814453125,-3.5625722408294678,-8.911218643188477,-1.8962076902389526
1765792826201358000,6.976358154296875,-3.469198226928711,-8.925583839416504,-1.9632453918457031
1765792826211337500,6.98633740234375,-3.5386300086975098,-8.89685344696045,-1.8195933103561401
1765792826221347000,6.99634716796875,-3.5003228187561035,-8.913613319396973,-1.8315643072128296
1765792826231326500,7.006326416015625,-3.56017804145813,-8.992621421813965,-1.766920804977417
1765792826241366500,7.016366455078125,-3.4572272300720215,-9.047688484191895,-1.9321208000183105
1765792826251315500,7.0263154296875,-3.3949780464172363,-9.02135181427002,-1.9321208000183105
1765792826291324000,7.066323974609375,-3.406949043273926,-9.150638580322266,-1.8986018896102905
1765792826301303300,7.07630322265625,-3.4596214294433594,-9.042900085449219,-1.8124107122421265
1765792826311313000,7.08631298828125,-3.3734302520751953,-9.011775016784668,-1.8602946996688843
1765792826321322800,7.09632275390625,-3.450044631958008,-9.047688484191895,-1.867477297782898
1765792826331332400,7.106332275390625,-3.490746021270752,-9.11233139038086,-1.845929503440857
1765792826341342200,7.11634228515625,-3.4596214294433594,-9.071630477905273,-1.843535304069519
1765792826351321600,7.126321533203125,-3.426102638244629,-9.050082206726074,-1.8986018896102905
1765792826361331200,7.136331298828125,-3.4189200401306152,-9.042900085449219,-1.8626888990402222
1765792826381320200,7.1563203125,-3.3686418533325195,-9.057265281677246,-1.941697597503662
1765792826391330000,7.166330078125,-3.4404678344726562,-9.040505409240723,-1.941697597503662
1765792826401370400,7.176370361328125,-3.426102638244629,-8.944737434387207,-1.9081788063049316
1765792826411380000,7.1863798828125,-3.380612850189209,-8.834604263305664,-1.8986018896102905
1765792826421389800,7.196389892578125,-3.380612850189209,-8.889671325683594,-1.8722656965255737
1765792826431399700,7.206399658203125,-3.3710360527038574,-9.009381294250488,-1.8914192914962769
1765792826441409300,7.2164091796875,-3.3039982318878174,-9.026140213012695,-1.9800047874450684
1765792826451419100,7.226419189453125,-3.157952070236206,-8.992621421813965,-1.9321208000183105
1765792826461429000,7.236428955078125,-3.112462282180786,-8.767566680908203,-1.9321208000183105
1765792826481448400,7.256448486328125,-3.3854012489318848,-9.375694274902344,-1.965639591217041
1765792826491458300,7.266458251953125,-3.2752678394317627,-9.040505409240723,-2.0039467811584473
1765792826511447300,7.286447265625,-3.339911460876465,-9.32302188873291,-1.9776105880737305
1765792826521457000,7.296456787109375,-3.406949043273926,-9.299078941345215,-1.9584569931030273
1765792826531436300,7.306436279296875,-3.598485231399536,-9.311050415039062,-1.965639591217041
1765792826541446000,7.31644580078125,-3.7014358043670654,-9.208099365234375,-1.86508309841156
1765792826551425300,7.32642529296875,-3.6367924213409424,-8.856152534484863,-1.766920804977417
1765792826561435100,7.33643505859375,-3.4117374420166016,-8.719682693481445,-1.8076223134994507
1765792826571383800,7.3463837890625,-3.28963303565979,-8.954314231872559,-1.8579005002975464
1765792826591372800,7.366372802734375,-3.2752678394317627,-9.121908187866211,-1.9488801956176758
1765792826601382400,7.37638232421875,-3.35667085647583,-9.097966194152832,-1.9297266006469727
1765792826611361800,7.38636181640625,-3.3662476539611816,-9.083600997924805,-1.9033904075622559
1765792826621371600,7.39637158203125,-3.3901896476745605,-9.030928611755371,-1.9129672050476074
1765792826631381200,7.40638134765625,-3.466804027557373,-8.973467826843262,-1.8842366933822632
1765792826641421600,7.416421630859375,-3.450044631958008,-8.825027465820312,-1.9081788063049316
1765792826651431400,7.426431396484375,-3.4332852363586426,-8.698134422302246,-1.9177556037902832
1765792826661441000,7.43644091796875,-3.4093432426452637,-8.71489429473877,-1.824381709098816
1765792826671390000,7.446389892578125,-3.471592426300049,-8.87051773071289,-1.9297266006469727
1765792826681399600,7.456399658203125,-3.308786630630493,-8.959102630615234,-1.9728221893310547
1765792826691409400,7.466409423828125,-3.4356794357299805,-9.038111686706543,-1.8794482946395874
1765792826701419300,7.476419189453125,-3.421314239501953,-9.155426979064941,-1.9177556037902832
1765792826711398400,7.4863984375,-3.4117374420166016,-9.133879661560059,-1.987187385559082
1765792826721408300,7.496408203125,-3.421314239501953,-9.133879661560059,-1.8698714971542358
1765792826731387400,7.506387451171875,-3.488351821899414,-9.095572471618652,-1.8171991109848022
1765792826741397200,7.516397216796875,-3.5625722408294678,-9.169792175292969,-1.7693150043487549
1765792826751376400,7.52637646484375,-3.5434184074401855,-9.117119789123535,-1.7573440074920654
1765792826761386200,7.53638623046875,-3.5697548389434814,-9.081207275390625,-1.7980455160140991
1765792826771395800,7.546395751953125,-3.555389642715454,-9.047688484191895,-1.8052281141281128
1765792826781405700,7.55640576171875,-3.5936968326568604,-8.975862503051758,-1.7956513166427612
1765792826801455900,7.576455810546875,-3.598485231399536,-8.951920509338379,-1.845929503440857
1765792826811465500,7.586465576171875,-3.5218706130981445,-8.959102630615234,-1.8579005002975464
1765792826821475300,7.596475341796875,-3.471592426300049,-8.944737434387207,-1.9153614044189453
1765792826831454500,7.606454345703125,-3.552995204925537,-8.990227699279785,-1.843535304069519
1765792826841464300,7.61646435546875,-3.576937437057495,-8.848969459533691,-1.8794482946395874
1765792826851474200,7.62647412109375,-3.5673606395721436,-8.83699893951416,-1.9369091987609863
1765792826861453300,7.636453369140625,-3.533841609954834,-8.863334655761719,-1.9057846069335938
1765792826871463200,7.646463134765625,-3.5745432376861572,-8.865729331970215,-1.8746598958969116
1765792826881472800,7.65647265625,-3.5673606395721436,-8.877699851989746,-1.8770540952682495
1765792826891482600,7.666482666015625,-3.5936968326568604,-8.956708908081055,-1.8315643072128296
1765792826901523000,7.67652294921875,-3.5889084339141846,-8.992621421813965,-1.9129672050476074
1765792826911502000,7.686502197265625,-3.469198226928711,-8.968679428100586,-1.867477297782898
1765792826921542400,7.69654248046875,-3.464409828186035,-8.939949035644531,-1.845929503440857
1765792826931521800,7.706521728515625,-3.4787750244140625,-9.078812599182129,-1.922544002532959
1765792826941531400,7.716531494140625,-3.464409828186035,-9.10993766784668,-1.8842366933822632
1765792826951541200,7.726541259765625,-3.4548330307006836,-9.193734169006348,-1.8962076902389526
1765792826971560700,7.746560791015625,-3.4404678344726562,-9.138668060302734,-1.941697597503662
1765792826981570600,7.756570556640625,-3.4332852363586426,-9.100360870361328,-1.8579005002975464
1765792827001590000,7.776590087890625,-3.4835634231567383,-9.095572471618652,-1.9081788063049316
1765792827011600000,7.786599853515625,-3.536235809326172,-8.992621421813965,-1.8579005002975464
1765792827021609500,7.796609375,-3.536235809326172,-8.968679428100586,-1.8722656965255737
1765792827031588900,7.8065888671875,-3.5266590118408203,-8.980650901794434,-1.867477297782898
1765792827041598500,7.816598388671875,-3.5218706130981445,-8.995016098022461,-1.867477297782898
1765792827051608300,7.8266083984375,-3.4308910369873047,-8.990227699279785,-1.8291701078414917
1765792827061618200,7.8366181640625,-3.421314239501953,-8.968679428100586,-1.802833914756775
1765792827071597300,7.846597412109375,-3.5051112174987793,-8.904036521911621,-1.7932571172714233
1765792827081607200,7.856607177734375,-3.490746021270752,-8.96389102935791,-1.8579005002975464
1765792827091617000,7.866616943359375,-3.598485231399536,-8.925583839416504,-1.8914192914962769
1765792827111606000,7.88660595703125,-3.5745432376861572,-8.942343711853027,-1.9033904075622559
1765792827121646000,7.89664599609375,-3.5386300086975098,-8.932766914367676,-1.867477297782898
1765792827151645000,7.92664501953125,-3.512293815612793,-8.96389102935791,-1.7884687185287476
1765792827171664400,7.946664306640625,-3.3949780464172363,-9.17697525024414,-1.9033904075622559
1765792827181643800,7.956643798828125,-3.4979286193847656,-9.035717010498047,-1.8770540952682495
1765792827191623000,7.966622802734375,-3.5458126068115234,-9.016563415527344,-1.7525556087493896
1765792827201632800,7.9766328125,-3.5960910320281982,-9.062053680419922,-1.8746598958969116
1765792827221621800,7.996621826171875,-3.5936968326568604,-8.877699851989746,-1.766920804977417
1765792827231601200,8.00660107421875,-3.533841609954834,-8.951920509338379,-1.8411411046981812
1765792827241672000,8.016671875,-3.4835634231567383,-9.016563415527344,-1.8483237028121948
1765792827251651000,8.026651123046875,-3.4572272300720215,-9.066842079162598,-1.886630892753601
1765792827261691400,8.03669140625,-3.56017804145813,-9.040505409240723,-1.8579005002975464
1765792827271670500,8.04667041015625,-3.557783842086792,-8.959102630615234,-1.8698714971542358
1765792827281710800,8.0567109375,-3.507505416870117,-8.908824920654297,-1.9393033981323242
1765792827291720700,8.066720703125,-3.531447410583496,-8.918401718139648,-1.9129672050476074
1765792827301730300,8.076730224609374,-3.5242648124694824,-8.87051773071289,-2.027888774871826
1765792827311709700,8.086709716796875,-3.4380736351013184,-8.913613319396973,-1.9991583824157715
1765792827331759600,8.106759521484374,-3.423708438873291,-8.932766914367676,-1.941697597503662
1765792827341739000,8.116739013671875,-3.426102638244629,-9.074024200439453,-1.845929503440857
1765792827351748600,8.12674853515625,-3.4332852363586426,-9.188945770263672,-1.8507179021835327
1765792827361789000,8.136788818359374,-3.490746021270752,-9.148244857788086,-1.8602946996688843
1765792827371737900,8.14673779296875,-3.5649664402008057,-9.090784072875977,-1.824381709098816
1765792827381778000,8.15677783203125,-3.627215623855591,-9.006986618041992,-1.802833914756775
1765792827391757300,8.16675732421875,-3.5242648124694824,-8.992621421813965,-1.8315643072128296
1765792827401736400,8.176736328125,-3.514688014984131,-8.947132110595703,-1.8938134908676147
1765792827411746300,8.186746337890625,-3.471592426300049,-8.944737434387207,-1.8507179021835327
1765792827451785500,8.226785400390625,-3.509899616241455,-8.911218643188477,-1.8052281141281128
1765792827461795000,8.236795166015625,-3.49314022064209,-8.954314231872559,-1.7956513166427612
1765792827471774500,8.2467744140625,-3.485957622528076,-9.006986618041992,-1.9297266006469727
1765792827481814500,8.256814453125,-3.490746021270752,-8.959102630615234,-1.845929503440857
1765792827491794000,8.2667939453125,-3.529053211212158,-8.901641845703125,-1.7812861204147339
1765792827501773000,8.27677294921875,-3.531447410583496,-8.9064302444458,-1.889025092124939
1765792827511783000,8.286782958984375,-3.488351821899414,-8.920795440673828,-1.8411411046981812
1765792827541781800,8.31678173828125,-3.49314022064209,-9.011775016784668,-1.9249382019042969
1765792827551761000,8.326760986328125,-3.4093432426452637,-9.033323287963867,-1.9321208000183105
1765792827561740300,8.336740234375,-3.4189200401306152,-9.124302864074707,-1.9129672050476074
1765792827571750000,8.34675,-3.4548330307006836,-9.129091262817383,-1.8507179021835327
1765792827581759700,8.356759765625,-3.4548330307006836,-9.023746490478516,-1.8387469053268433
1765792827591739000,8.36673876953125,-3.5170822143554688,-9.059659004211426,-1.7860745191574097
1765792827601748700,8.376748779296875,-3.5625722408294678,-9.074024200439453,-1.8171991109848022
1765792827611758600,8.386758544921875,-3.5410242080688477,-9.026140213012695,-1.7741034030914307
1765792827621768200,8.396768310546875,-3.5410242080688477,-9.026140213012695,-1.7741034030914307
1765792827641818400,8.416818359375,-3.514688014984131,-8.973467826843262,-1.7980455160140991
1765792827651828000,8.426827880859374,-3.490746021270752,-9.033323287963867,-1.723825216293335
1765792827661837800,8.436837890625,-3.507505416870117,-8.937555313110352,-1.8124107122421265
1765792827671847700,8.44684765625,-3.4763808250427246,-8.975862503051758,-1.8076223134994507
1765792827681857300,8.456857177734374,-3.4979286193847656,-9.02135181427002,-1.7741034030914307
1765792827691867100,8.4668671875,-3.581725835800171,-8.939949035644531,-1.900996208190918
1765792827701877000,8.476876953125,-3.5170822143554688,-8.939949035644531,-1.8842366933822632
1765792827711856000,8.486856201171875,-3.5745432376861572,-9.009381294250488,-1.867477297782898
1765792827721866000,8.496865966796875,-3.5218706130981445,-9.035717010498047,-1.9153614044189453
1765792827741855000,8.51685498046875,-3.512293815612793,-8.992621421813965,-1.8626888990402222
1765792827751834000,8.526834228515625,-3.4356794357299805,-8.968679428100586,-1.7812861204147339
1765792827761874400,8.53687451171875,-3.531447410583496,-8.923190116882324,-1.7956513166427612
1765792827771853800,8.546853759765625,-3.56017804145813,-9.047688484191895,-1.8363527059555054
1765792827781894000,8.556893798828124,-3.5936968326568604,-9.062053680419922,-1.889025092124939
1765792827791903700,8.56690380859375,-3.550601005554199,-8.980650901794434,-1.8315643072128296
1765792827801913600,8.57691357421875,-3.4572272300720215,-8.944737434387207,-1.8363527059555054
1765792827811923200,8.586923095703124,-3.552995204925537,-9.069235801696777,-1.8794482946395874
1765792827821933000,8.59693310546875,-3.5482068061828613,-9.090784072875977,-1.8818424940109253
1765792827831912200,8.606912109375,-3.56017804145813,-8.975862503051758,-1.8148049116134644
1765792827841922000,8.616922119140625,-3.5218706130981445,-8.971074104309082,-1.8315643072128296
1765792827851870700,8.62687060546875,-3.4356794357299805,-9.016563415527344,-1.8507179021835327
1765792827861880600,8.636880615234375,-3.4739866256713867,-8.834604263305664,-1.8076223134994507
1765792827871859700,8.646859619140624,-3.533841609954834,-8.932766914367676,-1.8291701078414917
1765792827881900000,8.656900146484375,-3.531447410583496,-8.920795440673828,-1.7381904125213623
1765792827891910000,8.666909912109375,-3.5458126068115234,-9.074024200439453,-1.900996208190918
1765792827901919700,8.676919677734375,-3.5410242080688477,-9.038111686706543,-1.778891921043396
1765792827921908700,8.69690869140625,-3.507505416870117,-9.121908187866211,-1.8387469053268433
1765792827931918300,8.70691845703125,-3.469198226928711,-9.011775016784668,-1.9273324012756348
1765792827941928200,8.71692822265625,-3.490746021270752,-9.011775016784668,-1.86508309841156
1765792827951938000,8.72693798828125,-3.49314022064209,-8.944737434387207,-1.8339585065841675
1765792827961947600,8.73694775390625,-3.488351821899414,-8.9064302444458,-1.8986018896102905
1765792827971957500,8.74695751953125,-3.4811692237854004,-8.954314231872559,-1.8818424940109253
1765792827981967400,8.75696728515625,-3.4955344200134277,-9.030928611755371,-1.8531121015548706
1765792827991946500,8.766946533203125,-3.5434184074401855,-8.975862503051758,-1.8531121015548706
1765792828001925600,8.776925537109374,-3.5218706130981445,-9.040505409240723,-1.8507179021835327
1765792828011905000,8.786905029296875,-3.4835634231567383,-9.069235801696777,-1.8387469053268433
1765792828021914600,8.79691455078125,-3.5218706130981445,-9.126696586608887,-1.824381709098816
1765792828031924500,8.806924560546875,-3.509899616241455,-9.030928611755371,-1.8387469053268433
1765792828041934300,8.816934326171875,-3.5625722408294678,-8.959102630615234,-1.802833914756775
1765792828061953800,8.836953857421875,-3.533841609954834,-9.009381294250488,-1.8195933103561401
1765792828071963600,8.846963623046875,-3.509899616241455,-8.949525833129883,-1.8507179021835327
1765792828081973200,8.85697314453125,-3.514688014984131,-8.913613319396973,-1.9129672050476074
1765792828091983000,8.866983154296875,-3.5003228187561035,-9.035717010498047,-1.7381904125213623
1765792828101993000,8.876992919921875,-3.488351821899414,-9.105149269104004,-1.8148049116134644
1765792828112002600,8.88700244140625,-3.4739866256713867,-9.05487060546875,-1.8626888990402222
1765792828122012400,8.897012451171875,-3.576937437057495,-9.095572471618652,-1.7741034030914307
1765792828131991600,8.906991455078124,-3.5482068061828613,-9.131484985351562,-1.8363527059555054
1765792828142001400,8.91700146484375,-3.5242648124694824,-8.978256225585938,-1.8555063009262085
1765792828172000300,8.947000244140625,-3.5170822143554688,-8.968679428100586,-1.9081788063049316
1765792828181979400,8.9569794921875,-3.464409828186035,-8.865729331970215,-1.8531121015548706
1765792828191989200,8.9669892578125,-3.4380736351013184,-8.916007041931152,-1.889025092124939
1765792828201999000,8.9769990234375,-3.5003228187561035,-8.98543930053711,-1.8986018896102905
1765792828212008700,8.9870087890625,-3.4835634231567383,-8.975862503051758,-1.8842366933822632
1765792828222018600,8.9970185546875,-3.485957622528076,-9.047688484191895,-1.8962076902389526
1765792828232028200,9.007028076171874,-3.464409828186035,-9.026140213012695,-1.9057846069335938
1765792828242068500,9.017068359375,-3.4811692237854004,-9.050082206726074,-1.843535304069519
1765792828252048000,9.0270478515625,-3.4739866256713867,-9.023746490478516,-1.8746598958969116
1765792828262027000,9.037027099609375,-3.6128504276275635,-9.11233139038086,-1.8195933103561401
1765792828282046500,9.05704638671875,-3.5625722408294678,-8.999804496765137,-1.8794482946395874
1765792828292056300,9.067056396484375,-3.5625722408294678,-8.999804496765137,-1.8794482946395874
1765792828302066200,9.077066162109375,-3.5913026332855225,-9.028534889221191,-1.8387469053268433
1765792828312075800,9.08707568359375,-3.5673606395721436,-9.045293807983398,-1.8842366933822632
1765792828322085600,9.097085693359375,-3.5218706130981445,-8.949525833129883,-1.8124107122421265
1765792828332065000,9.10706494140625,-3.421314239501953,-8.949525833129883,-1.8842366933822632
1765792828342074600,9.11707470703125,-3.529053211212158,-8.999804496765137,-1.8291701078414917
1765792828352084500,9.12708447265625,-3.579331636428833,-8.916007041931152,-1.7956513166427612
1765792828362094000,9.137093994140624,-3.5458126068115234,-8.858546257019043,-1.7621324062347412
1765792828372104000,9.14710400390625,-3.5745432376861572,-8.956708908081055,-1.7717092037200928
1765792828392062500,9.1670625,-3.464409828186035,-9.081207275390625,-1.7956513166427612
1765792828402133200,9.17713330078125,-3.5242648124694824,-9.038111686706543,-1.8794482946395874
1765792828412143000,9.18714306640625,-3.4811692237854004,-8.978256225585938,-1.8291701078414917
1765792828422152700,9.197152587890624,-3.507505416870117,-8.96149730682373,-1.8411411046981812
1765792828432162600,9.20716259765625,-3.3925838470458984,-9.042900085449219,-1.8962076902389526
1765792828442172400,9.21717236328125,-3.450044631958008,-9.042900085449219,-1.8411411046981812
1765792828452151600,9.227151611328125,-3.5194764137268066,-9.083600997924805,-1.8962076902389526
1765792828462191900,9.23719189453125,-3.4548330307006836,-9.050082206726074,-1.9273324012756348
1765792828472201700,9.24720166015625,-3.490746021270752,-8.980650901794434,-1.824381709098816
1765792828482211300,9.25721142578125,-3.428496837615967,-9.066842079162598,-1.9752163887023926
1765792828492221200,9.26722119140625,-3.44765043258667,-9.028534889221191,-1.86508309841156
1765792828512271000,9.28727099609375,-3.4739866256713867,-8.992621421813965,-1.8626888990402222
1765792828522281000,9.297281005859375,-3.471592426300049,-8.925583839416504,-1.8602946996688843
1765792828532260000,9.307260009765624,-3.5242648124694824,-8.913613319396973,-1.8315643072128296
1765792828542270000,9.31727001953125,-3.509899616241455,-8.935160636901855,-1.8411411046981812
1765792828552218600,9.327218505859374,-3.512293815612793,-9.009381294250488,-1.8267759084701538
1765792828562289400,9.337289306640624,-3.4811692237854004,-9.014169692993164,-1.8171991109848022
1765792828572299300,9.34729931640625,-3.464409828186035,-9.042900085449219,-1.9536685943603516
1765792828582339600,9.357339599609375,-3.5170822143554688,-8.975862503051758,-1.7741034030914307
1765792828592349400,9.367349365234375,-3.4739866256713867,-9.059659004211426,-1.8602946996688843
1765792828602359000,9.377359130859375,-3.552995204925537,-9.08838939666748,-1.8195933103561401
1765792828612338400,9.38733837890625,-3.4979286193847656,-9.0859956741333,-1.8291701078414917
1765792828622378500,9.39737841796875,-3.488351821899414,-8.975862503051758,-1.8602946996688843
1765792828632388400,9.407388427734375,-3.4955344200134277,-9.038111686706543,-1.8602946996688843
1765792828642398200,9.417398193359375,-3.4404678344726562,-9.105149269104004,-1.8339585065841675
1765792828652377300,9.42737744140625,-3.397372245788574,-9.062053680419922,-1.9105730056762695
1765792828662356700,9.437356689453125,-3.5170822143554688,-8.968679428100586,-1.8339585065841675
1765792828672366300,9.447366455078125,-3.5242648124694824,-9.01895809173584,-1.843535304069519
1765792828682376200,9.457376220703125,-3.488351821899414,-8.96389102935791,-1.886630892753601
1765792828712405500,9.487405517578125,-3.5266590118408203,-9.033323287963867,-1.7597382068634033
1765792828722415400,9.497415283203125,-3.555389642715454,-8.944737434387207,-1.8267759084701538
1765792828732425000,9.507425048828125,-3.550601005554199,-8.887276649475098,-1.7860745191574097
1765792828742434800,9.517434814453125,-3.5434184074401855,-9.016563415527344,-1.8626888990402222
1765792828752444400,9.5274443359375,-3.4548330307006836,-9.040505409240723,-1.8794482946395874
1765792828762454300,9.537454345703125,-3.428496837615967,-9.114726066589355,-1.843535304069519
1765792828772433700,9.54743359375,-3.4739866256713867,-9.129091262817383,-1.8171991109848022
1765792828782473700,9.5574736328125,-3.5386300086975098,-9.138668060302734,-1.766920804977417
1765792828792483600,9.567483642578125,-3.450044631958008,-8.980650901794434,-1.8315643072128296
1765792828802493400,9.577493408203125,-3.536235809326172,-8.93037223815918,-1.8076223134994507
1765792828812472600,9.58747265625,-3.555389642715454,-8.980650901794434,-1.8171991109848022
1765792828822482400,9.597482421875,-3.5649664402008057,-9.006986618041992,-1.8100165128707886
1765792828832492000,9.607491943359374,-3.6104562282562256,-8.932766914367676,-1.7908629179000854
1765792828842471400,9.617471435546875,-3.5721490383148193,-8.954314231872559,-1.7836803197860718
1765792828852450600,9.627450439453124,-3.445256233215332,-9.01895809173584,-1.8171991109848022
1765792828862491000,9.637490966796875,-3.3877954483032227,-9.014169692993164,-1.8171991109848022
1765792828872500700,9.647500732421875,-3.3016040325164795,-9.105149269104004,-1.8626888990402222
1765792828882510300,9.65751025390625,-3.222595453262329,-9.090784072875977,-1.9057846069335938
1765792828892520200,9.667520263671875,-3.1651346683502197,-8.968679428100586,-1.8746598958969116
1765792828922549500,9.697549560546875,-3.5721490383148193,-9.090784072875977,-1.8363527059555054
1765792828932559400,9.707559326171875,-3.4835634231567383,-9.014169692993164,-1.9033904075622559
1765792828942569000,9.71756884765625,-3.378218650817871,-8.932766914367676,-1.867477297782898
1765792828952548400,9.72754833984375,-3.3638534545898438,-8.999804496765137,-1.824381709098816
1765792828962558000,9.737557861328124,-3.354276657104492,-9.102754592895508,-1.802833914756775
1765792828972537300,9.747537353515625,-3.361459255218506,-9.17697525024414,-1.8339585065841675
1765792828982547200,9.757547119140625,-3.361459255218506,-9.17697525024414,-1.8339585065841675
1765792828992556800,9.767556884765625,-3.251325845718384,-9.150638580322266,-1.867477297782898
1765792829002536200,9.7775361328125,-3.251325845718384,-9.009381294250488,-1.7956513166427612
1765792829032504300,9.80750439453125,-3.5936968326568604,-9.459490776062012,-1.7262194156646729
1765792829042514200,9.81751416015625,-3.5003228187561035,-9.423578262329102,-1.8507179021835327
1765792829052523800,9.827523681640624,-3.421314239501953,-9.205705642700195,-1.8387469053268433
1765792829062503200,9.837503173828125,-3.28963303565979,-9.497797966003418,-1.8267759084701538
1765792829072512800,9.8475126953125,-3.203441858291626,-9.071630477905273,-1.7597382068634033
1765792829082522600,9.857522705078125,-3.201047658920288,-8.932766914367676,-1.745373010635376
1765792829092532500,9.867532470703125,-3.141192674636841,-9.121908187866211,-1.7477672100067139
1765792829102542000,9.8775419921875,-3.0885202884674072,-9.081207275390625,-1.699883222579956
1765792829122561800,9.897561767578125,-3.023876667022705,-8.595184326171875,-1.6950948238372803
1765792829132571400,9.9075712890625,-3.0406360626220703,-8.865729331970215,-1.7118542194366455
1765792829142581200,9.917581298828125,-3.1459810733795166,-9.009381294250488,-1.6687586307525635
1765792829152560400,9.927560302734374,-3.0142998695373535,-8.913613319396973,-1.745373010635376
1765792829162600700,9.9376005859375,-2.7964274883270264,-8.918401718139648,-1.8052281141281128
1765792829172549600,9.947549560546875,-2.655169725418091,-9.117119789123535,-1.8555063009262085
1765792829182589700,9.957589599609374,-2.628833532333374,-9.284713745117188,-1.86508309841156
1765792829192569000,9.967569091796875,-2.63362193107605,-9.287108421325684,-1.8411411046981812
1765792829202578700,9.97757861328125,-2.6408045291900635,-9.263166427612305,-1.9321208000183105
1765792829222598400,9.997598388671875,-2.7772738933563232,-9.248801231384277,-1.98958158493042
1765792829232577500,10.00757763671875,-2.9041666984558105,-9.375694274902344,-1.9321208000183105
1765792829242617900,10.017617919921875,-3.0406360626220703,-9.363722801208496,-1.9057846069335938
1765792829252597200,10.02759716796875,-3.1483752727508545,-9.198522567749023,-1.8387469053268433
1765792829262576400,10.037576416015625,-3.205836057662964,-9.155426979064941,-1.8148049116134644
1765792829272586200,10.047586181640625,-3.308786630630493,-9.090784072875977,-1.778891921043396
1765792829282565400,10.0575654296875,-3.3423056602478027,-9.153033256530762,-1.7166426181793213
1765792829292544500,10.06754443359375,-3.375824451446533,-9.255983352661133,-1.7573440074920654
1765792829302554400,10.077554443359375,-3.332728862762451,-9.138668060302734,-1.7693150043487549
1765792829312533800,10.08753369140625,-3.3710360527038574,-9.081207275390625,-1.7621324062347412
1765792829372470300,10.14747021484375,-3.3662476539611816,-9.02135181427002,-1.802833914756775
1765792829382449400,10.157449462890625,-3.1938650608062744,-9.133879661560059,-1.8100165128707886
1765792829392459300,10.167459228515625,-3.2297780513763428,-9.045293807983398,-1.778891921043396
1765792829402468900,10.17746875,-3.2968156337738037,-8.939949035644531,-1.7501614093780518
1765792829412478700,10.187478759765625,-3.488351821899414,-9.126696586608887,-1.8531121015548706
1765792829442508000,10.217508056640625,-3.3949780464172363,-9.08838939666748,-1.867477297782898
1765792829452487200,10.227487060546874,-3.335123062133789,-9.011775016784668,-1.8267759084701538
1765792829462497000,10.2374970703125,-3.4787750244140625,-9.129091262817383,-1.800439715385437
1765792829472476200,10.24747607421875,-3.5913026332855225,-9.186552047729492,-1.7501614093780518
1765792829482486000,10.257486083984375,-3.421314239501953,-9.11233139038086,-1.8291701078414917
1765792829492434700,10.2674345703125,-3.600879430770874,-9.169792175292969,-1.800439715385437
1765792829502505500,10.27750537109375,-3.8091750144958496,-9.279925346374512,-1.742978811264038
1765792829512484900,10.28748486328125,-3.732560396194458,-9.20091724395752,-1.6160861253738403
1765792829522494500,10.297494384765624,-3.5745432376861572,-9.160215377807617,-1.7357962131500244
1765792829542514200,10.31751416015625,-3.134010076522827,-8.916007041931152,-1.745373010635376
1765792829562533600,10.33753369140625,-2.736572504043579,-8.5903959274292,-1.8914192914962769
1765792829572512800,10.3475126953125,-2.4803929328918457,-8.595184326171875,-1.8698714971542358
1765792829582522600,10.357522705078125,-2.5067291259765625,-8.791508674621582,-1.845929503440857
1765792829592502000,10.367501953125,-2.4684219360351562,-9.3828763961792,-2.0039467811584473
1765792829602511600,10.37751171875,-2.58813214302063,-9.962273597717285,-2.0446481704711914
1765792829612521500,10.387521484375,-2.5043349266052246,-9.6989107131958,-1.9632453918457031
1765792829622500600,10.39750048828125,-2.3295583724975586,-9.5408935546875,-2.030282974243164
1765792829652469000,10.427468994140625,-2.2816741466522217,-9.404424667358398,-2.1068975925445557
1765792829662509300,10.43750927734375,-2.3582887649536133,-9.210494041442871,-1.9823989868164062
1765792829672488400,10.447488525390625,-2.274491548538208,-9.162610054016113,-1.9584569931030273
1765792829682498300,10.457498291015625,-2.4660277366638184,-9.30386734008789,-1.9776105880737305
1765792829692538600,10.46753857421875,-2.741360902786255,-9.545681953430176,-1.8938134908676147
1765792829702548200,10.47754833984375,-2.918531894683838,-9.44991397857666,-1.8986018896102905
1765792829712527600,10.487527587890625,-3.07415509223938,-9.260771751403809,-1.8195933103561401
1765792829722537200,10.497537109375,-3.1890766620635986,-9.284713745117188,-1.824381709098816
1765792829732547000,10.507547119140625,-3.2297780513763428,-9.241618156433105,-1.8339585065841675
1765792829742557000,10.517556884765625,-3.1675288677215576,-9.210494041442871,-1.845929503440857
1765792829752536000,10.5275361328125,-3.045424461364746,-9.162610054016113,-1.9345149993896484
1765792829762546000,10.5375458984375,-3.00711727142334,-9.114726066589355,-1.7717092037200928
1765792829772555500,10.547555419921874,-2.8778305053710938,-9.167398452758789,-1.8195933103561401
1765792829782535000,10.557534912109375,-2.8395233154296875,-9.105149269104004,-1.8052281141281128
1765792829792544500,10.56754443359375,-2.7126305103302,-9.150638580322266,-1.8171991109848022
1765792829802524000,10.57752392578125,-2.604891538619995,-9.196128845214844,-1.843535304069519
1765792829812533800,10.58753369140625,-2.58813214302063,-9.32302188873291,-1.7980455160140991
1765792829822543400,10.59754345703125,-2.6192567348480225,-9.387664794921875,-1.800439715385437
1765792829832522800,10.607522705078125,-2.652775526046753,-9.38048267364502,-1.8148049116134644
1765792829852542200,10.627542236328125,-2.7078421115875244,-9.495404243469238,-1.7932571172714233
1765792829862552000,10.637552001953125,-2.6599581241607666,-9.552865028381348,-1.8411411046981812
1765792829872561700,10.647561767578125,-2.5953147411346436,-9.591172218322754,-1.8770540952682495
1765792829882571500,10.657571533203125,-2.360682964324951,-9.442731857299805,-1.946485996246338
1765792829892550700,10.667550537109374,-2.3918075561523438,-9.229647636413574,-1.8962076902389526
1765792829902560500,10.677560546875,-2.432508945465088,-9.155426979064941,-1.9728221893310547
1765792829912570400,10.6875703125,-2.434903144836426,-9.332598686218262,-1.9273324012756348
1765792829922580000,10.697580078125,-2.4013843536376953,-9.337387084960938,-1.886630892753601
1765792829932589800,10.70758984375,-2.2864625453948975,-9.409213066101074,-1.9297266006469727
1765792829942630100,10.717630126953125,-2.1475989818573,-9.610325813293457,-1.8938134908676147
1765792829962519000,10.73751904296875,-2.0183119773864746,-9.50737476348877,-1.8602946996688843
1765792829972529000,10.74752880859375,-2.0039467811584473,-9.47146224975586,-1.886630892753601
1765792829982538800,10.757538818359375,-1.9608511924743652,-9.373299598693848,-1.8602946996688843
1765792829992518000,10.767517822265624,-1.8148049116134644,-9.105149269104004,-1.7932571172714233
1765792830002527700,10.77752783203125,-1.7980455160140991,-9.097966194152832,-1.886630892753601
1765792830012537300,10.787537353515624,-1.8076223134994507,-9.050082206726074,-1.8052281141281128
1765792830022547200,10.797547119140624,-1.920149803161621,-9.306262016296387,-1.764526605606079
1765792830032557000,10.80755712890625,-1.9488801956176758,-9.478644371032715,-1.9081788063049316
1765792830042566700,10.817566650390624,-1.8555063009262085,-9.53849983215332,-1.8148049116134644
1765792830052576500,10.827576416015624,-1.8052281141281128,-9.476250648498535,-1.7764976024627686
1765792830062555600,10.8375556640625,-1.8555063009262085,-9.41639518737793,-1.7860745191574097
1765792830072565500,10.8475654296875,-1.941697597503662,-9.363722801208496,-1.7357962131500244
1765792830082575400,10.857575439453125,-1.9345149993896484,-9.418789863586426,-1.7549498081207275
1765792830092585000,10.8675849609375,-2.078166961669922,-9.53849983215332,-1.8267759084701538
1765792830102594800,10.8775947265625,-2.054224967956543,-9.583989143371582,-1.8363527059555054
1765792830112574000,10.887573974609374,-2.0398597717285156,-9.619902610778809,-1.766920804977417
1765792830122553300,10.89755322265625,-1.9632453918457031,-9.425971984863281,-1.766920804977417
1765792830132532500,10.907532470703124,-1.946485996246338,-9.294290542602539,-1.6950948238372803
1765792830142542300,10.917542236328124,-1.98958158493042,-9.334992408752441,-1.766920804977417
1765792830162561800,10.937561767578124,-2.051830768585205,-9.368511199951172,-1.8531121015548706
1765792830202539800,10.977539794921874,-2.1739351749420166,-9.222464561462402,-1.8555063009262085
1765792830212519200,10.987519287109375,-2.250549554824829,-9.313444137573242,-1.9129672050476074
1765792830222528800,10.99752880859375,-2.3056161403656006,-9.313444137573242,-1.8171991109848022
1765792830232508200,11.007508056640624,-2.3726539611816406,-9.136273384094238,-1.8722656965255737
1765792830242517800,11.017517822265624,-2.4420857429504395,-9.172186851501465,-1.8387469053268433
1765792830252527600,11.027527587890624,-2.5282769203186035,-9.279925346374512,-1.9105730056762695
1765792830262537500,11.037537353515624,-2.5091233253479004,-9.368511199951172,-2.013523578643799
1765792830272516600,11.0475166015625,-2.52109432220459,-9.301473617553711,-1.9393033981323242
1765792830282526500,11.0575263671875,-2.5306711196899414,-9.308655738830566,-1.9991583824157715
1765792830292536000,11.0675361328125,-2.5306711196899414,-9.308655738830566,-1.9991583824157715
1765792830302546000,11.0775458984375,-2.6431987285614014,-9.435548782348633,-2.03507137298584
1765792830312525300,11.087525390625,-2.7269957065582275,-9.370905876159668,-2.054224967956543
1765792830322535000,11.097534912109374,-2.782062292098999,-9.232041358947754,-1.9632453918457031
1765792830332544800,11.107544677734374,-2.853888511657715,-9.344569206237793,-1.9273324012756348
1765792830342554600,11.1175546875,-2.8826189041137695,-9.425971984863281,-1.987187385559082
1765792830352564200,11.127564208984374,-3.0142998695373535,-9.409213066101074,-1.9776105880737305
1765792830362574000,11.137573974609374,-3.1316158771514893,-9.27034854888916,-1.9536685943603516
1765792830382563000,11.15756298828125,-3.184288263320923,-9.385271072387695,-1.8962076902389526
1765792830392542200,11.167542236328124,-3.021482467651367,-8.999804496765137,-1.922544002532959
1765792830402552000,11.177552001953124,-2.832340717315674,-8.774748802185059,-2.0661959648132324
1765792830412562000,11.18756201171875,-3.0166940689086914,-8.975862503051758,-2.0254945755004883
1765792830422571500,11.197571533203124,-3.3231520652770996,-9.528923034667969,-2.0183119773864746
1765792830432551000,11.207551025390625,-3.663128614425659,-9.651026725769043,-1.9632453918457031
1765792830442530000,11.217530029296874,-3.7708675861358643,-9.344569206237793,-1.941697597503662
1765792830452509400,11.227509521484375,-3.663128614425659,-9.174580574035645,-1.9536685943603516
1765792830462580200,11.237580322265625,-3.5386300086975098,-9.097966194152832,-1.9967641830444336
1765792830492578800,11.267578857421874,-3.2369606494903564,-9.02135181427002,-1.9991583824157715
1765792830502588700,11.277588623046874,-3.1651346683502197,-9.064447402954102,-2.011129379272461
1765792830512537300,11.287537353515624,-3.1938650608062744,-9.23443603515625,-1.965639591217041
1765792830522547200,11.297547119140624,-3.1196448802948,-9.205705642700195,-2.006340980529785
1765792830532526300,11.3075263671875,-2.9735984802246094,-9.186552047729492,-2.013523578643799
1765792830542505700,11.317505615234374,-2.8658595085144043,-9.129091262817383,-2.1380221843719482
1765792830552515300,11.327515380859374,-2.8395233154296875,-9.028534889221191,-2.0446481704711914
1765792830562525200,11.337525146484374,-2.7485435009002686,-9.009381294250488,-2.0829553604125977
1765792830572473900,11.347473876953124,-2.782062292098999,-8.925583839416504,-2.0805611610412598
1765792830602472700,11.37747265625,-2.9448680877685547,-9.320627212524414,-2.0853497982025146
1765792830612482600,11.387482666015625,-2.920926094055176,-9.198522567749023,-2.0805611610412598
1765792830622461700,11.397461669921874,-2.8778305053710938,-9.121908187866211,-2.0614075660705566
1765792830632471600,11.407471435546874,-2.873042106628418,-9.121908187866211,-2.0207061767578125
1765792830642481200,11.417481201171874,-2.853888511657715,-9.272743225097656,-2.078166961669922
1765792830652491000,11.427490966796874,-2.9041666984558105,-9.287108421325684,-2.142810583114624
1765792830662500900,11.4375009765625,-2.87064790725708,-9.258378028869629,-2.1164743900299072
1765792830672480000,11.44747998046875,-2.7964274883270264,-9.279925346374512,-2.1356279850006104
1765792830682489900,11.45748974609375,-2.8419175148010254,-9.23682975769043,-2.1284453868865967
1765792830692499500,11.46749951171875,-2.80361008644104,-9.241618156433105,-2.073378562927246
1765792830702509300,11.47750927734375,-2.760514497756958,-9.260771751403809,-2.0590133666992188
1765792830712488700,11.48748876953125,-2.765302896499634,-9.224859237670898,-2.10210919380188
1765792830722467800,11.4974677734375,-2.7916390895843506,-9.150638580322266,-2.0590133666992188
1765792830732447000,11.507447021484374,-2.8227639198303223,-9.141061782836914,-1.9584569931030273
1765792830742487300,11.5174873046875,-2.832340717315674,-9.050082206726074,-1.9177556037902832
1765792830752436000,11.52743603515625,-3.0406360626220703,-9.093177795410156,-1.9847931861877441
1765792830762445800,11.53744580078125,-3.222595453262329,-8.983044624328613,-1.8579005002975464
1765792830772425200,11.54742529296875,-3.4117374420166016,-8.923190116882324,-1.7764976024627686
1765792830782434800,11.557434814453124,-3.4787750244140625,-8.995016098022461,-1.7836803197860718
1765792830802423800,11.577423828125,-3.3662476539611816,-9.172186851501465,-1.7908629179000854
1765792830812433700,11.58743359375,-3.251325845718384,-9.222464561462402,-1.9393033981323242
1765792830822443500,11.597443603515625,-3.315969467163086,-9.14585018157959,-1.9153614044189453
1765792830832392200,11.60739208984375,-3.3255462646484375,-9.105149269104004,-1.8842366933822632
1765792830842432500,11.6174326171875,-3.3303346633911133,-9.148244857788086,-1.9704279899597168
1765792830852442000,11.627442138671874,-3.335123062133789,-9.23682975769043,-2.011129379272461
1765792830862421500,11.63742138671875,-3.3423056602478027,-9.165003776550293,-2.0207061767578125
1765792830872431000,11.64743115234375,-3.2848446369171143,-9.10993766784668,-1.9488801956176758
1765792830882410500,11.657410400390624,-3.361459255218506,-9.20091724395752,-1.9177556037902832
1765792830902430000,11.677429931640624,-3.1723172664642334,-9.095572471618652,-1.941697597503662
1765792830912378600,11.687378662109374,-3.07415509223938,-9.069235801696777,-1.9488801956176758
1765792830922388500,11.697388427734374,-3.0095114707946777,-9.124302864074707,-1.8770540952682495
1765792830932367600,11.70736767578125,-3.0095114707946777,-9.124302864074707,-1.8770540952682495
1765792830942347000,11.717346923828124,-2.935291290283203,-9.042900085449219,-1.9632453918457031
1765792830952356900,11.72735693359375,-2.849100112915039,-8.944737434387207,-1.9369091987609863
1765792830962366500,11.737366455078124,-2.9472622871398926,-8.949525833129883,-1.9536685943603516
1765792830972345900,11.747345947265625,-2.9879636764526367,-9.074024200439453,-1.9273324012756348
1765792830982325000,11.757324951171874,-3.0358476638793945,-9.097966194152832,-1.9105730056762695
1765792830992334800,11.7673349609375,-2.9951462745666504,-8.992621421813965,-1.9752163887023926
1765792831012323800,11.78732373046875,-2.82515811920166,-9.346963882446289,-2.0039467811584473
1765792831032312800,11.807312744140624,-2.8347349166870117,-9.313444137573242,-1.9632453918457031
1765792831042322700,11.81732275390625,-2.8203697204589844,-9.272743225097656,-1.9943699836730957
1765792831052332300,11.827332275390624,-2.7916390895843506,-9.222464561462402,-1.968033790588379
1765792831062342100,11.837342041015624,-2.8227639198303223,-9.251194953918457,-1.9776105880737305
1765792831072351700,11.847351806640624,-2.8347349166870117,-9.334992408752441,-1.9632453918457031
1765792831082361600,11.857361572265624,-2.7437551021575928,-9.279925346374512,-1.9297266006469727
1765792831092341000,11.867341064453125,-2.6671407222747803,-9.20091724395752,-1.9752163887023926
1765792831102320000,11.877320068359374,-2.604891538619995,-9.069235801696777,-1.9823989868164062
1765792831112299300,11.88729931640625,-2.5929205417633057,-9.107542991638184,-1.9584569931030273
1765792831122309000,11.89730908203125,-2.6599581241607666,-9.229647636413574,-2.0638017654418945
1765792831132288500,11.90728857421875,-2.7485435009002686,-9.172186851501465,-2.0231003761291504
1765792831142328600,11.91732861328125,-2.96162748336792,-9.157821655273438,-1.9752163887023926
1765792831152338400,11.92733837890625,-3.0765492916107178,-9.258378028869629,-1.9752163887023926
1765792831162348300,11.937348388671875,-3.177105665206909,-9.17697525024414,-1.8722656965255737
1765792831172297000,11.947296875,-3.220201253890991,-9.224859237670898,-1.8986018896102905
1765792831182306800,11.957306884765625,-3.071760892868042,-9.306262016296387,-1.9273324012756348
1765792831192286000,11.967285888671874,-2.9903578758239746,-9.162610054016113,-1.920149803161621
1765792831202326300,11.977326171875,-2.9472622871398926,-9.167398452758789,-1.8842366933822632
1765792831222315300,11.997315185546874,-3.00711727142334,-9.150638580322266,-1.9584569931030273
1765792831232294400,12.00729443359375,-2.956839084625244,-9.136273384094238,-1.8602946996688843
1765792831242334700,12.017334716796874,-3.0406360626220703,-9.184157371520996,-1.9393033981323242
1765792831252344600,12.027344482421874,-2.9975404739379883,-9.227252960205078,-1.9536685943603516
1765792831262354200,12.037354248046874,-3.0190882682800293,-9.227252960205078,-1.9177556037902832
1765792831272333600,12.04733349609375,-2.9903578758239746,-9.14345645904541,-1.867477297782898
1765792831282343400,12.057343505859375,-2.9065608978271484,-9.083600997924805,-1.9560627937316895
1765792831292322600,12.067322509765624,-2.8802247047424316,-9.14585018157959,-1.965639591217041
1765792831302332400,12.07733251953125,-2.9759926795959473,-9.258378028869629,-1.965639591217041
1765792831312311600,12.0873115234375,-3.0550012588500977,-9.220070838928223,-1.9345149993896484
1765792831322351900,12.097351806640624,-3.0885202884674072,-9.217676162719727,-2.006340980529785
1765792831332331000,12.1073310546875,-3.021482467651367,-9.251194953918457,-1.9249382019042969
1765792831342340900,12.1173408203125,-2.956839084625244,-9.105149269104004,-1.9536685943603516
1765792831352320000,12.127320068359374,-2.985569477081299,-9.014169692993164,-1.9512743949890137
1765792831362329900,12.137329833984374,-2.9688100814819336,-9.078812599182129,-1.9536685943603516
1765792831372339700,12.147339599609374,-2.9472622871398926,-9.20091724395752,-1.9560627937316895
1765792831382349300,12.157349365234374,-2.9257144927978516,-9.169792175292969,-1.9800047874450684
1765792831392328700,12.16732861328125,-2.9328970909118652,-9.10993766784668,-2.0159177780151367
1765792831402369000,12.177369140625,-2.9975404739379883,-9.162610054016113,-1.900996208190918
1765792831412378600,12.187378662109374,-3.1268274784088135,-9.184157371520996,-1.8770540952682495
1765792831432398300,12.2073984375,-3.07415509223938,-9.181763648986816,-1.9488801956176758
1765792831452417800,12.227417724609374,-2.9975404739379883,-9.090784072875977,-1.9800047874450684
1765792831462427600,12.237427734375,-3.268085241317749,-9.198522567749023,-1.8507179021835327
1765792831472406800,12.24740673828125,-3.181894063949585,-9.026140213012695,-1.8698714971542358
1765792831482416600,12.257416748046875,-3.2585084438323975,-8.942343711853027,-1.8842366933822632
1765792831492395800,12.267395751953124,-3.2130186557769775,-9.064447402954102,-1.8100165128707886
1765792831502405600,12.277405517578124,-3.0573954582214355,-9.081207275390625,-1.800439715385437
1765792831512384800,12.287384765625,-3.0119056701660156,-9.057265281677246,-1.920149803161621
1765792831522394600,12.29739453125,-2.9975404739379883,-9.002198219299316,-1.922544002532959
1765792831542383600,12.317383544921874,-3.0621838569641113,-9.133879661560059,-1.946485996246338
1765792831552393500,12.3273935546875,-3.026270866394043,-9.150638580322266,-1.9991583824157715
1765792831562403000,12.337403076171874,-3.0166940689086914,-9.191340446472168,-1.9512743949890137
1765792831572413000,12.347412841796874,-3.0861260890960693,-9.265560150146484,-1.9991583824157715
1765792831582422800,12.3574228515625,-3.0861260890960693,-9.265560150146484,-1.9991583824157715
1765792831592402000,12.36740185546875,-3.138798475265503,-9.296685218811035,-1.98958158493042
1765792831602411800,12.377411865234375,-3.177105665206909,-9.26795482635498,-1.9991583824157715
1765792831612421400,12.38742138671875,-3.0573954582214355,-9.220070838928223,-1.9632453918457031
1765792831622431200,12.39743115234375,-3.0597896575927734,-9.002198219299316,-1.9081788063049316
1765792831632410400,12.407410400390624,-3.0142998695373535,-9.090784072875977,-1.8794482946395874
1765792831672419000,12.447419189453125,-3.0573954582214355,-9.186552047729492,-1.8722656965255737
1765792831682428700,12.4574287109375,-3.0837318897247314,-9.222464561462402,-1.886630892753601
1765792831692408000,12.467407958984374,-3.1076738834381104,-9.17936897277832,-1.8698714971542358
1765792831702417700,12.477417724609374,-3.064578056335449,-9.107542991638184,-1.900996208190918
1765792831712397000,12.48739697265625,-3.050212860107422,-9.17697525024414,-1.9033904075622559
1765792831722407000,12.497406982421875,-3.071760892868042,-9.126696586608887,-1.8579005002975464
1765792831732355600,12.50735546875,-2.959233283996582,-9.107542991638184,-1.9273324012756348
1765792831752314000,12.527314208984375,-3.071760892868042,-9.059659004211426,-1.8698714971542358
1765792831762323700,12.53732373046875,-3.0813376903533936,-9.090784072875977,-1.98958158493042
1765792831772303000,12.54730322265625,-3.0382418632507324,-9.050082206726074,-1.9752163887023926
1765792831782312700,12.557312744140624,-3.1076738834381104,-9.17936897277832,-1.9081788063049316
1765792831792292000,12.5672919921875,-3.1220390796661377,-9.277531623840332,-2.0015525817871094
1765792831802301700,12.5773017578125,-3.095702886581421,-9.251194953918457,-1.920149803161621
1765792831812281000,12.587281005859374,-3.0837318897247314,-9.229647636413574,-1.9393033981323242
1765792831822260200,12.59726025390625,-3.045424461364746,-9.255983352661133,-1.9177556037902832
1765792831832239600,12.607239501953124,-3.093308687210083,-9.162610054016113,-1.922544002532959
1765792831842249200,12.617249267578124,-3.0573954582214355,-9.102754592895508,-1.8626888990402222
1765792831862207700,12.637207763671874,-2.9903578758239746,-9.100360870361328,-1.9488801956176758
1765792831872187100,12.647187255859375,-2.9927520751953125,-9.184157371520996,-1.9776105880737305
1765792831882166300,12.657166259765624,-3.004723072052002,-9.08838939666748,-1.946485996246338
1765792831892145700,12.667145751953125,-2.9951462745666504,-9.004592895507812,-1.9057846069335938
1765792831902155300,12.6771552734375,-3.07415509223938,-9.057265281677246,-1.9488801956176758
1765792831912134700,12.687134765625,-3.0837318897247314,-9.0859956741333,-2.0231003761291504
1765792831922144300,12.697144287109374,-3.134010076522827,-9.148244857788086,-2.011129379272461
1765792831932123600,12.70712353515625,-3.1890766620635986,-9.121908187866211,-1.8579005002975464
1765792831942133200,12.71713330078125,-3.1459810733795166,-9.174580574035645,-1.9847931861877441
1765792831952112600,12.727112548828124,-3.066972494125366,-9.318233489990234,-1.922544002532959
1765792831982080800,12.757080810546874,-2.693476915359497,-9.107542991638184,-2.030282974243164
1765792832002069800,12.77706982421875,-2.8850131034851074,-9.229647636413574,-1.9488801956176758
1765792832012049200,12.787049072265624,-2.9017724990844727,-9.148244857788086,-1.946485996246338
1765792832022059000,12.79705908203125,-2.999934673309326,-9.10993766784668,-2.030282974243164
1765792832032068600,12.807068603515624,-3.0573954582214355,-9.186552047729492,-1.9488801956176758
1765792832042048000,12.817048095703125,-3.1268274784088135,-9.167398452758789,-1.9608511924743652
1765792832052088000,12.827088134765624,-3.1890766620635986,-9.258378028869629,-1.9249382019042969
1765792832092096800,12.8670966796875,-3.026270866394043,-9.059659004211426,-1.920149803161621
1765792832102106600,12.877106689453125,-3.047818660736084,-9.186552047729492,-1.8507179021835327
1765792832112116200,12.8871162109375,-3.026270866394043,-9.141061782836914,-1.8962076902389526
1765792832122126000,12.8971259765625,-3.047818660736084,-9.064447402954102,-1.8770540952682495
1765792832132105200,12.907105224609374,-2.9688100814819336,-9.01895809173584,-1.920149803161621
1765792832142084600,12.917084716796875,-3.0358476638793945,-9.14345645904541,-1.8938134908676147
1765792832172052700,12.947052734375,-3.028665065765381,-9.148244857788086,-1.9608511924743652
1765792832182062600,12.9570625,-3.050212860107422,-9.196128845214844,-1.9273324012756348
1765792832192041700,12.967041748046874,-3.1076738834381104,-9.21288776397705,-1.946485996246338
1765792832202051600,12.977051513671874,-3.1076738834381104,-9.232041358947754,-1.9967641830444336
1765792832212000300,12.987000244140624,-3.1076738834381104,-9.232041358947754,-1.9967641830444336
1765792832221979600,12.996979736328125,-3.064578056335449,-9.126696586608887,-2.0374655723571777
1765792832231989200,13.0069892578125,-3.064578056335449,-9.074024200439453,-1.9919757843017578
1765792832242029600,13.017029541015624,-3.043030261993408,-9.17936897277832,-1.920149803161621
1765792832252039400,13.027039306640624,-3.043030261993408,-9.066842079162598,-1.9488801956176758
1765792832262049000,13.037049072265624,-3.028665065765381,-9.090784072875977,-1.9584569931030273
1765792832292017400,13.067017333984374,-3.0358476638793945,-9.241618156433105,-1.9033904075622559
1765792832302027300,13.07702734375,-3.0406360626220703,-9.119514465332031,-1.9632453918457031
1765792832312006400,13.08700634765625,-3.0406360626220703,-9.210494041442871,-1.9081788063049316
1765792832322046700,13.097046630859374,-3.0573954582214355,-9.184157371520996,-1.8986018896102905
1765792832331995400,13.106995361328124,-3.1004912853240967,-9.126696586608887,-1.9632453918457031
1765792832342035700,13.11703564453125,-3.098097085952759,-9.11233139038086,-1.968033790588379
1765792832351984400,13.126984375,-3.00711727142334,-9.05487060546875,-1.941697597503662
1765792832361994200,13.136994140625,-3.071760892868042,-9.148244857788086,-1.9249382019042969
1765792832371973400,13.146973388671874,-3.026270866394043,-9.23682975769043,-1.9321208000183105
1765792832391932000,13.166931884765624,-2.985569477081299,-9.081207275390625,-1.889025092124939
1765792832411982000,13.186982177734375,-3.00711727142334,-9.191340446472168,-1.9081788063049316
1765792832421961200,13.196961181640624,-3.0621838569641113,-9.210494041442871,-1.9369091987609863
1765792832431940600,13.206940673828125,-3.045424461364746,-9.097966194152832,-1.8339585065841675
1765792832441919700,13.216919677734374,-3.002328872680664,-9.05247688293457,-1.965639591217041
1765792832451899000,13.22689892578125,-3.090914487838745,-9.169792175292969,-1.9967641830444336
1765792832461908700,13.23690869140625,-3.064578056335449,-9.17697525024414,-1.9249382019042969
1765792832471857400,13.246857421875,-3.0406360626220703,-9.21288776397705,-1.9823989868164062
1765792832481897700,13.256897705078124,-3.002328872680664,-9.255983352661133,-1.9608511924743652
1765792832491877000,13.266877197265625,-2.9879636764526367,-9.23443603515625,-1.889025092124939
1765792832501886700,13.27688671875,-2.9951462745666504,-9.121908187866211,-1.9512743949890137
1765792832511866000,13.2868662109375,-3.002328872680664,-9.155426979064941,-1.9512743949890137
1765792832521875700,13.296875732421874,-3.026270866394043,-9.14345645904541,-1.944091796875
1765792832531824600,13.30682470703125,-2.9735984802246094,-9.100360870361328,-1.8770540952682495
1765792832541864700,13.31686474609375,-2.964021682739258,-9.153033256530762,-1.9249382019042969
1765792832551844000,13.326843994140624,-2.985569477081299,-9.17936897277832,-1.8770540952682495
1765792832561853700,13.336853759765624,-3.050212860107422,-9.193734169006348,-1.941697597503662
1765792832571863600,13.346863525390624,-3.0526070594787598,-9.186552047729492,-1.8602946996688843
1765792832591852500,13.3668525390625,-3.0765492916107178,-9.275136947631836,-1.8914192914962769
1765792832601862400,13.3768623046875,-3.0550012588500977,-9.21288776397705,-1.922544002532959
1765792832611872000,13.3868720703125,-2.980781078338623,-9.050082206726074,-1.946485996246338
1765792832621881900,13.3968818359375,-3.021482467651367,-9.069235801696777,-1.9393033981323242
1765792832631861200,13.406861328125,-3.071760892868042,-9.14585018157959,-1.9177556037902832
1765792832641870800,13.416870849609374,-3.0095114707946777,-9.126696586608887,-1.941697597503662
1765792832651880700,13.426880615234374,-2.9712042808532715,-9.107542991638184,-1.9153614044189453
1765792832661890600,13.436890625,-3.0190882682800293,-9.167398452758789,-1.86508309841156
1765792832671869700,13.44686962890625,-3.0095114707946777,-9.148244857788086,-1.8387469053268433
1765792832681848800,13.456848876953124,-3.0358476638793945,-9.186552047729492,-1.922544002532959
1765792832691858700,13.466858642578124,-3.0382418632507324,-9.215282440185547,-1.8171991109848022
1765792832711878100,13.486878173828124,-3.1196448802948,-9.332598686218262,-1.8770540952682495
1765792832731867100,13.5068671875,-3.1004912853240967,-9.105149269104004,-1.9321208000183105
1765792832741846500,13.516846435546874,-2.9448680877685547,-9.05487060546875,-1.867477297782898
1765792832751825700,13.52682568359375,-3.0095114707946777,-9.069235801696777,-1.8842366933822632
1765792832761835500,13.53683544921875,-3.002328872680664,-9.29189682006836,-1.8722656965255737
1765792832771845400,13.546845458984375,-2.985569477081299,-9.121908187866211,-1.8531121015548706
1765792832781824500,13.556824462890624,-2.9903578758239746,-9.035717010498047,-1.9249382019042969
1765792832791834400,13.56683447265625,-3.071760892868042,-9.07641887664795,-1.9153614044189453
1765792832801844000,13.576843994140624,-3.0885202884674072,-9.155426979064941,-1.9033904075622559
1765792832811823400,13.5868232421875,-3.0406360626220703,-9.14585018157959,-1.8818424940109253
1765792832821802500,13.596802490234374,-3.002328872680664,-9.131484985351562,-1.8986018896102905
1765792832831782000,13.606781982421875,-2.9903578758239746,-9.23443603515625,-1.9536685943603516
1765792832841822000,13.616822021484374,-2.9903578758239746,-9.23443603515625,-1.9536685943603516
1765792832851771000,13.62677099609375,-3.047818660736084,-9.138668060302734,-1.8794482946395874
1765792832861780500,13.636780517578124,-2.999934673309326,-9.083600997924805,-1.9776105880737305
1765792832871760000,13.646759765625,-2.9879636764526367,-8.990227699279785,-1.9369091987609863
1765792832881739000,13.656739013671874,-3.004723072052002,-9.169792175292969,-1.8626888990402222
1765792832891718400,13.666718505859375,-3.026270866394043,-9.186552047729492,-1.8794482946395874
1765792832901758700,13.6767587890625,-3.071760892868042,-9.2033109664917,-1.9560627937316895
1765792832911737900,13.68673779296875,-3.045424461364746,-9.136273384094238,-1.9033904075622559
1765792832931787800,13.706787841796874,-3.07415509223938,-9.210494041442871,-1.8818424940109253
1765792832941797600,13.716797607421874,-3.028665065765381,-9.23443603515625,-1.900996208190918
1765792832951807500,13.726807373046874,-3.0334534645080566,-9.148244857788086,-1.8746598958969116
1765792832961817000,13.736817138671874,-3.043030261993408,-9.126696586608887,-1.8267759084701538
1765792832971827000,13.746826904296874,-3.0382418632507324,-9.241618156433105,-1.8507179021835327
1765792832981836800,13.7568369140625,-3.0358476638793945,-9.20091724395752,-1.920149803161621
1765792832991816000,13.76681591796875,-3.043030261993408,-9.220070838928223,-1.86508309841156
1765792833001825800,13.77682568359375,-3.0382418632507324,-9.14345645904541,-1.8746598958969116
1765792833011805000,13.786804931640624,-3.0526070594787598,-9.160215377807617,-1.946485996246338
1765792833021814800,13.796814697265624,-3.0142998695373535,-9.131484985351562,-1.9297266006469727
1765792833051783000,13.826782958984374,-3.047818660736084,-9.11233139038086,-1.920149803161621
1765792833061762300,13.83676220703125,-3.004723072052002,-9.028534889221191,-1.889025092124939
1765792833071741400,13.846741455078124,-2.985569477081299,-9.153033256530762,-1.9369091987609863
1765792833081781800,13.85678173828125,-3.0382418632507324,-9.277531623840332,-1.86508309841156
1765792833091761200,13.86676123046875,-2.9951462745666504,-9.167398452758789,-1.8602946996688843
1765792833101770800,13.876770751953124,-2.985569477081299,-9.138668060302734,-1.9536685943603516
1765792833111750100,13.886750244140625,-2.9472622871398926,-9.117119789123535,-1.8842366933822632
1765792833121790500,13.89679052734375,-3.026270866394043,-9.14585018157959,-1.9823989868164062
1765792833131800000,13.906800048828124,-3.069366693496704,-9.184157371520996,-1.944091796875
1765792833161768400,13.9367685546875,-3.1483752727508545,-9.066842079162598,-1.8602946996688843
1765792833171778000,13.946778076171874,-3.1220390796661377,-9.29189682006836,-1.8579005002975464
1765792833191767000,13.96676708984375,-2.96162748336792,-9.011775016784668,-1.9752163887023926
1765792833211786800,13.986786865234375,-3.069366693496704,-9.294290542602539,-1.9345149993896484
1765792833221796400,13.99679638671875,-3.0861260890960693,-9.172186851501465,-1.845929503440857
1765792833231775700,14.006775634765624,-2.9496564865112305,-9.026140213012695,-1.8938134908676147
1765792833241785300,14.016785400390624,-2.9472622871398926,-9.095572471618652,-1.944091796875
1765792833251764700,14.0267646484375,-2.9712042808532715,-9.153033256530762,-1.922544002532959
1765792833261805000,14.03680517578125,-3.0166940689086914,-9.20091724395752,-2.0398597717285156
1765792833271814700,14.046814697265624,-3.026270866394043,-9.174580574035645,-1.8962076902389526
1765792833281824500,14.056824462890624,-2.9975404739379883,-9.181763648986816,-1.968033790588379
1765792833291803600,14.0668037109375,-3.0334534645080566,-9.23682975769043,-1.9033904075622559
1765792833301783000,14.076782958984374,-3.07415509223938,-9.222464561462402,-1.886630892753601
1765792833311793000,14.08679296875,-3.043030261993408,-9.153033256530762,-1.800439715385437
1765792833321802500,14.096802490234374,-3.050212860107422,-9.198522567749023,-1.8794482946395874
1765792833331782000,14.106781982421875,-3.1052796840667725,-9.215282440185547,-1.8962076902389526
1765792833341822000,14.116822021484374,-3.066972494125366,-9.150638580322266,-1.8698714971542358
1765792833351801300,14.12680126953125,-3.0837318897247314,-9.141061782836914,-1.8483237028121948
1765792833381830700,14.15683056640625,-3.093308687210083,-9.150638580322266,-1.8914192914962769
1765792833391840500,14.166840576171875,-2.978386878967285,-9.14585018157959,-1.965639591217041
1765792833401850000,14.17685009765625,-3.0119056701660156,-9.141061782836914,-1.8722656965255737
1765792833411829500,14.18682958984375,-2.9879636764526367,-9.248801231384277,-1.8938134908676147
1765792833421839000,14.196839111328124,-3.021482467651367,-9.227252960205078,-1.8986018896102905
1765792833431818500,14.206818603515625,-3.0190882682800293,-9.215282440185547,-1.843535304069519
1765792833441828000,14.216828125,-3.0621838569641113,-9.20091724395752,-1.9129672050476074
1765792833451838000,14.226837890625,-2.9520506858825684,-9.0859956741333,-1.886630892753601
1765792833461847800,14.236847900390625,-2.9879636764526367,-9.05247688293457,-1.8698714971542358
1765792833481836800,14.2568369140625,-3.045424461364746,-9.217676162719727,-1.889025092124939
1765792833491846400,14.266846435546874,-2.9879636764526367,-9.205705642700195,-1.9057846069335938
1765792833501825800,14.27682568359375,-2.9879636764526367,-9.205705642700195,-1.9057846069335938
1765792833511835400,14.28683544921875,-3.0142998695373535,-9.17697525024414,-1.8339585065841675
1765792833521845200,14.29684521484375,-3.0166940689086914,-9.124302864074707,-1.9177556037902832
1765792833531855000,14.306855224609375,-3.0382418632507324,-9.155426979064941,-1.900996208190918
1765792833541864700,14.31686474609375,-3.00711727142334,-9.258378028869629,-1.9177556037902832
1765792833551813600,14.326813720703125,-3.0621838569641113,-9.296685218811035,-1.8626888990402222
1765792833561823200,14.3368232421875,-3.0310592651367188,-9.227252960205078,-1.8962076902389526
1765792833591791600,14.36679150390625,-2.985569477081299,-9.172186851501465,-1.824381709098816
1765792833601832000,14.37683203125,-3.0142998695373535,-9.126696586608887,-1.9033904075622559
1765792833611841500,14.386841552734374,-3.0597896575927734,-9.193734169006348,-1.8507179021835327
1765792833621821000,14.396821044921875,-3.07415509223938,-9.232041358947754,-1.9105730056762695
1765792833631830500,14.40683056640625,-3.004723072052002,-9.157821655273438,-1.8794482946395874
1765792833641840400,14.41684033203125,-3.0406360626220703,-9.10993766784668,-1.900996208190918
1765792833651850200,14.426850341796875,-3.0190882682800293,-9.162610054016113,-1.920149803161621
1765792833661859800,14.43685986328125,-3.028665065765381,-9.205705642700195,-1.8483237028121948
1765792833681818400,14.456818359375,-3.045424461364746,-9.14345645904541,-1.8363527059555054
1765792833691828200,14.466828125,-2.964021682739258,-9.205705642700195,-1.8411411046981812
1765792833701837800,14.476837890625,-2.9927520751953125,-9.17936897277832,-1.8962076902389526
1765792833711817200,14.486817138671874,-2.9544448852539062,-9.093177795410156,-1.845929503440857
1765792833731806200,14.50680615234375,-2.956839084625244,-9.258378028869629,-1.9153614044189453
1765792833741816000,14.516816162109375,-2.9328970909118652,-9.244012832641602,-1.9345149993896484
1765792833751825700,14.52682568359375,-2.9544448852539062,-9.2033109664917,-1.9536685943603516
1765792833761835500,14.53683544921875,-3.026270866394043,-9.162610054016113,-1.9177556037902832
1765792842247759000,23.022759033203126,8.200140953063965,-1.0869675874710083,-3.49314022064209
1765792842257738200,23.03273828125,8.525752067565918,-1.4053963422775269,-3.7253777980804443
1765792842297077500,23.072077392578127,7.321468830108643,-2.051830768585205,-3.308786630630493
1765792842316835800,23.0918359375,7.8960771560668945,-2.6001031398773193,-3.9671921730041504
1765792842326876200,23.101876220703126,8.010998725891113,-2.5450363159179688,-3.8762125968933105
1765792842336855600,23.11185546875,8.44195556640625,-2.1978771686553955,-3.60566782951355
1765792842346865200,23.121865234375,8.44195556640625,-2.27209734916687,-3.134010076522827
1765792842356844500,23.131844482421876,8.554482460021973,-2.3056161403656006,-3.0119056701660156
1765792842376833500,23.15183349609375,9.23682975769043,-2.6192567348480225,-4.151545524597168
1765792842386843100,23.161843017578125,9.610325813293457,-2.3726539611816406,-4.469974517822266
1765792842396792000,23.1717919921875,9.30386734008789,-2.0374655723571777,-4.632780075073242
1765792842406801700,23.1818017578125,8.559270858764648,-4.345476150512695,-4.797980308532715
1765792842416811500,23.1918115234375,7.618350028991699,-3.993528366088867,-3.7421371936798096
1765792842426821400,23.2018212890625,7.422025203704834,-2.892195701599121,-3.397372245788574
