time,seconds_elapsed,z,y,x
1766401971777914400,-1.088085693359375,9.514557838439941,-0.7110779285430908,-1.216254472732544
1766401971797964500,-1.068035400390625,9.856928825378418,0.2944868206977844,-0.5889736413955688
1766401971807974100,-1.05802587890625,9.768342971801758,-0.28730419278144836,-1.0606313943862915
1766401971828024300,-1.0379755859375,9.696516990661621,-0.4165911078453064,-1.0821791887283325
1766401971838034000,-1.027966064453125,9.765948295593262,-0.29209262132644653,-0.9696516990661621
1766401971848043800,-1.017956298828125,9.742006301879883,-0.42616790533065796,-1.137245774269104
1766401971858084000,-1.007916015625,9.81143856048584,-0.4908113479614258,-1.0414776802062988
1766401971868124400,-0.99787548828125,9.8784761428833,-0.3998316824436188,-0.9744400978088379
1766401971878195200,-0.9878046875,9.832986831665039,-0.4572925269603729,-1.0295066833496094
1766401971888204800,-0.977795166015625,9.880870819091797,-0.5027823448181152,-1.0031704902648926
1766401971898214700,-0.967785400390625,9.897629737854004,-0.47644615173339844,-0.993593692779541
1766401971918234000,-0.947765869140625,9.911994934082031,-0.43335050344467163,-1.0462661981582642
1766401971928244000,-0.937756103515625,9.93593692779541,-0.4668693244457245,-0.9481038451194763
1766401971938253800,-0.92774609375,9.907206535339355,-0.3280056416988373,-0.9983820915222168
1766401971948263400,-0.917736572265625,9.909601211547852,-0.35434186458587646,-0.9217676520347595
1766401971958303700,-0.9076962890625,9.880870819091797,-0.4908113479614258,-1.1061211824417114
1766401971968344000,-0.897656005859375,9.837775230407715,-0.40222588181495667,-0.9145850539207458
1766401971978354000,-0.88764599609375,9.938331604003906,-0.22744916379451752,-0.9864110946655273
1766401971988363500,-0.877636474609375,9.852140426635742,-0.4189853072166443,-0.9169792532920837
1766401971998373400,-0.867626708984375,9.80904483795166,-0.608127236366272,-1.1994950771331787
1766401972038412500,-0.82758740234375,9.86650562286377,-0.31842881441116333,-1.0582371950149536
1766401972048422100,-0.817577880859375,9.979032516479492,-0.4381389021873474,-1.113303780555725
1766401972058432000,-0.807568115234375,9.945513725280762,-0.5267243981361389,-1.115697979927063
1766401972068441600,-0.797558349609375,9.828198432922363,-0.5482721924781799,-1.0103530883789062
1766401972078451500,-0.787548583984375,9.75397777557373,-0.507570743560791,-1.1061211824417114
1766401972088461300,-0.77753857421875,9.677363395690918,-0.31364041566848755,-1.1109095811843872
1766401972098501600,-0.767498291015625,9.84256362915039,-0.31603461503982544,-0.9409212470054626
1766401972128561400,-0.7374384765625,9.856928825378418,-0.31603461503982544,-1.1971008777618408
1766401972148580900,-0.717419189453125,9.93593692779541,-0.33279404044151306,-0.993593692779541
1766401972158621200,-0.70737890625,9.979032516479492,-0.45489832758903503,-1.1300631761550903
1766401972168600300,-0.697399658203125,10.0580415725708,-0.5841852426528931,-1.1827356815338135
1766401972178610200,-0.687389892578125,9.96945571899414,-0.6655880808830261,-1.0271124839782715
1766401972188620000,-0.6773798828125,9.892841339111328,-0.5530605912208557,-1.1013327836990356
1766401972198629600,-0.667370361328125,9.84256362915039,-0.40462008118629456,-1.0319008827209473
1766401972208609000,-0.657390869140625,9.830592155456543,-0.4836287498474121,-1.1228805780410767
1766401972228689400,-0.637310546875,9.797073364257812,-0.272938996553421,-1.048660397529602
1766401972238699300,-0.62730078125,9.78989028930664,-0.27054479718208313,-0.9624691009521484
1766401972248709000,-0.617290771484375,9.715670585632324,-0.19153612852096558,-1.036689281463623
1766401972258718700,-0.60728125,9.648633003234863,-0.3663128614425659,-1.0414776802062988
1766401972268728600,-0.597271484375,9.636661529541016,-0.40701428055763245,-1.115697979927063
1766401972278769000,-0.587231201171875,9.710882186889648,-0.6105214357376099,-1.237802267074585
1766401972288748000,-0.577251953125,9.785101890563965,-0.6224924325942993,-1.1228805780410767
1766401972298788400,-0.567211669921875,9.8784761428833,-0.6799532771110535,-1.0606313943862915
1766401972308798200,-0.557201904296875,9.86889934539795,-0.5506663918495178,-1.072602391242981
1766401972338827500,-0.52717236328125,9.832986831665039,-0.5434837937355042,-1.0103530883789062
1766401972348867800,-0.517132080078125,9.86889934539795,-0.3711012601852417,-1.0103530883789062
1766401972358877400,-0.50712255859375,9.916783332824707,-0.3902548849582672,-0.9265560507774353
1766401972368856800,-0.49714306640625,9.86650562286377,-0.4812345504760742,-1.0558429956436157
1766401972378836000,-0.4871640625,9.86889934539795,-0.43095630407333374,-1.1013327836990356
1766401972388876300,-0.477123779296875,9.890447616577148,-0.3687070608139038,-1.0773907899856567
1766401972398886100,-0.46711376953125,9.804255485534668,-0.49320554733276367,-1.05105459690094
1766401972408865300,-0.457134765625,9.837775230407715,-0.5147533416748047,-1.036689281463623
1766401972448904400,-0.417095458984375,10.041281700134277,-0.2825157940387726,-0.9744400978088379
1766401972458914000,-0.4070859375,9.971850395202637,-0.47165772318840027,-1.0821791887283325
1766401972468924000,-0.397076171875,9.919178009033203,-0.5267243981361389,-1.1516109704971313
1766401972488943400,-0.377056640625,9.919178009033203,-0.608127236366272,-1.1851298809051514
1766401972498922800,-0.3670771484375,9.888052940368652,-0.5889736413955688,-1.0845733880996704
1766401972508963000,-0.357036865234375,9.93354320526123,-0.4812345504760742,-1.0606313943862915
1766401972518972700,-0.34702734375,9.952696800231934,-0.586579442024231,-1.1300631761550903
1766401972569021400,-0.296978515625,9.643844604492188,-0.40940847992897034,-1.0223240852355957
1766401972579061800,-0.286938232421875,9.643844604492188,-0.2561795711517334,-1.0342950820922852
1766401972589071600,-0.276928466796875,9.696516990661621,-0.28969839215278625,-1.0893617868423462
1766401972599050800,-0.26694921875,9.651026725769043,-0.42377370595932007,-1.292868971824646
1766401972609060600,-0.256939453125,9.801861763000488,-0.6248866319656372,-1.1683704853057861
1766401972619039700,-0.246960205078125,9.840168952941895,-0.7158663272857666,-1.091755986213684
1766401972629080000,-0.236919921875,9.873687744140625,-0.7086837291717529,-1.1324573755264282
1766401972669088800,-0.1969111328125,9.986215591430664,-0.5722141861915588,-0.9983820915222168
1766401972679098400,-0.186901611328125,9.950302124023438,-0.3423708379268646,-0.9361328482627869
1766401972689108200,-0.176891845703125,9.95748519897461,-0.36152446269989014,-0.9289502501487732
1766401972699118000,-0.1668818359375,9.864110946655273,-0.5722141861915588,-1.048660397529602
1766401972709127700,-0.156872314453125,9.888052940368652,-0.43095630407333374,-0.9864110946655273
1766401972719107000,-0.146892822265625,9.825803756713867,-0.6200982332229614,-1.0271124839782715
1766401972729086200,-0.136913818359375,9.86889934539795,-0.5578489899635315,-1.05105459690094
1766401972739126500,-0.12687353515625,9.93593692779541,-0.5746083855628967,-1.173158884048462
1766401972779135000,-0.086864990234375,9.90241813659668,-0.5410895943641663,-1.1180921792984009
1766401972789175300,-0.07682470703125,9.888052940368652,-0.5961562395095825,-1.1492167711257935
1766401972799185200,-0.06681494140625,9.885659217834473,-0.730231523513794,-1.039083480834961
1766401972809133800,-0.0568662109375,9.847352027893066,-0.667982280254364,-1.0893617868423462
1766401972819174100,-0.046825927734375,9.86889934539795,-0.6440402865409851,-1.0079588890075684
1766401972829153300,-0.0368466796875,9.907206535339355,-0.6488286852836609,-1.0271124839782715
1766401972839193600,-0.026806396484375,9.837775230407715,-0.4884171485900879,-1.0414776802062988
1766401972849173000,-0.016826904296875,9.763554573059082,-0.3974374830722809,-0.9145850539207458
1766401972859182600,-0.0068173828125,9.696516990661621,-0.4118026793003082,-0.9624691009521484
1766401972899252200,0.033252197265625,9.959878921508789,-0.5841852426528931,-1.036689281463623
1766401972929281500,0.063281494140625,9.799467086791992,-0.5315127968788147,-0.9624691009521484
1766401972954336500,0.08833642578125,9.816226959228516,-0.6033388376235962,-0.9457096457481384
1766401972964346400,0.098346435546875,9.888052940368652,-0.5506663918495178,-1.048660397529602
1766401972984426800,0.1184267578125,9.981427192687988,-0.6200982332229614,-1.048660397529602
1766401972994436600,0.1284365234375,9.904812812805176,-0.6105214357376099,-1.1085153818130493
1766401973004446500,0.138446533203125,9.979032516479492,-0.7374141216278076,-1.1085153818130493
1766401973014486500,0.148486572265625,9.99339771270752,-0.7134721279144287,-1.0630255937576294
1766401973034567200,0.168567138671875,9.99339771270752,-0.5482721924781799,-0.9241618514060974
1766401973044546600,0.178546630859375,9.959878921508789,-0.45489832758903503,-0.871489405632019
1766401973054556200,0.18855615234375,9.739612579345703,-0.6344634294509888,-0.9097966551780701
1766401973064535600,0.19853564453125,9.785101890563965,-0.5674257874488831,-1.0319008827209473
1766401973074576000,0.208575927734375,9.746794700622559,-0.35434186458587646,-1.0342950820922852
1766401973084585500,0.21858544921875,9.679757118225098,-0.5363011956214905,-1.0007762908935547
1766401973104605000,0.23860498046875,9.81143856048584,-0.5770025849342346,-1.1085153818130493
1766401973114614800,0.24861474609375,9.804255485534668,-0.6847416758537292,-1.0558429956436157
1766401973124624600,0.258624755859375,9.885659217834473,-0.33758243918418884,-0.993593692779541
1766401973134634200,0.26863427734375,9.883264541625977,-0.4141969084739685,-0.9720458984375
1766401973144644000,0.27864404296875,9.804255485534668,-0.5889736413955688,-1.0247182846069336
1766401973154684400,0.288684326171875,9.77791976928711,-0.6919242739677429,-1.0965443849563599
1766401973164694300,0.2986943359375,9.861717224121094,-0.6847416758537292,-1.1276689767837524
1766401973184713700,0.318713623046875,9.765948295593262,-0.6607996821403503,-1.0462661981582642
1766401973194754000,0.328754150390625,9.792284965515137,-0.6584054827690125,-1.036689281463623
1766401973204763600,0.338763671875,9.775525093078613,-0.7661445140838623,-1.0558429956436157
1766401973214773500,0.3487734375,9.694122314453125,-0.6200982332229614,-1.036689281463623
1766401973224783400,0.358783447265625,9.679757118225098,-0.7757213711738586,-0.9840168952941895
1766401973234793000,0.36879296875,9.68694019317627,-0.7374141216278076,-1.1516109704971313
1766401973244802800,0.378802734375,9.564835548400879,-0.7422025203704834,-1.036689281463623
1766401973254812700,0.388812744140625,9.495404243469238,-0.6607996821403503,-1.0414776802062988
1766401973264822300,0.398822265625,9.411606788635254,-0.5817909836769104,-1.1827356815338135
1766401973274862600,0.408862548828125,9.17697525024414,-0.3878606855869293,-1.1994950771331787
1766401973294882000,0.428882080078125,8.671798706054688,-0.2585737705230713,-1.2761094570159912
1766401973304892000,0.438891845703125,8.343792915344238,-0.2322375625371933,-1.6831238269805908
1766401973314932200,0.44893212890625,7.95832633972168,1.9057846069335938,-4.534617900848389
1766401973324942000,0.458942138671875,7.532158374786377,-0.1412578970193863,-3.6511576175689697
1766401973334982100,0.468982177734375,7.003039836883545,0.11252748221158981,-2.008735179901123
1766401973344992000,0.478991943359375,7.101202011108398,0.5602431893348694,-3.5170822143554688
1766401973355001900,0.489001953125,7.362170219421387,0.8475474119186401,-3.4165258407592773
1766401973365011500,0.499011474609375,6.983886241912842,0.5817909836769104,-3.5458126068115234
1766401973375021300,0.509021240234375,6.938396453857422,0.19393034279346466,-3.598485231399536
1766401973405020200,0.539020263671875,6.7277069091796875,-0.2825157940387726,-3.823540210723877
1766401973415029800,0.54902978515625,6.615179061889648,-0.629675030708313,-3.799597978591919
1766401973425039600,0.55903955078125,6.600813865661621,-0.8930372595787048,-3.7612907886505127
1766401973435080000,0.569079833984375,6.260837554931641,-1.7884687185287476,-3.6391866207122803
1766401973445089800,0.57908984375,6.196194171905518,-2.7126305103302,-3.2824504375457764
1766401973455129900,0.5891298828125,5.992686748504639,-3.4093432426452637,-3.2537200450897217
1766401973465139700,0.5991396484375,5.91128396987915,-3.845088005065918,-3.098097085952759
1766401973475180000,0.609179931640625,6.196194171905518,-4.797980308532715,-2.715024709701538
1766401973515219000,0.649218994140625,6.742072105407715,-7.915230751037598,-1.455674648284912
1766401973525228800,0.659228759765625,6.452373504638672,-8.702922821044922,-1.601720929145813
1766401973535238700,0.66923876953125,6.452373504638672,-8.702922821044922,-1.601720929145813
1766401973545248300,0.679248291015625,6.210559368133545,-9.643844604492188,-1.316810965538025
1766401973555258000,0.689258056640625,6.14831018447876,-10.398017883300781,-0.9911994934082031
1766401973565268000,0.69926806640625,6.301538944244385,-10.536881446838379,-0.6488286852836609
1766401973575308300,0.709308349609375,6.5481414794921875,-10.536881446838379,-0.033518824726343155
1766401973585318000,0.71931787109375,6.641515731811523,-10.759542465209961,0.13407529890537262
1766401973605337600,0.739337646484375,6.4380083084106445,-11.010933876037598,0.5434837937355042
1766401973615347200,0.74934716796875,6.208165168762207,-10.986991882324219,0.49320554733276367
1766401973625357000,0.759357177734375,6.09324312210083,-11.010933876037598,0.4118026793003082
1766401973635366700,0.76936669921875,5.96874475479126,-10.78587818145752,0.3232172429561615
1766401973645346000,0.779345947265625,5.961562156677246,-10.54406452178955,0.3016694188117981
1766401973655386400,0.789386474609375,5.78678560256958,-10.213664054870605,0.5339069962501526
1766401973665335000,0.7993349609375,5.640739440917969,-9.849745750427246,0.5482721924781799
1766401973675375400,0.809375244140625,5.628767967224121,-9.495404243469238,0.4429273009300232
1766401973685385000,0.819385009765625,5.669469833374023,-9.911994934082031,0.3016694188117981
1766401973695425300,0.82942529296875,5.736507415771484,-10.098742485046387,0.28730419278144836
1766401973715445000,0.849445068359375,5.355829238891602,-10.055646896362305,0.3687070608139038
1766401973725454600,0.85945458984375,5.16429328918457,-9.679757118225098,0.42856210470199585
1766401973735495000,0.869494873046875,5.063736438751221,-9.876082420349121,0.4189853072166443
1766401973745474300,0.879474365234375,4.932055473327637,-9.86650562286377,0.26815059781074524
1766401973755514400,0.889514404296875,5.0900726318359375,-10.04846477508545,0.17477671802043915
1766401973765493800,0.89949365234375,5.070919036865234,-10.014945983886719,0.24899697303771973
1766401973775503600,0.909503662109375,5.16429328918457,-9.950302124023438,0.29209262132644653
1766401973785513200,0.91951318359375,5.65031623840332,-10.429142951965332,0.12449848651885986
1766401973795553500,0.929553466796875,5.0685248374938965,-9.859322547912598,-0.011971008032560349
1766401973815573000,0.949572998046875,5.032611846923828,-8.731653213500977,-0.4405331015586853
1766401973855612200,0.989612060546875,4.63517427444458,-9.275136947631836,-0.9289502501487732
1766401973905630500,1.03963037109375,3.9049429893493652,-9.339780807495117,-0.7972691655158997
1766401973925711000,1.059711181640625,3.8067808151245117,-9.464279174804688,-0.7733271718025208
1766401974005758700,1.1397587890625,3.0573954582214355,-9.083600997924805,-0.9744400978088379
1766401974015798800,1.149798828125,2.983175277709961,-8.971074104309082,-1.0462661981582642
1766401974025808600,1.15980859375,2.8586769104003906,-9.121908187866211,-1.0582371950149536
1766401974055838000,1.189837890625,2.2385785579681396,-9.617507934570312,-1.3766659498214722
1766401974065847800,1.199847900390625,2.231395959854126,-9.627084732055664,-1.216254472732544
1766401974115957500,1.24995751953125,1.3718775510787964,-9.921571731567383,-0.7038952708244324
1766401974145956400,1.279956298828125,0.9864110946655273,-9.797073364257812,-0.15801730751991272
1766401974155966200,1.28996630859375,1.0893617868423462,-9.864110946655273,-0.14844051003456116
1766401974165975800,1.299975830078125,1.2090718746185303,-10.022128105163574,0.023942016065120697
1766401974175985700,1.309985595703125,1.3479355573654175,-10.213664054870605,-0.19153612852096558
1766401974185995500,1.31999560546875,1.4101848602294922,-10.943896293640137,-0.15322890877723694
1766401974196005000,1.330005126953125,1.3024457693099976,-11.475408554077148,-0.4908113479614258
1766401974206015000,1.340014892578125,1.335964560508728,-11.762712478637695,-0.7661445140838623
1766401974216024800,1.35002490234375,1.3670891523361206,-11.925518989562988,-0.5530605912208557
1766401974226034400,1.360034423828125,1.3670891523361206,-11.925518989562988,-0.5530605912208557
1766401974236074800,1.37007470703125,1.3910311460494995,-12.014103889465332,-0.5650315880775452
1766401974266104000,1.40010400390625,1.8794482946395874,-12.169727325439453,-0.6153098344802856
1766401974276114000,1.410114013671875,1.8746598958969116,-12.416330337524414,-0.507570743560791
1766401974286062600,1.4200625,1.944091796875,-12.018892288208008,-0.3974374830722809
1766401974296072400,1.430072509765625,2.097320795059204,-11.501745223999023,-0.2849099934101105
1766401974306082000,1.44008203125,2.5737667083740234,-11.27190113067627,-0.40462008118629456
1766401974316122400,1.450122314453125,3.442862033843994,-10.338163375854492,-0.6272808313369751
1766401974326101800,1.460101806640625,4.553771495819092,-9.50737476348877,-0.8427590131759644
1766401974336141800,1.470141845703125,5.872976779937744,-9.17697525024414,-0.8906430602073669
1766401974356192000,1.49019189453125,6.007051944732666,-9.141061782836914,-0.08379705995321274
1766401974386221300,1.52022119140625,1.8483237028121948,-13.960590362548828,2.03507137298584
1766401974396261600,1.53026171875,0.43095630407333374,-14.085088729858398,2.631227731704712
1766401974406240800,1.54024072265625,-0.35434186458587646,-14.595053672790527,3.4739866256713867
1766401974416220200,1.55022021484375,-0.8738836050033569,-14.501679420471191,4.050989151000977
1766401974426229800,1.560229736328125,-1.3072341680526733,-13.998897552490234,4.359841346740723
1766401974436239600,1.570239501953125,-1.4628572463989258,-13.275848388671875,4.513070106506348
1766401974476278500,1.610278564453125,0.26815059781074524,-10.663774490356445,4.73573112487793
1766401974496298200,1.63029833984375,0.7709329724311829,-9.725247383117676,5.078101634979248
1766401974506277400,1.64027734375,1.1228805780410767,-9.342175483703613,4.812345504760742
1766401974516317700,1.650317626953125,0.7996633648872375,-8.394071578979492,4.4939165115356445
1766401974526296800,1.660296875,0.6847416758537292,-7.759607791900635,4.350264549255371
1766401974536367900,1.670367919921875,0.7086837291717529,-7.817068576812744,4.335899353027344
1766401974566397000,1.70039697265625,0.6200982332229614,-7.218518257141113,4.005499362945557
1766401974596487400,1.7304873046875,0.9600749015808105,-5.643133640289307,3.2752678394317627
1766401974606497000,1.7404970703125,1.1420341730117798,-4.809951305389404,3.5673606395721436
1766401974616507000,1.7505068359375,1.6950948238372803,-3.7277719974517822,3.7205893993377686
1766401974626516700,1.760516845703125,2.0254945755004883,-3.7158010005950928,3.35667085647583
1766401974636587500,1.77058740234375,1.98958158493042,-3.227383852005005,3.047818660736084
1766401974646597000,1.78059716796875,1.6328455209732056,-2.736572504043579,3.1435868740081787
1766401974656607000,1.79060693359375,1.292868971824646,-3.5194764137268066,2.832340717315674
1766401974686636300,1.82063623046875,1.8914192914962769,-0.8810662031173706,2.540247917175293
1766401974696646100,1.830646240234375,2.3487119674682617,-1.2018892765045166,2.6431987285614014
1766401974706655700,1.84065576171875,2.3511061668395996,-0.950498104095459,2.2649147510528564
1766401974716696000,1.850696044921875,2.5258827209472656,-1.599326729774475,1.9704279899597168
1766401974726706000,1.860705810546875,1.86508309841156,-2.166752576828003,1.965639591217041
1766401974736715800,1.8707158203125,1.3072341680526733,-4.364629745483398,2.341529369354248
1766401974746725400,1.880725341796875,1.4293384552001953,-7.026981830596924,2.779668092727661
1766401974756765700,1.890765625,2.118868589401245,-7.589619159698486,2.7509377002716064
1766401974766775600,1.900775634765625,2.343923568725586,-6.268020153045654,2.695871114730835
1766401974776815900,1.91081591796875,1.9608511924743652,-4.683058738708496,3.1747114658355713
1766401974786825500,1.920825439453125,1.316810965538025,-3.9432501792907715,3.648763418197632
1766401974796865800,1.93086572265625,1.3311761617660522,-3.6296098232269287,4.268861770629883
1766401974806875600,1.940875732421875,1.0678139925003052,-2.940079689025879,4.616020679473877
1766401974816885200,1.95088525390625,-0.15083470940589905,-3.3255462646484375,5.355829238891602
1766401974826895000,1.96089501953125,-0.8667010068893433,-5.884947776794434,5.583278179168701
1766401974836935400,1.970935302734375,-0.8762778043746948,-8.022970199584961,5.521028995513916
1766401974846945000,1.980945068359375,-0.17238251864910126,-8.192957878112793,5.971138954162598
1766401974856955000,1.990954833984375,-0.12449848651885986,-7.5201873779296875,6.543353080749512
1766401974866964700,2.00096484375,-0.768538773059845,-7.295132637023926,7.340622425079346
1766401974896994000,2.030994140625,-2.408566951751709,-5.657498836517334,7.187393665313721
1766401974907003600,2.041003662109375,-1.6065093278884888,-5.367800235748291,6.885724067687988
1766401974917044000,2.0510439453125,-0.49799394607543945,-5.384559631347656,5.9304375648498535
1766401974927053800,2.0610537109375,0.06703764945268631,-5.377377033233643,4.991910457611084
1766401974937094100,2.07109423828125,-0.3232172429561615,-5.513846397399902,4.426878929138184
1766401974947073300,2.0810732421875,-0.3232172429561615,-5.513846397399902,4.426878929138184
1766401974957113600,2.091113525390625,-0.22505496442317963,-5.702988624572754,3.3949780464172363
1766401974967123500,2.10112353515625,-0.5027823448181152,-5.825092792510986,2.5019407272338867
1766401974987173400,2.12117333984375,-1.2713210582733154,-4.654327869415283,1.4748282432556152
1766401974997183200,2.131183349609375,-0.1412578970193863,-3.3494882583618164,0.5506663918495178
1766401975007192800,2.14119287109375,1.0989385843276978,-4.027047157287598,-0.49799394607543945
1766401975017202700,2.15120263671875,1.400607943534851,-4.7836151123046875,-1.3072341680526733
1766401975027212500,2.161212646484375,0.950498104095459,-5.288791656494141,-1.8555063009262085
1766401975037222100,2.17122216796875,1.070208191871643,-5.702988624572754,-3.004723072052002
1766401975047201500,2.181201416015625,0.9959878921508789,-3.7181951999664307,-3.442862033843994
1766401975057211100,2.191211181640625,0.7924807667732239,-2.0877439975738525,-3.667917013168335
1766401975067221000,2.201220947265625,0.31364041566848755,-0.7015010714530945,-4.043806552886963
1766401975087240400,2.221240478515625,-1.113303780555725,-1.0055646896362305,-5.190629482269287
1766401975097280800,2.23128076171875,-1.9321208000183105,-3.318363666534424,-6.296750545501709
1766401975107290600,2.24129052734375,-2.691082715988159,-4.900930881500244,-7.285555839538574
1766401975117331000,2.2513310546875,-3.1244332790374756,-6.2847795486450195,-7.812280178070068
1766401975127340500,2.261340576171875,-3.56017804145813,-7.785943984985352,-8.209717750549316
1766401975147360300,2.2813603515625,-5.058948040008545,-12.99812126159668,-9.643844604492188
1766401975157400600,2.291400634765625,-5.468356609344482,-12.559982299804688,-9.928754806518555
1766401975167379700,2.301379638671875,-5.475539207458496,-10.103530883789062,-9.627084732055664
1766401975187399200,2.321399169921875,-5.513846397399902,-5.413290023803711,-10.469843864440918
1766401975207419000,2.3414189453125,-5.154716491699219,-7.716512203216553,-13.445837020874023
1766401975227408000,2.361407958984375,-3.646369218826294,-16.438589096069336,-17.650054931640625
1766401975237417500,2.37141748046875,-3.3949780464172363,-17.781736373901367,-17.489643096923828
1766401975247427300,2.38142724609375,-3.5913026332855225,-15.00925064086914,-15.62216567993164
1766401975257437200,2.391437255859375,-3.162740468978882,-11.882423400878906,-14.178462028503418
1766401975267446800,2.40144677734375,-3.021482467651367,-9.478644371032715,-13.742717742919922
1766401975277487000,2.411487060546875,-2.849100112915039,-8.183381080627441,-13.721169471740723
1766401975297506600,2.431506591796875,-0.6847416758537292,-11.377246856689453,-13.977349281311035
1766401975337545700,2.471545654296875,-0.1604115068912506,-11.065999984741211,-12.756306648254395
1766401975347555600,2.4815556640625,-0.40940847992897034,-8.633491516113281,-11.851298332214355
1766401975357565200,2.491565185546875,-0.811634361743927,-6.835445880889893,-11.23598861694336
1766401975367575000,2.501574951171875,-1.1827356815338135,-5.6455278396606445,-10.668562889099121
1766401975377585000,2.5115849609375,-1.434126853942871,-4.90571928024292,-9.93354320526123
1766401975387594500,2.521594482421875,-1.6663644313812256,-4.489128112792969,-9.318233489990234
1766401975427603200,2.561603271484375,-1.9584569931030273,-5.963956356048584,-8.937555313110352
1766401975447683600,2.58168359375,-2.0470423698425293,-4.920084476470947,-8.209717750549316
1766401975457693400,2.591693359375,-1.9105730056762695,-4.1156325340271,-7.943961143493652
1766401975467703300,2.601703369140625,-1.922544002532959,-3.579331636428833,-7.702147006988525
1766401975477682400,2.611682373046875,-2.0614075660705566,-3.19865345954895,-7.6566572189331055
1766401975487692300,2.6216923828125,-2.564189910888672,-2.9927520751953125,-7.886500358581543
1766401975527731200,2.661731201171875,-3.1268274784088135,-3.177105665206909,-8.396465301513672
1766401975537741000,2.671740966796875,-2.959233283996582,-2.5306711196899414,-8.415618896484375
1766401975547751000,2.6817509765625,-2.8802247047424316,-2.0925323963165283,-8.813055992126465
1766401975557791000,2.691791015625,-3.181894063949585,-1.9823989868164062,-9.102754592895508
1766401975567800800,2.70180078125,-3.5027170181274414,-2.3056161403656006,-9.277531623840332
1766401975577841200,2.711841064453125,-3.713406801223755,-2.7030537128448486,-9.457097053527832
1766401975587851000,2.72185107421875,-3.77565598487854,-3.114856481552124,-9.567230224609375
1766401975597860600,2.731860595703125,-3.9001545906066895,-2.983175277709961,-9.761159896850586
1766401975617849600,2.751849609375,-4.034229755401611,-1.9704279899597168,-9.99100399017334
1766401975627798500,2.761798583984375,-4.175487995147705,-1.7046716213226318,-10.04846477508545
1766401975637838600,2.771838623046875,-4.175487995147705,-1.7046716213226318,-10.04846477508545
1766401975647848400,2.781848388671875,-4.278438568115234,-1.778891921043396,-10.223240852355957
1766401975657858300,2.7918583984375,-4.153939723968506,-1.8531121015548706,-10.431536674499512
1766401975667868000,2.801867919921875,-4.132391929626465,-1.900996208190918,-10.608707427978516
1766401975677877800,2.811877685546875,-4.170699596405029,-2.070984363555908,-10.486603736877441
1766401975687887600,2.8218876953125,-4.156333923339844,-2.298433542251587,-10.563218116760254
1766401975697927700,2.831927734375,-4.182670593261719,-2.1930887699127197,-10.563218116760254
1766401975707907000,2.841906982421875,-4.345476150512695,-1.8267759084701538,-10.553641319274902
1766401975747976700,2.881976806640625,-4.084507942199707,-1.455674648284912,-9.974244117736816
1766401975757986300,2.891986328125,-3.974374771118164,-1.3862427473068237,-10.02691650390625
1766401975767996200,2.90199609375,-3.7636849880218506,-1.3455413579940796,-9.921571731567383
1766401975778006000,2.912006103515625,-3.7158010005950928,-1.3694833517074585,-9.773131370544434
1766401975787954700,2.92195458984375,-3.624821424484253,-1.3335703611373901,-9.658209800720215
1766401975797964500,2.931964599609375,-3.6774938106536865,-1.3192051649093628,-9.775525093078613
1766401975807974100,2.94197412109375,-3.713406801223755,-1.357512354850769,-9.830592155456543
1766401975838003500,2.97200341796875,-3.8331170082092285,-1.4317326545715332,-9.62947940826416
1766401975848013300,2.982013427734375,-3.9839515686035156,-1.4772224426269531,-9.615114212036133
1766401975858023000,2.99202294921875,-3.995922565460205,-1.599326729774475,-9.497797966003418
1766401975868032800,3.00203271484375,-4.129997730255127,-1.577778935432434,-9.428366661071777
1766401975878073000,3.012072998046875,-4.084507942199707,-1.4508862495422363,-9.402029991149902
1766401975888083000,3.0220830078125,-3.952826976776123,-1.4197616577148438,-9.375694274902344
1766401975898123000,3.032123046875,-3.8067808151245117,-1.5514427423477173,-9.390059471130371
1766401975908132900,3.0421328125,-3.7277719974517822,-1.534683346748352,-9.23682975769043
1766401975948202500,3.082202392578125,-3.8714241981506348,-1.6280571222305298,-8.973467826843262
1766401975958242800,3.092242919921875,-4.0964789390563965,-1.644816517829895,-8.908824920654297
1766401975968252400,3.10225244140625,-4.122815132141113,-1.6903064250946045,-8.923190116882324
1766401975978262300,3.11226220703125,-4.14915132522583,-1.7836803197860718,-8.801085472106934
1766401975988272000,3.122272216796875,-4.144362926483154,-1.7836803197860718,-8.772355079650879
1766401975998281700,3.13228173828125,-4.077325344085693,-1.7717092037200928,-8.755595207214355
1766401976008291600,3.14229150390625,-4.041412353515625,-1.742978811264038,-8.848969459533691
1766401976018301400,3.152301513671875,-3.93367338180542,-1.5969325304031372,-8.863334655761719
1766401976058340400,3.19234033203125,-4.1874589920043945,-1.6112977266311646,-9.057265281677246
1766401976078360000,3.212360107421875,-4.3191399574279785,-1.8076223134994507,-9.028534889221191
1766401976088369700,3.22236962890625,-4.316745758056641,-2.032677173614502,-8.973467826843262
1766401976098379500,3.232379638671875,-4.314351558685303,-1.886630892753601,-9.033323287963867
1766401976118429400,3.252429443359375,-4.311957359313965,-1.8387469053268433,-8.856152534484863
1766401976148489200,3.2824892578125,-4.398148536682129,-1.9847931861877441,-9.227252960205078
1766401976158499000,3.2924990234375,-4.469974517822266,-1.9177556037902832,-9.32302188873291
1766401976168509000,3.302509033203125,-4.5394062995910645,-1.8555063009262085,-9.265560150146484
1766401976178518500,3.3125185546875,-4.596867084503174,-1.9584569931030273,-9.208099365234375
1766401976188528400,3.3225283203125,-4.771644115447998,-2.0254945755004883,-9.050082206726074
1766401976208547800,3.3425478515625,-5.011064052581787,-2.0614075660705566,-9.059659004211426
1766401976218557700,3.3525576171875,-5.169081687927246,-2.049436569213867,-9.059659004211426
1766401976228536800,3.362536865234375,-5.056553840637207,-1.968033790588379,-8.937555313110352
1766401976238546700,3.372546630859375,-4.917690277099609,-2.030282974243164,-8.887276649475098
1766401976278555100,3.41255517578125,-4.426878929138184,-1.6831238269805908,-9.29189682006836
1766401976288565000,3.42256494140625,-4.486733913421631,-1.6639702320098877,-9.188945770263672
1766401976298574800,3.432574951171875,-4.644751071929932,-1.7884687185287476,-9.169792175292969
1766401976308554000,3.442553955078125,-4.680664539337158,-1.9033904075622559,-9.220070838928223
1766401976318563800,3.452563720703125,-4.687847137451172,-1.778891921043396,-9.244012832641602
1766401976328604200,3.462604248046875,-4.6471452713012695,-1.7094600200653076,-9.153033256530762
1766401976338613800,3.47261376953125,-4.6471452713012695,-1.7094600200653076,-9.153033256530762
1766401976358633500,3.492633544921875,-4.446032524108887,-1.7956513166427612,-8.925583839416504
1766401976368643000,3.50264306640625,-4.400542736053467,-1.7956513166427612,-9.035717010498047
1766401976378653000,3.51265283203125,-4.378994941711426,-1.8100165128707886,-9.026140213012695
1766401976388662800,3.522662841796875,-4.458003520965576,-1.7597382068634033,-9.093177795410156
1766401976398672400,3.53267236328125,-4.410119533538818,-1.6974890232086182,-9.074024200439453
1766401976408682200,3.54268212890625,-4.355052947998047,-1.745373010635376,-9.222464561462402
1766401976418692000,3.552692138671875,-4.316745758056641,-1.9057846069335938,-9.35893440246582
1766401976428701700,3.56270166015625,-4.357447147369385,-1.8267759084701538,-9.44991397857666
1766401976438772500,3.5727724609375,-4.359841346740723,-1.7070658206939697,-9.63187313079834
1766401976448782300,3.5827822265625,-4.326322555541992,-1.800439715385437,-9.615114212036133
1766401976488882400,3.62288232421875,-3.5482068061828613,-2.0015525817871094,-10.237606048583984
1766401976498922800,3.6329228515625,-3.3231520652770996,-1.9704279899597168,-10.309432983398438
1766401976508932400,3.642932373046875,-3.2992098331451416,-2.049436569213867,-10.445901870727539
1766401976519003100,3.653003173828125,-3.205836057662964,-2.0901381969451904,-10.613495826721191
1766401976529013000,3.663012939453125,-3.184288263320923,-2.2194249629974365,-10.706870079040527
1766401976539022800,3.67302294921875,-3.0573954582214355,-2.2673089504241943,-10.821791648864746
1766401976549032400,3.683032470703125,-2.9688100814819336,-2.3104045391082764,-11.003750801086426
1766401976579061800,3.713061767578125,-2.734178304672241,-2.1140801906585693,-11.334151268005371
1766401976589071600,3.723071533203125,-2.7102363109588623,-1.9608511924743652,-11.1474027633667
1766401976599081500,3.73308154296875,-2.719813108444214,-1.9393033981323242,-11.202469825744629
1766401976609060600,3.743060546875,-2.6001031398773193,-1.9177556037902832,-11.12106704711914
1766401976619070500,3.753070556640625,-2.5785553455352783,-1.9943699836730957,-11.133037567138672
1766401976629080000,3.763080078125,-2.5929205417633057,-2.0039467811584473,-11.154585838317871
1766401976639059500,3.7730595703125,-2.580949544906616,-1.9584569931030273,-10.982203483581543
1766401976649069000,3.783069091796875,-2.456450939178467,-1.9273324012756348,-10.845733642578125
1766401976659079000,3.793078857421875,-2.276885747909546,-1.9488801956176758,-10.632649421691895
1766401976689077800,3.823077880859375,-2.454056739807129,-1.8315643072128296,-10.390835762023926
1766401976699118000,3.8331181640625,-2.4827871322631836,-1.8291701078414917,-10.24000072479248
1766401976709127700,3.843127685546875,-2.540247917175293,-1.8914192914962769,-10.074800491333008
1766401976719137500,3.853137451171875,-2.470816135406494,-1.9776105880737305,-10.041281700134277
1766401976729147400,3.8631474609375,-2.5067291259765625,-2.03507137298584,-10.005369186401367
1766401976739187500,3.8731875,-2.5282769203186035,-2.161964178085327,-9.926360130310059
1766401976749166800,3.883166748046875,-2.585737943649292,-2.205059766769409,-9.739612579345703
1766401976759176700,3.8931767578125,-2.628833532333374,-2.229001760482788,-9.624691009521484
1766401976789267000,3.923266845703125,-2.367865562438965,-2.4372973442077637,-9.763554573059082
1766401976809316900,3.94331689453125,-2.3702597618103027,-2.585737943649292,-9.567230224609375
1766401976819326700,3.95332666015625,-2.3032219409942627,-2.6815059185028076,-9.605537414550781
1766401976829336600,3.963336669921875,-2.2242133617401123,-2.8227639198303223,-9.526528358459473
1766401976839346200,3.97334619140625,-2.070984363555908,-2.7676970958709717,-9.497797966003418
1766401976849356000,3.98335595703125,-1.8770540952682495,-2.806004285812378,-9.425971984863281
1766401976859366000,3.993365966796875,-1.7884687185287476,-2.9017724990844727,-9.301473617553711
1766401976889364500,4.023364501953125,-1.5538369417190552,-2.940079689025879,-8.69095230102539
1766401976899374300,4.033374267578125,-1.5945383310317993,-2.985569477081299,-8.525752067565918
1766401976909384200,4.04338427734375,-1.6879122257232666,-3.0406360626220703,-8.238448143005371
1766401976919393800,4.053393798828125,-1.7166426181793213,-3.090914487838745,-8.180987358093262
1766401976929403600,4.063403564453125,-1.5083470344543457,-3.28963303565979,-8.2312650680542
1766401976949423000,4.083423095703125,-1.259350061416626,-3.4165258407592773,-8.305485725402832
1766401976959433000,4.093432861328125,-1.2976573705673218,-3.3901896476745605,-8.362946510314941
1766401976969442800,4.10344287109375,-1.3455413579940796,-3.308786630630493,-8.276755332946777
1766401976999471900,4.133471923828125,-1.2737152576446533,-3.5673606395721436,-8.034940719604492
1766401977009481700,4.143481689453125,-1.4053963422775269,-3.5721490383148193,-8.209717750549316
1766401977019522000,4.15352197265625,-1.4652514457702637,-3.6104562282562256,-8.11634349822998
1766401977029532000,4.163531982421875,-1.5658079385757446,-3.603273630142212,-7.943961143493652
1766401977039572000,4.173572021484375,-1.702277421951294,-3.84269380569458,-7.802703380584717
1766401977049612300,4.1836123046875,-1.702277421951294,-3.84269380569458,-7.802703380584717
1766401977059622100,4.1936220703125,-1.6950948238372803,-4.137180328369141,-7.663839817047119
1766401977069632000,4.203632080078125,-1.778891921043396,-4.350264549255371,-7.8314337730407715
1766401977089651500,4.2236513671875,-1.7812861204147339,-4.314351558685303,-7.86734676361084
1766401977099661300,4.233661376953125,-1.7046716213226318,-4.359841346740723,-7.86734676361084
1766401977109671000,4.2436708984375,-1.7980455160140991,-4.347870349884033,-7.972691535949707
1766401977119680800,4.2536806640625,-1.9991583824157715,-4.639962673187256,-8.157045364379883
1766401977129690600,4.263690673828125,-2.142810583114624,-4.800374507904053,-8.31985092163086
1766401977139669800,4.273669677734375,-2.1930887699127197,-4.841075897216797,-8.38688850402832
1766401977149649000,4.28364892578125,-2.250549554824829,-5.085284233093262,-8.35336971282959
1766401977159689200,4.293689208984375,-2.1954829692840576,-5.367800235748291,-8.334216117858887
1766401977169699000,4.303698974609375,-2.279279947280884,-5.652710437774658,-8.300697326660156
1766401977179739400,4.313739501953125,-2.298433542251587,-5.683835029602051,-8.26239013671875
1766401977209768700,4.343768798828125,-2.1140801906585693,-6.696582317352295,-8.305485725402832
1766401977219778300,4.3537783203125,-2.094926595687866,-6.538564682006836,-8.343792915344238
1766401977229788200,4.3637880859375,-2.0590133666992188,-6.421248912811279,-8.166622161865234
1766401977239798000,4.373798095703125,-2.1116859912872314,-6.694188117980957,-7.857769966125488
1766401977249807600,4.3838076171875,-2.1978771686553955,-6.890512466430664,-7.759607791900635
1766401977259817500,4.3938173828125,-2.1045033931732178,-7.115567684173584,-7.745242595672607
1766401977269827300,4.403827392578125,-2.011129379272461,-7.319074630737305,-7.766790390014648
1766401977279806500,4.413806396484375,-1.8770540952682495,-7.666234016418457,-7.790732383728027
1766401977289846800,4.4238466796875,-1.745373010635376,-8.434772491455078,-7.982268333435059
1766401977299887000,4.43388720703125,-1.6855180263519287,-9.476250648498535,-8.348581314086914
1766401977309896700,4.443896728515625,-1.659181833267212,-9.86889934539795,-8.525752067565918
1766401977319906600,4.453906494140625,-1.5131354331970215,-9.758766174316406,-8.456320762634277
1766401977329947000,4.46394677734375,-1.5658079385757446,-9.718064308166504,-8.425195693969727
1766401977339956700,4.473956787109375,-1.5729905366897583,-9.50737476348877,-8.403648376464844
1766401977349966300,4.48396630859375,-1.5873557329177856,-9.253589630126953,-8.288725852966309
1766401977360006700,4.494006591796875,-1.5155296325683594,-9.315838813781738,-8.051700592041016
1766401977370016500,4.5040166015625,-1.5849615335464478,-9.739612579345703,-7.8314337730407715
1766401977380026000,4.514026123046875,-1.4915876388549805,-10.070012092590332,-7.864952564239502
1766401977389935900,4.523935791015625,-1.357512354850769,-11.008539199829102,-8.08282470703125
1766401977399945700,4.53394580078125,-1.2880805730819702,-12.136208534240723,-8.44195556640625
1766401977409955600,4.54395556640625,-1.2521674633026123,-12.72757625579834,-8.9064302444458
1766401977419934700,4.553934814453125,-1.4844050407409668,-12.895170211791992,-8.949525833129883
1766401977429944600,4.563944580078125,-1.6065093278884888,-12.631808280944824,-8.983044624328613
1766401977439954200,4.5739541015625,-1.6735470294952393,-13.077129364013672,-8.9064302444458
1766401977449903000,4.583903076171875,-1.479616641998291,-13.941436767578125,-8.463502883911133
1766401977459943200,4.593943115234375,-1.0534487962722778,-14.860810279846191,-8.348581314086914
1766401977469922600,4.603922607421875,-0.47165772318840027,-14.563928604125977,-8.365341186523438
1766401977479932400,4.613932373046875,-0.5315127968788147,-14.30774974822998,-7.8314337730407715
1766401977499982300,4.633982421875,-1.577778935432434,-15.00925064086914,-6.481103897094727
1766401977509961500,4.64396142578125,-1.1109095811843872,-14.827291488647461,-5.671864032745361
1766401977520001800,4.654001708984375,-0.4141969084739685,-15.10023021697998,-4.970362663269043
1766401977530011600,4.66401171875,-0.11971008777618408,-15.327679634094238,-4.505887508392334
1766401977540021500,4.674021484375,-0.47884035110473633,-15.636530876159668,-4.050989151000977
1766401977550000600,4.684000732421875,-0.45489832758903503,-16.191986083984375,-3.6798880100250244
1766401977560071400,4.694071533203125,-0.6943184733390808,-15.31570816040039,-3.3710360527038574
1766401977570050800,4.70405078125,-0.5674257874488831,-14.27662467956543,-2.87064790725708
1766401977580091000,4.7140908203125,-0.38546648621559143,-14.099453926086426,-2.3295583724975586
1766401977590100700,4.724100830078125,-0.2537853717803955,-14.539986610412598,-1.802833914756775
1766401977600110600,4.734110595703125,-0.35434186458587646,-14.532804489135742,-1.2689268589019775
1766401977610120200,4.7441201171875,-0.4118026793003082,-15.030797958374023,-0.7876923680305481
1766401977620130000,4.754130126953125,-0.7182605266571045,-15.49766731262207,-0.6488286852836609
1766401977630140000,4.764139892578125,-1.1563993692398071,-15.796942710876465,-0.6584054827690125
1766401977640180200,4.77418017578125,-1.479616641998291,-15.188815116882324,-0.7038952708244324
1766401977650189800,4.78418994140625,-1.9105730056762695,-15.593435287475586,-0.40701428055763245
1766401977660199700,4.79419970703125,-2.2433669567108154,-16.129735946655273,-0.26815059781074524
1766401977670209300,4.804209228515625,-1.8746598958969116,-15.557522773742676,0.035913024097681046
1766401977680219100,4.81421923828125,-1.4508862495422363,-13.601459503173828,0.26336219906806946
1766401977700238600,4.834238525390625,-1.9776105880737305,-13.658920288085938,0.5267243981361389
1766401977710248400,4.84424853515625,-1.8579005002975464,-13.321338653564453,0.3998316824436188
1766401977720227600,4.8542275390625,-1.8602946996688843,-11.803414344787598,0.24420857429504395
1766401977740247300,4.874247314453125,-1.6328455209732056,-10.553641319274902,0.5937620401382446
1766401977750257000,4.8842568359375,-1.2761094570159912,-10.022128105163574,1.0462661981582642
1766401977760297200,4.894297119140625,-1.194706678390503,-9.696516990661621,0.9696516990661621
1766401977770337500,4.904337646484375,-1.3311761617660522,-9.172186851501465,0.569819986820221
1766401977780347400,4.914347412109375,-1.3910311460494995,-7.970297336578369,0.5171475410461426
1766401977800366800,4.934366943359375,-2.1954829692840576,-6.703764915466309,1.1300631761550903
1766401977820386300,4.95438623046875,-2.4684219360351562,-4.220977783203125,0.7038952708244324
1766401977830396200,4.964396240234375,-2.6168625354766846,-3.071760892868042,0.7661445140838623
1766401977840406000,4.974406005859375,-2.6384103298187256,-3.0573954582214355,1.2066776752471924
1766401977850415600,4.98441552734375,-2.2840683460235596,-2.0853497982025146,1.4532804489135742
1766401977860456000,4.9944560546875,-1.745373010635376,-1.1013327836990356,1.1300631761550903
1766401977870435300,5.004435302734375,-1.2401964664459229,0.1867477297782898,1.0438719987869263
1766401977880445000,5.01444482421875,-1.0534487962722778,0.5937620401382446,1.3311761617660522
1766401977900464600,5.034464599609375,-0.6033388376235962,1.1516109704971313,1.7549498081207275
1766401977910474200,5.04447412109375,-0.15322890877723694,1.3910311460494995,2.049436569213867
1766401977920484000,5.054484130859375,0.5913678407669067,1.8076223134994507,2.0829553604125977
1766401977930494000,5.064493896484375,1.0654197931289673,2.1068975925445557,2.2888567447662354
1766401977940503600,5.074503662109375,1.6136919260025024,2.8347349166870117,2.784456491470337
1766401977950513400,5.084513427734375,1.6974890232086182,3.0119056701660156,3.3494882583618164
1766401977960523000,5.09452294921875,1.7980455160140991,3.646369218826294,3.7636849880218506
1766401977970532900,5.104532958984375,2.1978771686553955,4.395754337310791,4.278438568115234
1766401977980542700,5.114542724609375,2.516305923461914,4.663905143737793,4.462791919708252
1766401978040601300,5.174601318359375,5.286397457122803,2.425326347351074,5.307945251464844
1766401978050611000,5.18461083984375,5.418078422546387,2.4396915435791016,5.4228668212890625
1766401978060590300,5.19459033203125,5.51624059677124,1.7693150043487549,5.595249176025391
1766401978070600000,5.204599853515625,5.803544998168945,1.8052281141281128,5.78678560256958
1766401978080609800,5.21460986328125,5.9088897705078125,2.0661959648132324,6.1770405769348145
1766401978090619600,5.22461962890625,5.961562156677246,1.8195933103561401,5.9519853591918945
1766401978130689000,5.26468896484375,8.008605003356934,2.296039342880249,7.453149795532227
1766401978140729300,5.274729248046875,8.042123794555664,1.5155296325683594,7.745242595672607
1766401978150739200,5.2847392578125,8.159439086914062,1.1228805780410767,7.589619159698486
1766401978160779500,5.294779541015625,8.183381080627441,0.7206547260284424,7.433996200561523
1766401978170789000,5.3047890625,7.965508937835693,0.4357447028160095,7.242460250854492
1766401978180799000,5.314799072265625,7.5968017578125,-0.043095629662275314,6.983886241912842
1766401978190808800,5.324808837890625,7.2113356590271,-0.9816226959228516,7.429207801818848
1766401978200818400,5.334818359375,7.189787864685059,-1.2449848651885986,7.266402244567871
1766401978220838100,5.354838134765625,7.869740962982178,-1.2401964664459229,6.653486728668213
1766401978230817300,5.3648173828125,8.468291282653809,-0.38067805767059326,6.2392897605896
1766401978240888000,5.37488818359375,8.604761123657227,0.3711012601852417,6.598419666290283
1766401978250898000,5.38489794921875,8.432378768920898,1.1779472827911377,7.048529624938965
1766401978260907500,5.394907470703125,7.936778545379639,1.2473790645599365,6.959944248199463
1766401978270917400,5.40491748046875,7.280767440795898,1.1516109704971313,6.98628044128418
1766401978280927200,5.41492724609375,6.708553314208984,1.335964560508728,6.993463039398193
1766401978290906400,5.42490625,6.552929878234863,0.7948749661445618,6.84981107711792
1766401978300916200,5.434916259765625,6.624756336212158,0.395043283700943,7.0341644287109375
1766401978330945500,5.464945556640625,6.840234279632568,-0.33039984107017517,7.532158374786377
1766401978340985900,5.47498583984375,6.785167694091797,-0.5578489899635315,7.062894821166992
1766401978350995500,5.484995361328125,6.897695064544678,-1.05105459690094,6.799532890319824
1766401978361005300,5.49500537109375,7.082048416137695,-1.2090718746185303,6.7492547035217285
1766401978371015200,5.50501513671875,7.376535415649414,-0.9552865028381348,6.332663536071777
1766401978381024800,5.515024658203125,7.333439826965332,-0.4836287498474121,6.761225700378418
1766401978391034600,5.52503466796875,6.761225700378418,-0.1388636976480484,6.967126846313477
1766401978401044500,5.53504443359375,6.720524311065674,0.2561795711517334,6.6846113204956055
1766401978411023600,5.545023681640625,6.7492547035217285,0.15322890877723694,6.689399719238281
1766401978461164000,5.5951640625,7.2137298583984375,1.0989385843276978,6.423643112182617
1766401978471173600,5.605173583984375,6.897695064544678,1.3862427473068237,6.385335922241211
1766401978481153000,5.615153076171875,7.12035608291626,1.4269442558288574,6.279991149902344
1766401978491163000,5.625162841796875,6.710947513580322,1.1755530834197998,6.596025466918945
1766401978501172500,5.63517236328125,6.67982292175293,0.9792284965515137,6.550535678863525
1766401978511182300,5.645182373046875,6.885724067687988,1.139639973640442,6.275202751159668
1766401978521192200,5.655192138671875,7.175422668457031,1.4077905416488647,6.440402507781982
1766401978531201800,5.665201904296875,7.0317702293396,1.280897855758667,6.3302693367004395
1766401978541211600,5.675211669921875,6.904877662658691,1.5969325304031372,6.332663536071777
1766401978551221200,5.68522119140625,6.916848659515381,2.0422539710998535,6.555324077606201
1766401978561231000,5.695231201171875,6.4595561027526855,1.6735470294952393,6.3733649253845215
1766401978571241000,5.705240966796875,6.624756336212158,1.7166426181793213,5.863399982452393
1766401978581250600,5.71525048828125,6.730101108551025,2.231395959854126,5.65031623840332
1766401978591260400,5.725260498046875,6.710947513580322,2.470816135406494,5.272032260894775
1766401978601270300,5.735270263671875,6.785167694091797,3.315969467163086,4.680664539337158
1766401978611249400,5.74524951171875,6.856993675231934,4.709394931793213,4.594472885131836
1766401978621289700,5.755289794921875,6.430825710296631,5.310339450836182,4.757278919219971
1766401978631299600,5.765299560546875,5.8442463874816895,4.788403511047363,4.910507678985596
1766401978651319000,5.785319091796875,4.9152960777282715,5.080495834350586,4.326322555541992
1766401978671338500,5.80533837890625,4.046200752258301,4.702212333679199,4.685452938079834
1766401978681348400,5.815348388671875,3.8977603912353516,4.553771495819092,5.013458251953125
1766401978691327500,5.825327392578125,3.5649664402008057,4.333505153656006,5.3582234382629395
1766401978701337300,5.83533740234375,3.0095114707946777,3.5865142345428467,6.179434776306152
1766401978711347200,5.84534716796875,2.9233202934265137,3.1316158771514893,6.734889507293701
1766401978721356800,5.855356689453125,3.0621838569641113,3.043030261993408,6.7277069091796875
1766401978731366700,5.86536669921875,2.4372973442077637,2.585737943649292,6.610390663146973
1766401978741376500,5.87537646484375,2.2625205516815186,2.846705913543701,6.864176273345947
1766401978751386000,5.88538623046875,1.7980455160140991,2.6001031398773193,7.33583402633667
1766401978761396000,5.89539599609375,1.3455413579940796,1.3311761617660522,8.300697326660156
1766401978771405600,5.905405517578125,1.194706678390503,0.33518823981285095,9.157821655273438
1766401978781446000,5.91544580078125,1.3718775510787964,-0.038307227194309235,9.667786598205566
1766401978791455700,5.925455810546875,2.3127987384796143,-0.2585737705230713,9.739612579345703
1766401978801496000,5.93549609375,2.9281086921691895,-0.790086567401886,9.639056205749512
1766401978811505700,5.945505615234375,3.203441858291626,-1.886630892753601,9.775525093078613
1766401978821546000,5.9555458984375,3.8067808151245117,-2.631227731704712,9.959878921508789
1766401978831495000,5.965494873046875,3.869029998779297,-2.43011474609375,10.26394271850586
1766401978841504500,5.97550439453125,4.405331134796143,-2.43011474609375,10.457873344421387
1766401978851514400,5.985514404296875,5.140350818634033,-3.335123062133789,10.342951774597168
1766401978871533800,6.005533935546875,6.761225700378418,-5.166687488555908,10.524910926818848
1766401978881574100,6.01557421875,7.105990409851074,-4.81473970413208,10.673351287841797
1766401978891584000,6.025583984375,7.06528902053833,-4.422090530395508,10.893617630004883
1766401978901593600,6.035593505859375,6.562506675720215,-4.122815132141113,11.05642318725586
1766401978911573000,6.045572998046875,6.378153324127197,-4.050989151000977,10.919954299926758
1766401978921613300,6.05561328125,7.050923824310303,-4.637568473815918,10.441113471984863
1766401978931623000,6.065622802734375,8.02536392211914,-5.916072368621826,9.806650161743164
1766401978941632800,6.0756328125,8.738836288452148,-6.828263282775879,9.557653427124023
1766401978961652200,6.09565234375,9.945513725280762,-4.788403511047363,8.681375503540039
1766401978971662000,6.105662109375,9.591172218322754,-3.7277719974517822,8.097189903259277
1766401978981671700,6.115671630859375,8.26239013671875,-3.3949780464172363,7.953537940979004
1766401978991651000,6.125651123046875,7.086836814880371,-3.3063924312591553,7.745242595672607
1766401979001661000,6.135660888671875,6.440402507781982,-3.7277719974517822,7.287950038909912
1766401979011670500,6.14567041015625,6.375759124755859,-4.41969633102417,7.132327079772949
1766401979021680400,6.155680419921875,6.57926607131958,-3.88818359375,7.0341644287109375
1766401979031690200,6.165690185546875,6.919242858886719,-2.7916390895843506,6.694188117980957
1766401979041730300,6.175730224609375,6.751648902893066,-2.940079689025879,6.3518171310424805
1766401979051740200,6.185740234375,6.830657482147217,-2.736572504043579,5.918466567993164
1766401979061750000,6.19575,7.094019412994385,-2.6623523235321045,5.477933406829834
1766401979081769500,6.21576953125,7.592013359069824,-3.8139634132385254,4.709394931793213
1766401979091748600,6.22574853515625,7.546523571014404,-3.531447410583496,4.836287498474121
1766401979101758500,6.235758544921875,7.2568254470825195,-2.9688100814819336,4.9368438720703125
1766401979111768300,6.245768310546875,7.3669586181640625,-1.9823989868164062,5.051765441894531
1766401979121778000,6.25577783203125,6.71334171295166,-2.3918075561523438,4.900930881500244
1766401979131818200,6.265818359375,6.555324077606201,-2.873042106628418,4.6950297355651855
1766401979141858600,6.275858642578125,6.555324077606201,-2.873042106628418,4.6950297355651855
1766401979151868400,6.285868408203125,6.904877662658691,-3.1723172664642334,4.592078685760498
1766401979161878000,6.2958779296875,7.259219646453857,-3.584120035171509,4.448426723480225
1766401979181897700,6.315897705078125,8.08043098449707,-2.7700912952423096,4.680664539337158
1766401979191907300,6.3259072265625,8.389283180236816,-2.425326347351074,4.6255974769592285
1766401979201917200,6.335917236328125,7.994239330291748,-3.294421434402466,4.668693542480469
1766401979211927000,6.345927001953125,7.975085735321045,-3.7708675861358643,4.759673118591309
1766401979221936600,6.3559365234375,7.671022415161133,-2.9712042808532715,4.924872875213623
1766401979231946500,6.365946533203125,6.952761650085449,-3.064578056335449,4.967968463897705
1766401979241956400,6.375956298828125,6.497863292694092,-3.1747114658355713,4.989516258239746
1766401979251966000,6.385966064453125,6.299144744873047,-2.8634653091430664,4.9799394607543945
1766401979261975800,6.395975830078125,6.543353080749512,-2.894589900970459,5.351040840148926
1766401979271955000,6.405954833984375,6.722918510437012,-2.786850690841675,5.458779811859131
1766401979282025700,6.416025634765625,6.8809356689453125,-3.315969467163086,5.702988624572754
1766401979292066000,6.426066162109375,7.0126166343688965,-3.890577793121338,6.069301128387451
1766401979302106400,6.4361064453125,7.173028469085693,-3.3901896476745605,6.100425720214844
1766401979312116200,6.4461162109375,6.766014099121094,-3.97916316986084,6.13633918762207
1766401979322156500,6.456156494140625,6.339846134185791,-4.177882194519043,6.2392897605896
1766401979332166100,6.466166259765625,6.1985883712768555,-4.134786128997803,6.514622688293457
1766401979342176000,6.476176025390625,5.980715751647949,-4.089296340942383,6.737283706665039
1766401979352185600,6.486185546875,5.34625244140625,-4.817133903503418,6.809109687805176
1766401979362226000,6.496225830078125,6.052541732788086,-4.106055736541748,6.780379295349121
1766401979372235800,6.50623583984375,6.610390663146973,-3.7014358043670654,6.5265936851501465
1766401979392224800,6.526224853515625,7.311892032623291,-3.7397429943084717,6.7277069091796875
1766401979402234600,6.536234619140625,7.29034423828125,-3.509899616241455,6.619967937469482
1766401979412244200,6.546244140625,6.8162922859191895,-3.3470940589904785,6.366182327270508
1766401979422254000,6.556254150390625,6.48828649520874,-3.1316158771514893,6.703764915466309
1766401979432264000,6.566263916015625,6.167463779449463,-2.655169725418091,6.904877662658691
1766401979442304000,6.576303955078125,5.980715751647949,-2.942473888397217,6.947973251342773
1766401979452344300,6.58634423828125,5.8873419761657715,-3.2130186557769775,7.115567684173584
1766401979462384600,6.596384521484375,6.174646377563477,-3.157952070236206,6.9910688400268555
1766401979472394500,6.60639453125,6.382941722869873,-3.4332852363586426,7.074865818023682
1766401979482404400,6.616404296875,6.512228488922119,-3.7876269817352295,6.94079065322876
1766401979502454300,6.636454345703125,5.875370979309082,-3.6727054119110107,7.053318023681641
1766401979512464100,6.646464111328125,6.234501361846924,-3.450044631958008,6.914454460144043
1766401979522504400,6.65650439453125,7.06528902053833,-3.136404275894165,6.665457725524902
1766401979532514000,6.66651416015625,7.86734676361084,-3.0166940689086914,6.258443355560303
1766401979542524000,6.67652392578125,8.339004516601562,-2.8179752826690674,6.167463779449463
1766401979552533500,6.686533447265625,8.844181060791016,-1.987187385559082,5.999869346618652
1766401979562543400,6.69654345703125,9.35654067993164,-1.4245500564575195,5.614402770996094
1766401979572553200,6.70655322265625,8.89445972442627,-1.259350061416626,5.377377033233643
1766401979622602000,6.75660205078125,8.990227699279785,-3.313575267791748,3.450044631958008
1766401979642713000,6.776713134765625,9.275136947631836,-2.978386878967285,3.138798475265503
1766401979652661800,6.786661865234375,8.769960403442383,-4.132391929626465,3.114856481552124
1766401979662702000,6.7967021484375,8.391676902770996,-5.410895824432373,3.093308687210083
1766401979672681200,6.80668115234375,8.609549522399902,-4.501099109649658,3.179499864578247
1766401979682691000,6.816691162109375,8.406042098999023,-3.9217023849487305,3.778050184249878
1766401979722699500,6.856699462890625,9.2033109664917,-1.2976573705673218,4.381389141082764
1766401979732739800,6.86673974609375,9.141061782836914,0.2346317619085312,4.683058738708496
1766401979742780200,6.8767802734375,8.925583839416504,1.522712230682373,5.2696380615234375
1766401979752759600,6.886759521484375,8.38449478149414,3.1914708614349365,5.817910194396973
1766401979762769200,6.89676904296875,8.283937454223633,4.948814868927002,6.004657745361328
1766401979772779000,6.906779052734375,8.846575736999512,6.287173748016357,6.31829833984375
1766401979782819300,6.9168193359375,9.84495735168457,3.488351821899414,5.9519853591918945
1766401979792798500,6.926798583984375,9.636661529541016,1.094150185585022,4.867412090301514
1766401979832807200,6.96680712890625,8.918401718139648,1.4197616577148438,6.222530364990234
1766401979842816800,6.976816650390625,8.918401718139648,1.4197616577148438,6.222530364990234
1766401979852857000,6.986857177734375,8.920795440673828,3.2297780513763428,7.201758861541748
1766401979862867000,6.996866943359375,8.33182144165039,3.6535518169403076,7.90086555480957
1766401979872907300,7.0069072265625,7.544129371643066,3.2585084438323975,8.47786808013916
1766401979882947300,7.016947265625,7.824251174926758,3.8762125968933105,8.983044624328613
1766401979892987600,7.026987548828125,7.682993412017822,4.697423934936523,9.531316757202148
1766401979912976600,7.0469765625,7.146692276000977,3.2752678394317627,9.136273384094238
1766401979923017000,7.057016845703125,6.641515731811523,3.155557870864868,8.53532886505127
1766401979933026800,7.06702685546875,5.793968200683594,4.089296340942383,8.635885238647461
1766401979953015800,7.087015869140625,4.446032524108887,4.49870491027832,9.006986618041992
1766401979963025700,7.097025634765625,4.522646903991699,3.4763808250427246,8.875306129455566
1766401979973065700,7.107065673828125,4.6040496826171875,2.674323320388794,8.341399192810059
1766401979983075600,7.11707568359375,5.233725070953369,1.8171991109848022,7.934384346008301
1766401979993085400,7.12708544921875,6.09324312210083,0.10534487664699554,7.469909191131592
1766401980033155000,7.167155029296875,7.812280178070068,0.1364694982767105,5.298368453979492
1766401980043164700,7.17716455078125,8.015787124633789,0.9457096457481384,5.257667064666748
1766401980053174500,7.187174560546875,8.006210327148438,1.335964560508728,4.970362663269043
1766401980063184100,7.19718408203125,8.090007781982422,1.3335703611373901,4.37420654296875
1766401980073163500,7.20716357421875,8.844181060791016,1.0438719987869263,3.624821424484253
1766401980083173400,7.21717333984375,12.703634262084961,-3.9911341667175293,2.537853717803955
1766401980093213400,7.22721337890625,15.27979564666748,-11.470620155334473,0.07661445438861847
1766401980103253800,7.237253662109375,17.69075584411621,-10.27591323852539,-0.9576807022094727
1766401980113263600,7.247263671875,16.687585830688477,0.8140285611152649,0.9457096457481384
1766401980123242800,7.25724267578125,11.489773750305176,3.2561142444610596,3.184288263320923
1766401980133283000,7.267282958984375,6.155492782592773,-0.8738836050033569,5.590460777282715
1766401980143293000,7.27729296875,3.88818359375,-3.7253777980804443,6.184223175048828
1766401980153302800,7.287302734375,4.216189384460449,-2.655169725418091,5.374982833862305
1766401980163282000,7.297281982421875,5.276820659637451,-0.7230489253997803,4.376600742340088
1766401980173352700,7.307352783203125,4.912901878356934,1.8794482946395874,3.399766445159912
1766401980183362600,7.317362548828125,4.441244125366211,3.7636849880218506,3.265691041946411
1766401980193372200,7.3273720703125,4.927267074584961,4.726154327392578,3.6511576175689697
1766401980203412500,7.33741259765625,5.463568210601807,4.90571928024292,4.838681697845459
1766401980213422300,7.34742236328125,4.390965938568115,10.20887565612793,6.914454460144043
1766401980233441800,7.36744189453125,9.033323287963867,6.133944988250732,6.722918510437012
1766401980243451600,7.37745166015625,8.20492935180664,2.849100112915039,5.504269599914551
1766401980253492000,7.387491943359375,8.892065048217773,-1.824381709098816,4.189853191375732
1766401980263501600,7.39750146484375,8.719682693481445,-4.381389141082764,3.2369606494903564
1766401980273511400,7.407511474609375,8.489839553833008,-4.841075897216797,3.090914487838745
1766401980283490600,7.417490478515625,8.078036308288574,-2.054224967956543,3.466804027557373
1766401980293531000,7.42753076171875,8.161833763122559,2.1763293743133545,4.158728122711182
1766401980303601700,7.4376015625,8.647856712341309,4.520252704620361,5.049371242523193
1766401980313581000,7.4475810546875,8.688557624816895,4.778826713562012,6.038176536560059
1766401980333600500,7.4676005859375,6.98628044128418,1.4700398445129395,6.287173748016357
1766401980343640800,7.477640869140625,7.465120792388916,1.316810965538025,6.411672115325928
1766401980353620000,7.487619873046875,8.034940719604492,1.764526605606079,6.50025749206543
1766401980363660300,7.497660400390625,7.898471355438232,2.4803929328918457,6.490680694580078
1766401980373700600,7.50770068359375,7.8098859786987305,1.2880805730819702,6.557718276977539
1766401980383679700,7.5176796875,8.008605003356934,0.3902548849582672,6.825869083404541
1766401980393689600,7.527689697265625,8.027758598327637,0.3902548849582672,7.242460250854492
1766401980403730000,7.53772998046875,7.673416614532471,0.5554547905921936,7.218518257141113
1766401980413770200,7.547770263671875,7.778761386871338,2.006340980529785,7.141903877258301
1766401980423810600,7.557810546875,8.224082946777344,2.674323320388794,6.811503887176514
1766401980443799600,7.577799560546875,8.571242332458496,2.5713725090026855,6.13633918762207
1766401980453840000,7.58783984375,8.123526573181152,2.1308395862579346,6.0405707359313965
1766401980463849500,7.597849365234375,7.5632829666137695,1.1492167711257935,6.31829833984375
1766401980473859300,7.607859375,7.096413612365723,0.2537853717803955,6.536170482635498
1766401980483838500,7.61783837890625,7.218518257141113,-0.2992752194404602,6.933608055114746
1766401980493878800,7.627878662109375,7.010222434997559,-0.3687070608139038,7.283161640167236
1766401980503888600,7.637888671875,6.998251438140869,-0.35673606395721436,7.534552574157715
1766401980513898200,7.647898193359375,6.682217121124268,-0.21787235140800476,7.450755596160889
1766401980523938600,7.6579384765625,6.550535678863525,0.10055647045373917,7.144298076629639
1766401980533948400,7.667948486328125,7.347805023193359,0.22744916379451752,6.670246124267578
1766401980594068000,7.72806787109375,5.916072368621826,-0.6847416758537292,6.521805286407471
1766401980604047400,7.73804736328125,6.217741966247559,-0.5770025849342346,6.617573261260986
1766401980614087700,7.748087646484375,5.793968200683594,-0.3016694188117981,6.698976516723633
1766401980624127700,7.758127685546875,6.22731876373291,-0.33279404044151306,6.6391215324401855
1766401980634137600,7.7681376953125,6.519411087036133,-0.49320554733276367,6.66785192489624
1766401980644117000,7.778116943359375,6.67982292175293,-1.2066776752471924,6.821080684661865
1766401980654157000,7.788156982421875,6.4595561027526855,-1.7381904125213623,7.053318023681641
1766401980664197400,7.798197265625,6.229712963104248,-1.742978811264038,7.4986395835876465
1766401980674176800,7.8081767578125,6.847416877746582,-1.2976573705673218,7.603984832763672
1766401980684186400,7.818186279296875,7.4770917892456055,-0.4357447028160095,7.793126583099365
1766401980694196200,7.8281962890625,7.2568254470825195,-0.5554547905921936,8.090007781982422
1766401980704206000,7.8382060546875,6.979097843170166,-1.2306196689605713,8.497021675109863
1766401980714215700,7.848215576171875,6.294356346130371,-2.0614075660705566,8.808267593383789
1766401980724225500,7.8582255859375,6.172252178192139,-2.7676970958709717,8.401253700256348
1766401980734265900,7.868265869140625,6.512228488922119,-2.4444799423217773,7.659051418304443
1766401980744275500,7.878275390625,6.715735912322998,-1.86508309841156,7.247248649597168
1766401980754285300,7.888285400390625,7.297526836395264,-1.2856862545013428,6.98628044128418
1766401980784314600,7.918314697265625,8.087613105773926,0.7829039692878723,6.538564682006836
1766401980794293800,7.928293701171875,8.374917984008789,1.7812861204147339,6.09324312210083
1766401980804303600,7.9383037109375,8.482656478881836,2.3032219409942627,5.451597213745117
1766401980814313500,7.9483134765625,7.939172744750977,0.6368576288223267,5.286397457122803
1766401980824323000,7.958322998046875,7.321468830108643,-0.790086567401886,5.264849662780762
1766401980834333000,7.9683330078125,6.519411087036133,-1.1109095811843872,5.497087001800537
1766401980844342800,7.9783427734375,6.361393928527832,-1.0558429956436157,5.51624059677124
1766401980854322000,7.988322021484375,5.985504150390625,1.3742717504501343,5.918466567993164
1766401980874341400,8.00834130859375,6.071695327758789,3.77565598487854,7.060500621795654
1766401980884381700,8.018381591796874,6.119579315185547,3.976768970489502,7.309497833251953
1766401980894391600,8.0283916015625,6.368576526641846,3.648763418197632,6.854599475860596
1766401980904431900,8.038431884765625,6.914454460144043,2.9065608978271484,5.657498836517334
1766401980914411000,8.048410888671874,7.750030994415283,1.8962076902389526,4.963180065155029
1766401980924451300,8.058451416015625,8.875306129455566,0.5219359993934631,4.93923807144165
1766401980944470800,8.078470703125,10.781089782714844,-2.300827741622925,4.481945514678955
1766401980954450200,8.0884501953125,10.14902114868164,-2.9951462745666504,4.113238334655762
1766401980994458600,8.128458740234375,5.827486991882324,-1.2665326595306396,5.978321552276611
1766401981004468500,8.138468505859375,5.125985622406006,-1.1659762859344482,5.774814605712891
1766401981014447600,8.148447509765624,6.0190229415893555,-0.6512228846549988,5.702988624572754
1766401981024457500,8.15845751953125,6.519411087036133,0.1149216815829277,5.762843608856201
1766401981034436600,8.1684365234375,6.964732646942139,-1.3096283674240112,5.983109951019287
1766401981044446500,8.178446533203125,7.486668586730957,-1.4508862495422363,6.19379997253418
1766401981054425600,8.188425537109374,7.960720539093018,-0.14604631066322327,5.92325496673584
1766401981064466000,8.1984658203125,8.542511940002441,0.8930372595787048,6.27280855178833
1766401981094525700,8.228525634765624,6.169857978820801,-0.011971008032560349,6.651092529296875
1766401981104535600,8.23853564453125,5.801150798797607,-2.3319525718688965,6.54574728012085
1766401981114545400,8.24854541015625,6.081272125244141,-2.011129379272461,6.780379295349121
1766401981124555000,8.258554931640624,7.230489253997803,-1.213860273361206,6.617573261260986
1766401981134564900,8.26856494140625,7.129932880401611,-2.3487119674682617,6.885724067687988
1766401981144605200,8.278605224609375,6.998251438140869,-2.5522189140319824,7.010222434997559
1766401981154615000,8.288614990234375,7.419631004333496,-1.7932571172714233,7.180211067199707
1766401981164624600,8.298624755859375,7.117961883544922,-0.2801215946674347,7.151480674743652
1766401981174604000,8.30860400390625,6.581660270690918,0.4836287498474121,6.8378400802612305
1766401981184613600,8.318613525390624,6.22731876373291,0.3902548849582672,6.734889507293701
1766401981214643000,8.348642822265624,6.763619899749756,1.7717092037200928,6.605602264404297
1766401981234662400,8.368662353515624,10.560823440551758,-1.680729627609253,6.007051944732666
1766401981244672300,8.37867236328125,9.5408935546875,-2.296039342880249,7.003039836883545
1766401981254651600,8.388651611328125,9.5408935546875,-2.296039342880249,7.003039836883545
1766401981264691700,8.398691650390624,8.255207061767578,-2.1811177730560303,7.220912456512451
1766401981274701600,8.40870166015625,7.436390399932861,-3.0334534645080566,7.371747016906738
1766401981304731000,8.43873095703125,7.086836814880371,-6.081272125244141,7.845798969268799
1766401981314710000,8.4487099609375,7.254431247711182,-5.298368453979492,7.714118003845215
1766401981324719900,8.458719970703125,7.982268333435059,-4.54419469833374,7.333439826965332
1766401981334729700,8.468729736328125,7.577648162841797,-4.630385875701904,6.789956092834473
1766401981344739300,8.4787392578125,6.380547523498535,-4.896142482757568,6.586448669433594
1766401981354749200,8.488749267578125,5.9519853591918945,-3.6607344150543213,6.7923502922058105
1766401981364789500,8.49878955078125,5.9088897705078125,-3.0813376903533936,6.562506675720215
1766401981374799400,8.50879931640625,6.270414352416992,-2.47560453414917,6.337451934814453
1766401981414838300,8.54883837890625,6.509834289550781,-1.2473790645599365,5.214571475982666
1766401981424848100,8.55884814453125,6.5912370681762695,-2.5546131134033203,5.073313236236572
1766401981434857700,8.568857666015624,5.676652431488037,-2.3558945655822754,4.726154327392578
1766401981444867600,8.57886767578125,5.147533416748047,-2.7509377002716064,5.008669853210449
1766401981454847000,8.588846923828125,5.509057998657227,-2.9903578758239746,6.09324312210083
1766401981464887000,8.598886962890624,5.396530628204346,-1.1444283723831177,7.038952827453613
1766401981474897000,8.60889697265625,4.8482584953308105,0.8810662031173706,8.034940719604492
1766401981484906800,8.61890673828125,4.807557106018066,0.9720458984375,9.643844604492188
1766401981524915200,8.658915283203125,6.390124320983887,0.11971008777618408,5.17626428604126
1766401981534925000,8.668925048828125,6.847416877746582,-0.8140285611152649,5.200206279754639
1766401981544965400,8.67896533203125,10.946290016174316,0.26096799969673157,5.1116204261779785
1766401981554944500,8.688944580078125,11.99255657196045,1.764526605606079,6.6391215324401855
1766401981564984800,8.69898486328125,10.752359390258789,1.3096283674240112,8.176198959350586
1766401981584973800,8.718973876953125,7.46033239364624,0.1412578970193863,8.252813339233398
1766401981615033600,8.74903369140625,7.407660007476807,-0.8475474119186401,6.172252178192139
1766401981625043500,8.75904345703125,7.936778545379639,-1.2856862545013428,6.042964935302734
1766401981635053000,8.769052978515624,8.008605003356934,-1.0965443849563599,7.022193431854248
1766401981645093400,8.77909326171875,6.823474884033203,-1.5059528350830078,7.797914981842041
1766401981655103200,8.789103271484375,5.947196960449219,-1.137245774269104,8.039729118347168
1766401981665113000,8.799113037109375,5.91128396987915,0.009576806798577309,7.850587368011475
1766401981675122700,8.809122802734375,6.102819919586182,0.05506663769483566,7.675810813903809
1766401981685132500,8.819132568359375,5.770026206970215,0.33997663855552673,7.338228225708008
1766401981715192300,8.8491923828125,6.84981107711792,-0.12210428714752197,7.3023152351379395
1766401981745252000,8.879252197265625,5.329493045806885,-3.6822822093963623,5.6910176277160645
1766401981755262000,8.889261962890625,6.414066314697266,-1.4413094520568848,6.107608318328857
1766401981765271600,8.899271484375,7.558494567871094,0.5339069962501526,6.574477672576904
1766401981775281400,8.909281494140625,7.762001991271973,2.3319525718688965,7.371747016906738
1766401981785291300,8.919291259765625,7.706935405731201,3.3662476539611816,8.549694061279297
1766401981795300900,8.92930078125,6.605602264404297,2.477998733520508,9.533711433410645
1766401981805310700,8.939310791015625,5.5976433753967285,1.8124107122421265,9.17936897277832
1766401981845410800,8.979410888671875,5.547365188598633,-1.7070658206939697,5.78678560256958
1766401981855420700,8.989420654296875,5.114014625549316,-0.8475474119186401,5.382165431976318
1766401981865430300,8.99943017578125,5.384559631347656,-0.2082955539226532,5.719748020172119
1766401981875440000,9.009440185546875,6.253654956817627,0.3687070608139038,6.696582317352295
1766401981885450000,9.019449951171875,7.2113356590271,1.45806884765625,7.103596210479736
1766401981895459600,9.02945947265625,7.979874134063721,2.8826189041137695,6.514622688293457
1766401981925489000,9.059489013671875,6.124367713928223,3.2321722507476807,5.995080947875977
1766401981935498800,9.069498779296875,5.185841083526611,1.9177556037902832,5.918466567993164
1766401981945508400,9.07950830078125,3.6846764087677,-0.09816227108240128,5.403713226318359
1766401981955518200,9.089518310546875,3.6846764087677,-0.09816227108240128,5.403713226318359
1766401981965528000,9.099528076171875,2.959233283996582,-1.3096283674240112,4.970362663269043
1766401981975537700,9.10953759765625,4.446032524108887,-0.7422025203704834,4.6255974769592285
1766401981985578000,9.119577880859374,7.1251444816589355,0.24899697303771973,4.381389141082764
1766401981995587800,9.129587890625,8.834604263305664,1.290474772453308,4.8602294921875
1766401982045728300,9.179728271484375,7.024587631225586,-0.9624691009521484,7.687781810760498
1766401982055737900,9.18973779296875,6.8378400802612305,-2.1332337856292725,6.466738700866699
1766401982065747700,9.199747802734375,7.29034423828125,-1.558625340461731,5.686229228973389
1766401982075757600,9.209757568359375,7.553706169128418,-1.0079588890075684,5.252878665924072
1766401982085798000,9.2197978515625,9.66539192199707,2.4205379486083984,6.6391215324401855
1766401982095807500,9.229807373046874,10.409989356994629,4.268861770629883,8.403648376464844
1766401982105817300,9.2398173828125,10.474632263183594,2.631227731704712,10.11550235748291
1766401982115796500,9.24979638671875,8.918401718139648,1.1276689767837524,10.113107681274414
1766401982135877000,9.269877197265625,5.990292549133301,0.5913678407669067,7.328651428222656
1766401982145917400,9.27991748046875,5.2672438621521,-0.4429273009300232,6.490680694580078
1766401982155896600,9.289896484375,5.7341132164001465,-1.434126853942871,5.717353820800781
1766401982165906400,9.299906494140625,6.203376770019531,-1.6304513216018677,5.341464042663574
1766401982175916300,9.309916259765625,7.433996200561523,-0.6129156351089478,5.56173038482666
1766401982185926000,9.31992578125,9.442731857299805,1.2425906658172607,6.098031520843506
1766401982195935700,9.329935791015625,9.964667320251465,1.41257905960083,7.000645637512207
1766401982205945600,9.339945556640625,8.798690795898438,0.9744400978088379,8.078036308288574
1766401982215955200,9.349955078125,7.544129371643066,0.07661445438861847,8.453926086425781
1766401982266004000,9.40000390625,7.766790390014648,-0.08619125932455063,5.348646640777588
1766401982286054100,9.42005419921875,7.433996200561523,1.170764684677124,6.912060260772705
1766401982296064000,9.43006396484375,8.087613105773926,1.0342950820922852,8.051700592041016
1766401982306104000,9.44010400390625,8.212111473083496,1.3311761617660522,8.968679428100586
1766401982316114000,9.450114013671875,6.864176273345947,1.9369091987609863,8.638279914855957
1766401982326123800,9.460123779296875,5.588066577911377,1.7836803197860718,7.747636795043945
1766401982346143200,9.480143310546875,4.714183330535889,0.9528923034667969,6.141127586364746
1766401982356153000,9.490153076171875,4.716577529907227,-0.7445967197418213,5.750872611999512
1766401982366193400,9.500193359375,5.521028995513916,-3.2417490482330322,5.57370138168335
1766401982376172500,9.510172607421875,6.670246124267578,-4.393360137939453,5.3342814445495605
1766401982386182400,9.520182373046875,7.3693528175354,-1.6112977266311646,5.506663799285889
1766401982396192000,9.53019189453125,9.330204010009766,2.2026655673980713,6.7923502922058105
1766401982416242200,9.5502421875,7.936778545379639,2.0159177780151367,9.062053680419922
1766401982426251800,9.560251708984374,5.468356609344482,0.2513911724090576,8.719682693481445
1766401982446271500,9.580271484375,5.216965675354004,-0.45489832758903503,7.254431247711182
1766401982456250600,9.590250732421875,6.045359134674072,-0.5434837937355042,6.502651691436768
1766401982466291000,9.600291015625,6.998251438140869,-1.4197616577148438,6.342240333557129
1766401982476300800,9.61030078125,7.680599212646484,-1.7357962131500244,6.593631267547607
1766401982486310400,9.620310302734374,7.3454108238220215,0.031124621629714966,7.340622425079346
1766401982496320300,9.6303203125,7.173028469085693,0.7206547260284424,7.783549785614014
1766401982506330000,9.640330078125,6.607996463775635,1.0103530883789062,8.022970199584961
1766401982516339700,9.650339599609374,6.14831018447876,1.235408067703247,8.166622161865234
1766401982526349600,9.660349609375,5.872976779937744,1.113303780555725,8.111555099487305
1766401982566327600,9.70032763671875,5.355829238891602,-1.3120225667953491,6.303933143615723
1766401982576337400,9.71033740234375,6.157886981964111,-1.5298948287963867,5.671864032745361
1766401982586347000,9.720346923828124,6.653486728668213,-1.6496049165725708,5.959167957305908
1766401982596356900,9.73035693359375,8.643068313598633,-1.5873557329177856,6.8043212890625
1766401982606366700,9.74036669921875,8.109161376953125,-0.8355764150619507,7.704541206359863
1766401982616376300,9.750376220703124,7.481880187988281,0.5650315880775452,7.845798969268799
1766401982626386200,9.76038623046875,6.931213855743408,0.811634361743927,7.4100542068481445
1766401982646405600,9.780405517578124,5.827486991882324,2.604891538619995,8.169015884399414
1766401982666425300,9.80042529296875,6.335057735443115,3.047818660736084,8.192957878112793
1766401982676404500,9.810404541015625,6.0621185302734375,3.6320040225982666,8.003816604614258
1766401982686475300,9.820475341796875,5.434837818145752,3.114856481552124,7.503427982330322
1766401982696454400,9.830454345703124,5.116408824920654,2.1930887699127197,6.773196697235107
1766401982706464300,9.84046435546875,3.952826976776123,3.181894063949585,6.423643112182617
1766401982716443600,9.850443603515625,4.326322555541992,4.165910720825195,6.53377628326416
1766401982726453200,9.860453369140625,3.464409828186035,4.4077253341674805,6.392518520355225
1766401982776563200,9.910563232421875,8.877699851989746,0.9600749015808105,6.184223175048828
1766401982786603500,9.920603515625,8.128314971923828,0.3423708379268646,6.610390663146973
1766401982796613000,9.930613037109374,6.995857238769531,0.090979665517807,6.938396453857422
1766401982806653400,9.9406533203125,6.380547523498535,0.4596867263317108,6.521805286407471
1766401982816632800,9.9506328125,7.3885064125061035,1.7070658206939697,5.963956356048584
1766401982826642400,9.960642333984374,8.686163902282715,2.166752576828003,5.688623428344727
1766401982836682800,9.970682861328125,9.840168952941895,2.22660756111145,5.932831764221191
1766401982846692600,9.980692626953125,9.26795482635498,1.137245774269104,6.313509941101074
1766401982856702200,9.9907021484375,6.845022678375244,-0.8523358106613159,6.3302693367004395
1766401982866712000,10.000712158203125,5.664681434631348,-1.625662922859192,6.495469093322754
1766401982876722000,10.010721923828125,6.797138690948486,-1.4652514457702637,6.687005519866943
1766401982886762200,10.02076220703125,7.103596210479736,-0.5937620401382446,6.742072105407715
1766401982896771800,10.030771728515624,7.793126583099365,-0.05506663769483566,7.201758861541748
1766401982906842600,10.040842529296874,9.727641105651855,0.7781155705451965,6.658275127410889
1766401982916822000,10.050822021484375,9.066842079162598,1.292868971824646,7.208941459655762
1766401982926892800,10.060892822265625,8.516175270080566,0.8212111592292786,7.714118003845215
1766401982936902400,10.07090234375,7.264008045196533,0.5722141861915588,8.281543731689453
1766401982966962400,10.10096240234375,6.964732646942139,-1.1755530834197998,6.763619899749756
1766401982976972000,10.110971923828124,6.528987884521484,-0.11013327538967133,6.493074893951416
1766401982987012400,10.121012451171875,7.802703380584717,-0.09576806426048279,6.560112476348877
1766401982996991700,10.13099169921875,8.157045364379883,0.36152446269989014,7.252037048339844
1766401983007001300,10.14100146484375,6.852205276489258,0.6703764796257019,7.982268333435059
1766401983017011200,10.15101123046875,6.157886981964111,0.8164227604866028,8.497021675109863
1766401983027020800,10.161020751953124,6.301538944244385,0.5147533416748047,8.209717750549316
1766401983037030700,10.17103076171875,6.191405773162842,0.6248866319656372,7.314286231994629
1766401983047040500,10.18104052734375,5.872976779937744,1.0797849893569946,6.564900875091553
1766401983057050000,10.191050048828124,6.493074893951416,1.625662922859192,6.445190906524658
1766401983077100300,10.211100341796875,7.113173484802246,0.9959878921508789,7.438784599304199
1766401983087110100,10.221110107421875,7.565677165985107,-0.9361328482627869,7.5201873779296875
1766401983097119700,10.23111962890625,7.094019412994385,-1.4317326545715332,6.878541469573975
1766401983107129600,10.241129638671875,6.698976516723633,0.06224924325942993,6.892906665802002
1766401983117139500,10.251139404296875,6.983886241912842,1.8363527059555054,6.878541469573975
1766401983127179500,10.261179443359374,7.017405033111572,2.63362193107605,6.766014099121094
1766401983137219800,10.2712197265625,6.050147533416748,2.4684219360351562,6.452373504638672
1766401983147229700,10.281229736328125,5.47075080871582,1.9249382019042969,6.600813865661621
1766401983157239600,10.291239501953125,5.631162166595459,1.6424223184585571,6.610390663146973
1766401983187268600,10.3212685546875,7.915230751037598,-0.06703764945268631,5.829881191253662
1766401983197278500,10.331278564453125,8.741230010986328,1.2832920551300049,5.406107425689697
1766401983207288300,10.341288330078125,9.117119789123535,2.432508945465088,5.971138954162598
1766401983217298000,10.3512978515625,8.293514251708984,1.9057846069335938,6.567295074462891
1766401983227307800,10.361307861328125,7.275979042053223,1.522712230682373,6.540958881378174
1766401983237317600,10.371317626953125,6.560112476348877,0.9864110946655273,6.5481414794921875
1766401983247388400,10.381388427734375,6.497863292694092,1.2952631711959839,6.440402507781982
1766401983257367600,10.391367431640624,6.155492782592773,3.2297780513763428,6.299144744873047
1766401983267408000,10.401407958984375,7.304709434509277,3.155557870864868,6.629544734954834
1766401983287396900,10.42139697265625,7.395689010620117,-0.6033388376235962,8.106766700744629
1766401983297406700,10.43140673828125,8.070854187011719,-0.933738648891449,7.972691535949707
1766401983307416300,10.441416259765624,8.195352554321289,-0.29209262132644653,7.979874134063721
1766401983317426200,10.45142626953125,7.860164165496826,-0.9002198576927185,7.132327079772949
1766401983327436000,10.46143603515625,7.113173484802246,-2.1499931812286377,6.732495307922363
1766401983337445600,10.471445556640624,7.050923824310303,-2.3535003662109375,6.129156112670898
1766401983347486000,10.48148583984375,7.026981830596924,0.3471592366695404,6.4380083084106445
1766401983357526300,10.4915263671875,7.161057472229004,2.695871114730835,7.022193431854248
1766401983367597000,10.50159716796875,6.754043102264404,3.3877954483032227,6.98628044128418
1766401983377576400,10.511576416015625,5.8657941818237305,2.343923568725586,6.703764915466309
1766401983397565400,10.5315654296875,5.489904403686523,1.1899182796478271,6.184223175048828
1766401983407605800,10.541605712890625,5.8657941818237305,1.0223240852355957,5.920860767364502
1766401983417615400,10.551615478515625,5.999869346618652,2.3080103397369385,6.078877925872803
1766401983427655700,10.56165576171875,7.094019412994385,3.399766445159912,6.287173748016357
1766401983437665500,10.57166552734375,7.393294811248779,3.2561142444610596,6.052541732788086
1766401983447675100,10.581675048828124,6.2416839599609375,2.8371291160583496,5.743690013885498
1766401983457685000,10.59168505859375,6.011840343475342,1.4652514457702637,5.307945251464844
1766401983467725300,10.601725341796875,6.066906929016113,0.48602294921875,5.30076265335083
1766401983477735000,10.61173486328125,7.352593421936035,-0.8762778043746948,5.284003257751465
1766401983497754600,10.631754638671875,9.294290542602539,0.17238251864910126,6.090848922729492
1766401983507764200,10.64176416015625,8.655038833618164,1.158793568611145,7.910442352294922
1766401983517774000,10.651774169921875,9.624691009521484,2.0853497982025146,8.075642585754395
1766401983527814400,10.661814453125,8.635885238647461,1.8052281141281128,7.953537940979004
1766401983537793500,10.67179345703125,7.417236804962158,0.09816227108240128,7.781155586242676
1766401983547833900,10.681833740234374,7.50582218170166,-2.252943754196167,6.5481414794921875
1766401983557843700,10.69184375,5.6910176277160645,-3.1028854846954346,7.390900611877441
1766401983567884000,10.701884033203125,5.9519853591918945,-1.9345149993896484,6.892906665802002
1766401983577893600,10.7118935546875,6.873753070831299,-0.6631938815116882,7.419631004333496
1766401983597913300,10.731913330078125,7.371747016906738,1.5849615335464478,7.50582218170166
1766401983607923000,10.7419228515625,6.36378812789917,0.8403648138046265,7.261613845825195
1766401983617932800,10.751932861328125,6.4380083084106445,-0.009576806798577309,7.489062786102295
1766401983627942700,10.761942626953125,5.023035049438477,-0.5889736413955688,8.125920295715332
1766401983637952300,10.7719521484375,5.518634796142578,0.30885201692581177,7.503427982330322
1766401983647962000,10.781962158203125,6.186617374420166,-0.06224924325942993,6.754043102264404
1766401983657972000,10.791971923828125,6.162675380706787,-2.0207061767578125,6.406883716583252
1766401983667981600,10.801981689453125,5.827486991882324,-2.140416383743286,6.435614109039307
1766401983677961000,10.8119609375,5.207388877868652,-1.4101848602294922,6.897695064544678
1766401983698011000,10.832010986328125,4.9368438720703125,1.8076223134994507,5.106832027435303
1766401983708020700,10.842020751953125,6.519411087036133,3.066972494125366,4.3861775398254395
1766401983717999900,10.851999755859374,6.763619899749756,2.1092917919158936,4.596867084503174
1766401983728040200,10.862040283203125,6.315904140472412,0.033518824726343155,5.080495834350586
1766401983738050000,10.872050048828125,6.983886241912842,-1.2713210582733154,5.614402770996094
1766401983768079400,10.902079345703125,8.916007041931152,0.7230489253997803,6.947973251342773
1766401983778089000,10.9120888671875,8.856152534484863,0.7661445140838623,7.201758861541748
1766401983808179500,10.942179443359375,6.320692539215088,-0.3711012601852417,6.873753070831299
1766401983818219800,10.9522197265625,6.303933143615723,-1.2737152576446533,6.967126846313477
1766401983828229400,10.9622294921875,6.007051944732666,-1.3934253454208374,7.084442615509033
1766401983838239200,10.9722392578125,5.56173038482666,-0.8475474119186401,6.88332986831665
1766401983848248800,10.982248779296874,5.875370979309082,-0.23702596127986908,6.703764915466309
1766401983858258700,10.9922587890625,6.466738700866699,-0.6368576288223267,6.933608055114746
1766401983868268500,11.0022685546875,6.933608055114746,-1.2449848651885986,7.16584587097168
1766401983878278100,11.012278076171874,6.785167694091797,-1.4844050407409668,7.527369976043701
1766401983888318500,11.022318359375,6.868964672088623,-1.3527239561080933,7.570465564727783
1766401983898328300,11.032328369140625,6.222530364990234,-1.2234370708465576,7.486668586730957
1766401983908399000,11.042399169921875,5.784391403198242,-2.1499931812286377,7.240066051483154
1766401983918439400,11.052439453125,6.009446144104004,-3.6080620288848877,6.979097843170166
1766401983928449000,11.062448974609374,7.220912456512451,-4.235342979431152,7.228095054626465
1766401983938459000,11.072458984375,7.003039836883545,-3.603273630142212,7.6351094245910645
1766401983948468700,11.08246875,6.294356346130371,-3.138798475265503,7.661445617675781
1766401983958478300,11.092478271484374,6.203376770019531,-2.5234885215759277,7.738059997558594
1766401983968488200,11.10248828125,6.517016887664795,-1.8339585065841675,7.479485988616943
1766401983978498000,11.112498046875,5.992686748504639,-1.8291701078414917,7.189787864685059
1766401984008557800,11.142557861328125,4.989516258239746,-3.268085241317749,6.806715488433838
1766401984018537000,11.152536865234374,5.774814605712891,-3.028665065765381,7.319074630737305
1766401984028546800,11.162546875,6.052541732788086,-2.207453966140747,7.4555439949035645
1766401984038556700,11.172556640625,5.904101371765137,-0.7852981686592102,7.103596210479736
1766401984048596700,11.1825966796875,5.403713226318359,-0.7589619159698486,6.864176273345947
1766401984058606600,11.192606689453125,5.147533416748047,-2.2242133617401123,6.955155849456787
1766401984068616400,11.202616455078125,5.880159378051758,-2.5953147411346436,7.283161640167236
1766401984078626000,11.2126259765625,7.058106422424316,-2.209848165512085,7.208941459655762
1766401984088666400,11.222666259765624,7.462726593017578,-2.0614075660705566,7.161057472229004
1766401984128736000,11.262736083984375,8.329427719116211,-0.5961562395095825,7.412448406219482
1766401984138715100,11.272715087890624,8.161833763122559,-1.173158884048462,7.007828235626221
1766401984148725000,11.28272509765625,8.192957878112793,-1.436521053314209,6.722918510437012
1766401984158734800,11.29273486328125,7.448361396789551,-1.2737152576446533,6.596025466918945
1766401984168744400,11.302744384765624,6.665457725524902,-1.3455413579940796,6.521805286407471
1766401984178723800,11.312723876953125,5.853823184967041,-1.5155296325683594,6.567295074462891
1766401984188733700,11.322733642578125,5.501875400543213,-1.6663644313812256,6.794744491577148
1766401984198743300,11.332743408203125,5.135562419891357,-1.4748282432556152,6.787561893463135
1766401984238782500,11.372782470703125,6.897695064544678,-1.920149803161621,6.658275127410889
1766401984248822800,11.38282275390625,6.399701118469238,-1.5753847360610962,6.766014099121094
1766401984258802000,11.392802001953125,5.633556365966797,-1.6136919260025024,6.825869083404541
1766401984268811800,11.402811767578125,5.676652431488037,-1.9488801956176758,6.9695210456848145
1766401984278821400,11.4128212890625,6.48828649520874,-2.0015525817871094,7.19936466217041
1766401984288831200,11.422831298828125,8.224082946777344,-1.98958158493042,7.3023152351379395
1766401984298810400,11.432810302734374,8.034940719604492,-2.1308395862579346,7.359776020050049
1766401984318830000,11.452830078125,7.105990409851074,-1.4939818382263184,6.66785192489624
1766401984338849500,11.472849609375,5.899312973022461,-1.7334020137786865,7.127538681030273
1766401984348889900,11.482889892578125,6.2416839599609375,-1.9393033981323242,7.216124057769775
1766401984358899700,11.492899658203125,6.9455790519714355,-1.9153614044189453,7.129932880401611
1766401984368909300,11.502909423828125,8.070854187011719,-1.3239935636520386,6.775590896606445
1766401984378919200,11.512919189453125,7.903259754180908,-1.139639973640442,6.806715488433838
1766401984388959500,11.52295947265625,7.386112213134766,-1.4317326545715332,6.71334171295166
1766401984398969000,11.532968994140624,7.33583402633667,-1.5466543436050415,6.478709697723389
1766401984428968000,11.562968017578125,7.307103633880615,-2.013523578643799,6.9240312576293945
1766401984458997200,11.592997314453125,7.441178798675537,-1.5729905366897583,6.452373504638672
1766401984469007000,11.603007080078125,6.710947513580322,-1.6687586307525635,6.5050458908081055
1766401984478986200,11.612986328125,6.610390663146973,-1.7286136150360107,6.653486728668213
1766401984488996000,11.62299609375,6.768408298492432,-1.8770540952682495,6.847416877746582
1766401984499005700,11.633005615234374,6.916848659515381,-2.099714994430542,6.97430944442749
1766401984509015600,11.643015625,7.448361396789551,-1.922544002532959,7.005434036254883
1766401984519025400,11.653025390625,7.68538761138916,-1.9776105880737305,7.201758861541748
1766401984529065700,11.663065673828125,7.292738437652588,-2.1715409755706787,7.2568254470825195
1766401984539075300,11.673075439453125,6.9695210456848145,-2.1308395862579346,7.194576263427734
1766401984549085200,11.683085205078125,6.761225700378418,-2.0446481704711914,7.113173484802246
1766401984559094800,11.6930947265625,6.675034523010254,-1.944091796875,7.3454108238220215
1766401984569135000,11.703135009765624,6.943184852600098,-1.6927006244659424,7.491456985473633
1766401984579145000,11.71314501953125,6.852205276489258,-1.867477297782898,7.405265808105469
1766401984589154800,11.72315478515625,6.979097843170166,-1.7166426181793213,7.316680431365967
1766401984599164400,11.733164306640624,6.739677906036377,-1.6280571222305298,7.249642848968506
1766401984609204700,11.743204833984375,6.481103897094727,-1.8722656965255737,7.436390399932861
1766401984629255000,11.7632548828125,6.852205276489258,-1.8148049116134644,7.467514991760254
1766401984649274400,11.7832744140625,7.180211067199707,-1.7621324062347412,7.230489253997803
1766401984659284200,11.7932841796875,6.876147270202637,-1.9704279899597168,7.354987621307373
1766401984669293800,11.8032939453125,6.641515731811523,-1.9991583824157715,7.311892032623291
1766401984679303700,11.8133037109375,6.567295074462891,-1.6855180263519287,7.127538681030273
1766401984689313300,11.823313232421874,6.114790916442871,-1.3838485479354858,7.177816867828369
1766401984699292700,11.833292724609375,6.007051944732666,-1.501164436340332,7.060500621795654
1766401984709302500,11.843302490234375,6.14831018447876,-1.479616641998291,7.029376029968262
1766401984729322000,11.863322021484375,6.0621185302734375,-1.6424223184585571,7.304709434509277
1766401984739331800,11.873331787109375,5.817910194396973,-1.4987702369689941,7.304709434509277
1766401984749372000,11.883371826171874,5.944802761077881,-2.121262788772583,7.268796443939209
1766401984759381800,11.8933818359375,6.236895561218262,-2.6839001178741455,7.532158374786377
1766401984769391600,11.9033916015625,6.260837554931641,-2.4181437492370605,7.417236804962158
1766401984779401200,11.913401123046874,6.179434776306152,-1.845929503440857,7.187393665313721
1766401984789411000,11.9234111328125,5.899312973022461,-1.0007762908935547,6.909666061401367
1766401984799421000,11.9334208984375,5.899312973022461,-1.0007762908935547,6.909666061401367
1766401984809461000,11.9434609375,5.623979568481445,-0.3902548849582672,6.921637058258057
1766401984819440400,11.9534404296875,5.250484466552734,-0.5961562395095825,7.101202011108398
1766401984849469700,11.9834697265625,6.718130111694336,-3.205836057662964,7.419631004333496
1766401984859448800,11.99344873046875,6.813898086547852,-2.691082715988159,7.113173484802246
1766401984869458700,12.003458740234375,6.756437301635742,-1.3766659498214722,7.0126166343688965
1766401984879468500,12.013468505859375,6.011840343475342,-1.256955862045288,6.967126846313477
1766401984889478100,12.02347802734375,6.210559368133545,-1.702277421951294,6.892906665802002
1766401984899488000,12.033488037109375,6.938396453857422,-2.492363929748535,6.830657482147217
1766401984909497900,12.043497802734375,7.2568254470825195,-2.920926094055176,6.5696892738342285
1766401984919507500,12.053507568359375,7.110779285430908,-1.8602946996688843,6.3518171310424805
1766401984949536800,12.083536865234375,6.993463039398193,-2.4684219360351562,6.382941722869873
1766401984959546600,12.093546630859375,7.568071365356445,-3.2345664501190186,6.3733649253845215
1766401984969556200,12.10355615234375,7.838616371154785,-3.1196448802948,6.399701118469238
1766401984979566000,12.113566162109375,7.891288757324219,-2.784456491470337,6.469132900238037
1766401984989576000,12.123575927734375,7.654263019561768,-2.43011474609375,6.84981107711792
1766401984999585500,12.13358544921875,6.98628044128418,-2.7293899059295654,6.9910688400268555
1766401985009595400,12.143595458984375,6.5050458908081055,-2.8395233154296875,6.8809356689453125
1766401985019574500,12.153574462890624,6.074089527130127,-2.674323320388794,6.687005519866943
1766401985039594200,12.17359423828125,7.115567684173584,-2.38462495803833,6.830657482147217
1766401985049603800,12.183603759765624,8.152256965637207,-3.00711727142334,7.017405033111572
1766401985059613700,12.19361376953125,7.936778545379639,-2.983175277709961,7.42681360244751
1766401985069623600,12.20362353515625,6.433219909667969,-3.445256233215332,7.570465564727783
1766401985079633200,12.213633056640624,5.494692802429199,-3.337517261505127,7.173028469085693
1766401985089643000,12.22364306640625,4.261679172515869,-2.2457611560821533,6.648698329925537
1766401985099652900,12.23365283203125,5.063736438751221,-2.2409727573394775,5.920860767364502
1766401985119672300,12.25367236328125,6.718130111694336,-3.754108190536499,7.773972988128662
1766401985149701600,12.28370166015625,5.542576789855957,-3.691859006881714,7.230489253997803
1766401985159711200,12.293711181640624,6.378153324127197,-2.9664158821105957,7.151480674743652
1766401985169721000,12.30372119140625,6.2416839599609375,-3.1699230670928955,7.532158374786377
1766401985179731000,12.31373095703125,6.519411087036133,-2.889801502227783,7.316680431365967
1766401985189740500,12.323740478515624,6.497863292694092,-3.0621838569641113,7.038952827453613
1766401985199750400,12.33375048828125,6.368576526641846,-3.268085241317749,7.048529624938965
1766401985209760300,12.34376025390625,5.875370979309082,-3.8762125968933105,7.046135425567627
1766401985219739400,12.353739501953125,5.461174011230469,-3.557783842086792,6.54574728012085
1766401985259778600,12.393778564453125,7.347805023193359,-3.1866824626922607,5.801150798797607
1766401985269819000,12.40381884765625,6.71334171295166,-2.6671407222747803,5.571307182312012
1766401985279828500,12.413828369140624,5.485116004943848,-1.886630892753601,5.647922039031982
1766401985289868800,12.423868896484375,5.250484466552734,-1.6687586307525635,5.810727596282959
1766401985299878700,12.433878662109375,4.876988887786865,-2.3295583724975586,6.100425720214844
1766401985309888300,12.44388818359375,5.30076265335083,-2.518700122833252,6.124367713928223
1766401985319898000,12.453898193359375,5.157110691070557,-2.43011474609375,5.978321552276611
1766401985329938400,12.4639384765625,4.67827033996582,-2.47560453414917,5.547365188598633
1766401985370008000,12.504008056640625,4.417302131652832,-1.3766659498214722,5.628767967224121
1766401985380017700,12.514017578125,4.489128112792969,-1.8076223134994507,5.56173038482666
1766401985390058000,12.52405810546875,4.685452938079834,-1.2473790645599365,5.659893035888672
1766401985400037400,12.534037353515625,4.517858505249023,-1.1755530834197998,5.566518783569336
1766401985410047000,12.544046875,4.8267107009887695,-1.4772224426269531,5.549759387969971
1766401985420056800,12.554056884765625,5.020640850067139,-2.1523873805999756,5.52821159362793
1766401985430066700,12.564066650390625,5.286397457122803,-2.3367409706115723,5.509057998657227
1766401985440076300,12.574076171875,5.003881454467773,-2.2409727573394775,5.616796970367432
1766401985460096000,12.594095947265625,5.2265424728393555,-2.049436569213867,5.568912982940674
1766401985490094600,12.624094482421874,6.030993938446045,-2.959233283996582,5.274426460266113
1766401985500104400,12.6341044921875,7.180211067199707,-2.8155810832977295,5.5114521980285645
1766401985510114300,12.6441142578125,7.06528902053833,-2.5905263423919678,5.686229228973389
1766401985520124000,12.6541240234375,6.658275127410889,-2.3702597618103027,5.870582580566406
1766401985530133800,12.6641337890625,6.572083473205566,-2.5330653190612793,5.817910194396973
1766401985540143400,12.674143310546874,6.354211330413818,-2.5115175247192383,5.7772088050842285
1766401985550153200,12.6841533203125,6.7277069091796875,-2.6001031398773193,5.501875400543213
1766401985590162000,12.724161865234375,7.580042362213135,-2.4133553504943848,6.557718276977539
1766401985600141000,12.73414111328125,7.671022415161133,-2.693476915359497,6.615179061889648
1766401985610181400,12.744181396484375,7.603984832763672,-3.1028854846954346,6.6846113204956055
1766401985620191000,12.75419091796875,7.864952564239502,-3.155557870864868,6.842628479003906
1766401985630200800,12.764200927734375,7.948749542236328,-3.1699230670928955,7.072471618652344
1766401985640180200,12.77418017578125,8.14028549194336,-3.2417490482330322,7.5632829666137695
1766401985670270500,12.8042705078125,7.718906402587891,-2.918531894683838,8.580819129943848
1766401985680249600,12.81424951171875,7.975085735321045,-2.8850131034851074,8.841787338256836
1766401985690290000,12.8242900390625,8.027758598327637,-2.9328970909118652,9.126696586608887
1766401985700299800,12.8342998046875,7.9415669441223145,-3.1914708614349365,9.272743225097656
1766401985710309400,12.844309326171874,7.891288757324219,-3.622427225112915,9.172186851501465
1766401985720288800,12.854288818359375,8.300697326660156,-3.9169139862060547,9.162610054016113
1766401985740338700,12.874338623046874,8.401253700256348,-3.706224203109741,8.633491516113281
1766401985750348500,12.8843486328125,8.683769226074219,-3.3231520652770996,8.362946510314941
1766401985770398700,12.904398681640625,8.35097599029541,-2.7030537128448486,7.680599212646484
1766401985780408300,12.914408203125,8.585607528686523,-2.717418909072876,7.259219646453857
1766401985790418200,12.924418212890625,8.635885238647461,-2.5330653190612793,7.041347026824951
1766401985800428000,12.934427978515625,9.08838939666748,-2.250549554824829,6.763619899749756
1766401985810437600,12.944437744140625,9.260771751403809,-1.9033904075622559,6.775590896606445
1766401985820447500,12.954447509765625,9.033323287963867,-1.9369091987609863,6.952761650085449
1766401985830457000,12.96445703125,9.114726066589355,-1.8411411046981812,6.950367450714111
1766401985840497400,12.974497314453124,9.20091724395752,-1.6496049165725708,6.619967937469482
1766401985850446300,12.9844462890625,9.006986618041992,-1.9608511924743652,6.471527099609375
1766401985860425500,12.994425537109375,8.975862503051758,-1.5083470344543457,6.447585105895996
1766401985900495000,13.0344951171875,8.252813339233398,-2.1068975925445557,6.4380083084106445
1766401985910535400,13.044535400390625,8.08282470703125,-2.078166961669922,6.555324077606201
1766401985920545000,13.054544921875,7.5201873779296875,-2.1164743900299072,6.651092529296875
1766401985930615800,13.06461572265625,7.058106422424316,-2.315192937850952,6.655880928039551
1766401985940625700,13.074625732421875,6.799532890319824,-2.717418909072876,6.646304130554199
1766401985960614700,13.09461474609375,6.205770969390869,-1.8124107122421265,6.794744491577148
1766401985990705000,13.124704833984374,5.901707172393799,-1.702277421951294,6.6391215324401855
1766401986000684300,13.134684326171875,6.007051944732666,-1.6184803247451782,6.763619899749756
1766401986010724600,13.144724609375,5.406107425689697,-1.5658079385757446,6.677428722381592
1766401986020734200,13.154734130859374,5.279214859008789,-1.4317326545715332,6.392518520355225
1766401986030744000,13.164744140625,5.307945251464844,-1.3072341680526733,6.291962146759033
1766401986040754000,13.17475390625,5.398924827575684,-1.2330138683319092,6.282385349273682
1766401986050794200,13.184794189453125,5.585672378540039,-1.0869675874710083,6.303933143615723
1766401986060773400,13.1947734375,5.638344764709473,-1.357512354850769,6.473921298980713
1766401986070783200,13.204783203125,5.635950565338135,-1.4293384552001953,6.440402507781982
1766401986110822100,13.244822265625,5.394136428833008,-1.3431471586227417,6.007051944732666
1766401986120770800,13.254770751953124,5.674258232116699,-1.6663644313812256,6.016628742218018
1766401986130811100,13.26481103515625,5.6910176277160645,-1.824381709098816,6.14831018447876
1766401986140821000,13.274821044921875,5.7556610107421875,-1.8100165128707886,6.045359134674072
1766401986150830800,13.284830810546875,5.822698593139648,-1.742978811264038,6.021417140960693
1766401986160779500,13.294779541015625,5.542576789855957,-1.968033790588379,5.987898349761963
1766401986170819800,13.30481982421875,5.3582234382629395,-2.0159177780151367,5.913678169250488
1766401986190839300,13.32483935546875,5.556941986083984,-2.2577321529388428,5.983109951019287
1766401986200849200,13.33484912109375,5.748478412628174,-2.518700122833252,6.210559368133545
1766401986210889200,13.34488916015625,5.770026206970215,-2.801215887069702,6.138733386993408
1766401986220868600,13.35486865234375,5.714959621429443,-2.6671407222747803,6.090848922729492
1766401986230939400,13.364939453125,5.497087001800537,-2.52109432220459,5.916072368621826
1766401986240918500,13.37491845703125,5.370194435119629,-2.4396915435791016,5.7125654220581055
1766401986250958800,13.384958740234374,5.604825973510742,-2.5474305152893066,5.583278179168701
1766401986260968700,13.39496875,5.78678560256958,-2.741360902786255,5.688623428344727
1766401986271009000,13.405009033203125,5.722142219543457,-2.942473888397217,5.7556610107421875
1766401986280988200,13.41498828125,5.880159378051758,-3.1268274784088135,5.659893035888672
1766401986291028500,13.425028564453125,5.822698593139648,-3.2417490482330322,5.5545477867126465
1766401986311048000,13.4450478515625,5.9519853591918945,-3.1531636714935303,5.231330871582031
1766401986321057800,13.455057861328125,6.1315507888793945,-3.1962592601776123,5.307945251464844
1766401986331037000,13.465036865234374,6.404489517211914,-3.313575267791748,5.329493045806885
1766401986341046800,13.475046875,6.62236213684082,-3.464409828186035,5.16429328918457
1766401986351056600,13.485056640625,6.730101108551025,-3.442862033843994,5.1116204261779785
1766401986361066200,13.495066162109374,6.976703643798828,-3.2800562381744385,5.240907669067383
1766401986371076000,13.505076171875,7.264008045196533,-3.2776620388031006,5.4252610206604
1766401986381086000,13.5150859375,7.33583402633667,-3.5673606395721436,5.564124584197998
1766401986391126300,13.525126220703125,7.307103633880615,-3.7708675861358643,5.353435039520264
1766401986421124900,13.555124755859374,7.759607791900635,-4.266467571258545,5.621585369110107
1766401986431134700,13.565134765625,8.034940719604492,-4.568136692047119,5.9735331535339355
1766401986441113900,13.57511376953125,8.200140953063965,-4.671087741851807,6.22731876373291
1766401986451154200,13.585154296875,8.085219383239746,-4.790797710418701,6.3949127197265625
1766401986461164000,13.5951640625,8.461109161376953,-4.972756862640381,6.299144744873047
1766401986471173600,13.605173583984374,8.554482460021973,-4.833893299102783,6.050147533416748
1766401986481183500,13.61518359375,8.576030731201172,-4.661510944366455,5.892130374908447
1766401986491193300,13.625193359375,8.580819129943848,-4.496310710906982,5.858611583709717
1766401986501172500,13.63517236328125,8.62630844116211,-4.807557106018066,5.961562156677246
1766401986511182300,13.645182373046875,8.741230010986328,-5.130774021148682,6.004657745361328
1766401986521161500,13.655161376953124,8.978256225585938,-5.281609058380127,5.875370979309082
1766401986531201800,13.665201904296875,8.75080680847168,-5.3342814445495605,5.813121795654297
1766401986541211600,13.675211669921875,8.633491516113281,-5.2480902671813965,5.69580602645874
1766401986551221200,13.68522119140625,8.686163902282715,-5.245696067810059,5.583278179168701
1766401986561200600,13.69520068359375,8.772355079650879,-5.276820659637451,5.51624059677124
1766401986571271400,13.705271484375,8.597578048706055,-5.317522048950195,5.461174011230469
1766401986581281300,13.71528125,8.487444877624512,-5.396530628204346,5.355829238891602
1766401986591321300,13.7253212890625,8.374917984008789,-5.427655220031738,5.216965675354004
1766401986601331200,13.735331298828125,8.418013572692871,-5.4013190269470215,5.434837818145752
1766401986611371500,13.74537158203125,8.271966934204102,-5.298368453979492,5.590460777282715
1766401986621381400,13.75538134765625,8.152256965637207,-5.169081687927246,5.56173038482666
1766401986631391000,13.765390869140624,8.001421928405762,-5.166687488555908,5.590460777282715
1766401986641400800,13.77540087890625,7.726089000701904,-5.360617637634277,5.789179801940918
1766401986651441200,13.785441162109375,7.5968017578125,-5.288791656494141,5.837063789367676
1766401986661450800,13.79545068359375,7.7428483963012695,-5.432443618774414,5.784391403198242
1766401986671460600,13.805460693359375,7.575253963470459,-5.439626216888428,6.129156112670898
1766401986681409300,13.8154091796875,7.6566572189331055,-5.329493045806885,6.033388137817383
1766401986691449600,13.82544970703125,7.577648162841797,-4.9152960777282715,5.940014362335205
1766401986701459500,13.83545947265625,7.450755596160889,-4.929661273956299,5.918466567993164
1766401986711469000,13.845468994140624,7.319074630737305,-4.6950297355651855,5.856217384338379
1766401986721448400,13.855448486328125,7.371747016906738,-4.441244125366211,5.772420406341553
1766401986741529000,13.875529052734375,7.424419403076172,-4.3861775398254395,5.980715751647949
1766401986751538700,13.88553857421875,7.733271598815918,-4.410119533538818,6.004657745361328
1766401986761548500,13.895548583984375,7.982268333435059,-4.264073371887207,5.992686748504639
1766401986771558400,13.905558349609375,7.881711959838867,-4.228160381317139,5.932831764221191
1766401986781568000,13.915568115234375,7.903259754180908,-4.14915132522583,5.686229228973389
1766401986791577900,13.925577880859375,7.733271598815918,-3.976768970489502,5.602431774139404
1766401986801587500,13.93558740234375,7.694964408874512,-3.952826976776123,5.386953830718994
1766401986811627800,13.945627685546874,7.608773231506348,-3.732560396194458,5.118803024291992
1766401986841626600,13.975626708984375,7.9415669441223145,-3.114856481552124,5.365406036376953
1766401986851667000,13.9856669921875,7.85537576675415,-3.0358476638793945,5.250484466552734
1766401986861676800,13.9956767578125,7.869740962982178,-3.138798475265503,5.149928092956543
1766401986871686400,14.005686279296874,7.996633529663086,-3.44765043258667,5.085284233093262
1766401986881665800,14.015665771484375,7.996633529663086,-3.44765043258667,5.085284233093262
1766401986891736600,14.025736572265625,8.10437297821045,-3.354276657104492,5.027823448181152
1766401986901746200,14.03574609375,8.178592681884766,-3.0861260890960693,4.8602294921875
1766401986911756000,14.045756103515625,7.783549785614014,-2.760514497756958,5.063736438751221
1766401986921766000,14.055765869140625,7.582436561584473,-2.7988216876983643,5.331887245178223
1766401986941785300,14.075785400390625,7.163451671600342,-2.4636335372924805,5.30076265335083
1766401986981824500,14.115824462890625,6.854599475860596,-1.8411411046981812,6.478709697723389
1766401987001844000,14.135843994140625,6.256049156188965,-2.343923568725586,6.2392897605896
1766401987011884300,14.14588427734375,6.339846134185791,-2.607285737991333,6.023811340332031
1766401987021894000,14.155893798828124,6.342240333557129,-2.6575639247894287,5.846640586853027
1766401987031934200,14.165934326171875,6.229712963104248,-2.7437551021575928,5.789179801940918
1766401987041913600,14.17591357421875,6.308721542358398,-2.7988216876983643,5.884947776794434
1766401987061933000,14.19593310546875,6.497863292694092,-2.4636335372924805,6.2201361656188965
1766401987071943000,14.20594287109375,6.574477672576904,-2.3104045391082764,6.325480937957764
1766401987081952500,14.215952392578124,6.481103897094727,-2.293645143508911,6.4834980964660645
1766401987091992800,14.225992919921875,6.31829833984375,-2.319981336593628,6.473921298980713
1766401987101972000,14.235971923828124,6.347028732299805,-2.2649147510528564,6.3733649253845215
1766401987111981800,14.24598193359375,6.447585105895996,-2.2816741466522217,6.279991149902344
1766401987121991700,14.25599169921875,6.5696892738342285,-2.296039342880249,6.435614109039307
1766401987132032000,14.266031982421875,6.8593878746032715,-2.456450939178467,6.430825710296631
1766401987142041600,14.27604150390625,6.75883150100708,-2.4684219360351562,6.447585105895996
1766401987152051500,14.286051513671875,6.615179061889648,-2.389413356781006,6.3973069190979
1766401987162030600,14.296030517578124,6.62236213684082,-2.1523873805999756,6.378153324127197
1766401987172101400,14.306101318359374,6.665457725524902,-1.843535304069519,6.258443355560303
1766401987182111200,14.316111328125,6.339846134185791,-1.359906554222107,6.069301128387451
1766401987192151600,14.326151611328125,6.035782337188721,-1.1492167711257935,5.8203043937683105
1766401987202161400,14.336161376953125,5.913678169250488,-1.1516109704971313,5.70777702331543
1766401987212171000,14.3461708984375,5.78678560256958,-0.9911994934082031,5.564124584197998
1766401987222180900,14.356180908203125,5.849034786224365,-0.569819986820221,5.633556365966797
1766401987232221200,14.36622119140625,6.102819919586182,-0.33518823981285095,5.832275390625
1766401987242230800,14.376230712890624,6.478709697723389,-0.5123591423034668,6.260837554931641
1766401987272260000,14.406260009765624,6.737283706665039,-1.2665326595306396,6.801927089691162
1766401987282270000,14.41627001953125,6.9695210456848145,-1.4173674583435059,6.926425457000732
1766401987292340700,14.4263408203125,7.072471618652344,-1.6663644313812256,7.146692276000977
1766401987302350600,14.4363505859375,7.362170219421387,-1.9800047874450684,7.151480674743652
1766401987312391000,14.446390869140625,7.771578788757324,-2.3080103397369385,7.1706342697143555
1766401987322431000,14.456430908203124,8.14028549194336,-2.676717519760132,7.058106422424316
1766401987332440800,14.46644091796875,8.547300338745117,-2.8826189041137695,6.845022678375244
1766401987342450700,14.47645068359375,8.87291145324707,-3.064578056335449,6.40927791595459
1766401987352460300,14.486460205078124,9.224859237670898,-3.023876667022705,5.779603004455566
1766401987372510500,14.506510498046875,9.962273597717285,-3.7900211811065674,5.310339450836182
1766401987382520000,14.51652001953125,10.199298858642578,-3.9432501792907715,5.0876784324646
1766401987392560400,14.526560302734374,10.527304649353027,-4.290409564971924,4.788403511047363
1766401987402570200,14.5365703125,10.745177268981934,-4.355052947998047,4.726154327392578
1766401987412580000,14.546580078125,10.769119262695312,-4.311957359313965,4.654327869415283
1766401987422559200,14.556559326171875,10.36449909210205,-4.414907932281494,4.778826713562012
1766401987432569000,14.566569091796875,10.096348762512207,-4.520252704620361,4.807557106018066
1766401987442578700,14.57657861328125,10.041281700134277,-4.14915132522583,4.802768707275391
1766401987452619000,14.586618896484374,10.381258964538574,-4.017470359802246,4.76924991607666
1766401987462628900,14.59662890625,10.65898609161377,-4.335899353027344,4.817133903503418
1766401987472638700,14.606638671875,10.596736907958984,-4.702212333679199,4.98472785949707
1766401987482648300,14.6166484375,10.29746150970459,-5.094861030578613,5.07570743560791
1766401987492658200,14.626658203125,9.93593692779541,-5.286397457122803,5.236119270324707
1766401987502667800,14.636667724609374,9.746794700622559,-5.183446884155273,5.288791656494141
1766401987512708000,14.6467080078125,9.646238327026367,-4.975151062011719,5.492298603057861
1766401987522718000,14.656718017578125,9.653421401977539,-4.884171485900879,5.60722017288208
1766401987532727800,14.666727783203125,9.126696586608887,-5.298368453979492,5.600037574768066
1766401987542737400,14.6767373046875,9.011775016784668,-5.714959621429443,5.39174222946167
1766401987552747300,14.686747314453125,8.789113998413086,-5.585672378540039,5.104437828063965
1766401987562726400,14.696726318359374,8.508993148803711,-5.023035049438477,4.886565685272217
1766401987572766700,14.7067666015625,8.188169479370117,-4.551377296447754,4.843470096588135
1766401987582776600,14.716776611328125,8.1139497756958,-4.359841346740723,4.778826713562012
1766401987592786400,14.726786376953125,8.1139497756958,-4.359841346740723,4.778826713562012
1766401987602796000,14.736796142578125,7.951143741607666,-4.225766181945801,4.501099109649658
1766401987612806000,14.746805908203125,7.350199222564697,-4.098873138427734,4.309563159942627
1766401987622815500,14.7568154296875,7.048529624938965,-3.8115692138671875,4.256890773773193
1766401987632825300,14.766825439453125,6.777985095977783,-3.557783842086792,4.395754337310791
1766401987642804700,14.7768046875,6.777985095977783,-3.3446998596191406,4.513070106506348
1766401987652844800,14.7868447265625,6.782773494720459,-3.378218650817871,4.616020679473877
1766401987662824200,14.79682421875,6.596025466918945,-3.533841609954834,4.72376012802124
1766401987682874000,14.8168740234375,6.016628742218018,-3.3494882583618164,4.891354084014893
1766401987692884000,14.826884033203125,5.698200225830078,-3.071760892868042,4.747702121734619
1766401987702863000,14.836863037109374,5.501875400543213,-3.0765492916107178,4.594472885131836
1766401987712873000,14.846873046875,5.398924827575684,-3.1028854846954346,4.54419469833374
1766401987722882800,14.8568828125,5.4444146156311035,-3.1699230670928955,4.548983097076416
1766401987732892400,14.866892333984374,5.717353820800781,-3.251325845718384,4.654327869415283
1766401987742871800,14.876871826171875,5.65031623840332,-3.1675288677215576,4.663905143737793
1766401987752881400,14.88688134765625,5.485116004943848,-3.1028854846954346,4.608838081359863
1766401987762891300,14.896891357421875,5.322310447692871,-2.7317841053009033,4.594472885131836
1766401987782910700,14.91691064453125,4.95120906829834,-2.31758713722229,4.338293552398682
1766401987792920600,14.926920654296875,5.027823448181152,-2.387019157409668,4.446032524108887
1766401987802930400,14.936930419921875,5.169081687927246,-2.451662540435791,4.680664539337158
1766401987813001200,14.947001220703125,5.418078422546387,-2.6599581241607666,4.8722004890441895
1766401987823010800,14.9570107421875,5.43723201751709,-2.8203697204589844,4.9799394607543945
1766401987833020700,14.967020751953125,5.451597213745117,-2.983175277709961,5.190629482269287
1766401987843030500,14.977030517578125,5.142745018005371,-3.0837318897247314,4.975151062011719
1766401987853040000,14.9870400390625,4.98472785949707,-3.1459810733795166,4.819528102874756
1766401987863050000,14.997050048828125,5.236119270324707,-3.0166940689086914,4.73573112487793
1766401987883069400,15.0170693359375,5.746084213256836,-3.3662476539611816,4.812345504760742
1766401987893079300,15.027079345703125,6.50025749206543,-3.7229835987091064,4.994304656982422
1766401987913068300,15.047068359375,6.519411087036133,-3.670311212539673,4.850652694702148
1766401987923078100,15.057078125,6.392518520355225,-3.7445313930511475,4.6950297355651855
