time,seconds_elapsed,z,y,x
1766401971777914400,-1.088085693359375,-0.014365210197865963,-0.5027823448181152,0.10534487664699554
1766401971797964500,-1.068035400390625,-0.009576806798577309,0.40222588181495667,0.0933738648891449
1766401971807974100,-1.05802587890625,0.10773907601833344,0.7493851184844971,0.3519476354122162
1766401971828024300,-1.0379755859375,0.040701430290937424,0.090979665517807,0.009576806798577309
1766401971838034000,-1.027966064453125,-0.05027823522686958,0.021547814831137657,-0.1388636976480484
1766401971848043800,-1.017956298828125,0.016759412363171577,0.14844051003456116,-0.021547814831137657
1766401971858084000,-1.007916015625,-0.002394201699644327,0.016759412363171577,-0.1843535304069519
1766401971868124400,-0.99787548828125,0.06464344263076782,-0.043095629662275314,-0.08379705995321274
1766401971888204800,-0.977795166015625,0.08619125932455063,0,-0.06224924325942993
1766401971918234000,-0.947765869140625,0.22505496442317963,0.1628057211637497,-0.011971008032560349
1766401971928244000,-0.937756103515625,0.16759411990642548,0.040701430290937424,-0.06224924325942993
1766401971938253800,-0.92774609375,0.19153612852096558,0.002394201699644327,0.035913024097681046
1766401971948263400,-0.917736572265625,0.1628057211637497,0.1364694982767105,-0.011971008032560349
1766401971958303700,-0.9076962890625,0.16519992053508759,0.10295066982507706,0.06464344263076782
1766401971968344000,-0.897656005859375,0.1364694982767105,-0.038307227194309235,-0.1173158809542656
1766401971988363500,-0.877636474609375,0.19393034279346466,0.21787235140800476,0.004788403399288654
1766401971998373400,-0.867626708984375,0.10773907601833344,0.021547814831137657,0.07422025501728058
1766401972008383200,-0.85761669921875,0.06464344263076782,-0.1628057211637497,-0.2059013396501541
1766401972038412500,-0.82758740234375,0.16759411990642548,0.12449848651885986,-0.09576806426048279
1766401972058432000,-0.807568115234375,0.23702596127986908,0.009576806798577309,-0.10773907601833344
1766401972068441600,-0.797558349609375,0.20350714027881622,-0.07900865375995636,-0.10773907601833344
1766401972078451500,-0.787548583984375,0.08619125932455063,-0.09816227108240128,-0.002394201699644327
1766401972088461300,-0.77753857421875,0.011971008032560349,-0.05267243832349777,-0.09576806426048279
1766401972098501600,-0.767498291015625,-0.06224924325942993,0.14365209639072418,-0.09816227108240128
1766401972108541700,-0.757458251953125,0.10295066982507706,0.1412578970193863,0.07422025501728058
1766401972128561400,-0.7374384765625,0.19153612852096558,-0.019153613597154617,-0.031124621629714966
1766401972148580900,-0.717419189453125,0.19871874153614044,0.14604631066322327,0.181959331035614
1766401972158621200,-0.70737890625,0.19632454216480255,0.12449848651885986,0.043095629662275314
1766401972168600300,-0.697399658203125,0.24181437492370605,0,-0.08858546614646912
1766401972178610200,-0.687389892578125,0.3208230137825012,-0.12689268589019775,-0.1388636976480484
1766401972188620000,-0.6773798828125,0.2322375625371933,-0.2059013396501541,0.016759412363171577
1766401972198629600,-0.667370361328125,0.15562310814857483,-0.08858546614646912,-0.05506663769483566
1766401972208609000,-0.657390869140625,0.10534487664699554,0.05985504388809204,0.011971008032560349
1766401972238699300,-0.62730078125,0.05985504388809204,0.181959331035614,-0.004788403399288654
1766401972248709000,-0.617290771484375,0.05267243832349777,0.17956513166427612,0.07900865375995636
1766401972258718700,-0.60728125,-0.021547814831137657,0.2561795711517334,0.002394201699644327
1766401972268728600,-0.597271484375,-0.08858546614646912,0.07422025501728058,-0.002394201699644327
1766401972278769000,-0.587231201171875,-0.10055647045373917,0.033518824726343155,-0.07661445438861847
1766401972288748000,-0.577251953125,-0.026336219161748886,-0.16998831927776337,-0.19871874153614044
1766401972298788400,-0.567211669921875,0.0454898327589035,-0.17956513166427612,-0.08140286058187485
1766401972338827500,-0.52717236328125,0.1173158809542656,0.002394201699644327,0.011971008032560349
1766401972348867800,-0.517132080078125,0.09576806426048279,-0.07661445438861847,0.031124621629714966
1766401972358877400,-0.50712255859375,0.13168109953403473,0.0933738648891449,0.031124621629714966
1766401972368856800,-0.49714306640625,0.17956513166427612,0.07661445438861847,0.1173158809542656
1766401972378836000,-0.4871640625,0.12928688526153564,-0.0071826050989329815,-0.0071826050989329815
1766401972398886100,-0.46711376953125,0.15562310814857483,0.11013327538967133,-0.026336219161748886
1766401972408865300,-0.457134765625,0.0694318488240242,-0.009576806798577309,0
1766401972418875100,-0.447124755859375,0.10295066982507706,-0.028730420395731926,0.016759412363171577
1766401972448904400,-0.417095458984375,0.30885201692581177,0.16998831927776337,0.08619125932455063
1766401972458914000,-0.4070859375,0.3064578175544739,0.19393034279346466,0.07900865375995636
1766401972468924000,-0.397076171875,0.2346317619085312,0,-0.028730420395731926
1766401972488943400,-0.377056640625,0.181959331035614,-0.05506663769483566,-0.09816227108240128
1766401972498922800,-0.3670771484375,0.1843535304069519,-0.13168109953403473,-0.12928688526153564
1766401972508963000,-0.357036865234375,0.15322890877723694,-0.11252748221158981,-0.028730420395731926
1766401972569021400,-0.296978515625,0.09576806426048279,0,-0.10295066982507706
1766401972579061800,-0.286938232421875,-0.090979665517807,0.07182604819536209,0.019153613597154617
1766401972589071600,-0.276928466796875,-0.090979665517807,0.22266076505184174,0.004788403399288654
1766401972599050800,-0.26694921875,-0.038307227194309235,0.18914192914962769,-0.05027823522686958
1766401972619039700,-0.246960205078125,0.06464344263076782,-0.14365209639072418,-0.12689268589019775
1766401972659079000,-0.206921142578125,0.1604115068912506,-0.11971008777618408,0.08140286058187485
1766401972669088800,-0.1969111328125,0.18914192914962769,-0.10534487664699554,-0.035913024097681046
1766401972679098400,-0.186901611328125,0.2513911724090576,-0.06464344263076782,0.05267243832349777
1766401972689108200,-0.176891845703125,0.21547815203666687,0.1628057211637497,0.1149216815829277
1766401972699118000,-0.1668818359375,0.22266076505184174,0.1412578970193863,0.12210428714752197
1766401972709127700,-0.156872314453125,0.12928688526153564,-0.0694318488240242,0
1766401972719107000,-0.146892822265625,0.15322890877723694,0.0694318488240242,0.06224924325942993
1766401972739126500,-0.12687353515625,0.13407529890537262,-0.05267243832349777,0
1766401972779135000,-0.086864990234375,0.1867477297782898,0.0933738648891449,0.040701430290937424
1766401972789175300,-0.07682470703125,0.16759411990642548,-0.038307227194309235,-0.07182604819536209
1766401972799185200,-0.06681494140625,0.15322890877723694,-0.090979665517807,-0.10534487664699554
1766401972809133800,-0.0568662109375,0.15083470940589905,-0.22505496442317963,0.002394201699644327
1766401972819174100,-0.046825927734375,0.11252748221158981,-0.1628057211637497,-0.0454898327589035
1766401972829153300,-0.0368466796875,0.13407529890537262,-0.13407529890537262,0.031124621629714966
1766401972839193600,-0.026806396484375,0.17238251864910126,-0.1364694982767105,0.011971008032560349
1766401972849173000,-0.016826904296875,0.10295066982507706,0.026336219161748886,0
1766401972899252200,0.033252197265625,0.12928688526153564,-0.14844051003456116,0.016759412363171577
1766401972919271700,0.053271728515625,0.20350714027881622,-0.004788403399288654,-0.06464344263076782
1766401972954336500,0.08833642578125,0.043095629662275314,0.10295066982507706,0.07661445438861847
1766401972964346400,0.098346435546875,0.0694318488240242,-0.181959331035614,0.014365210197865963
1766401972974386400,0.108386474609375,0.1412578970193863,-0.10055647045373917,-0.08858546614646912
1766401972994436600,0.1284365234375,0.23702596127986908,-0.15562310814857483,-0.07661445438861847
1766401973004446500,0.138446533203125,0.1604115068912506,-0.12210428714752197,-0.13407529890537262
1766401973014486500,0.148486572265625,0.23702596127986908,-0.2322375625371933,-0.1149216815829277
1766401973034567200,0.168567138671875,0.2561795711517334,0.0071826050989329815,-0.05506663769483566
1766401973044546600,0.178546630859375,0.2585737705230713,0.014365210197865963,0.08379705995321274
1766401973054556200,0.18855615234375,0.22266076505184174,0.10055647045373917,0.12449848651885986
1766401973064535600,0.19853564453125,0,-0.0933738648891449,0.06464344263076782
1766401973074576000,0.208575927734375,0.043095629662275314,-0.014365210197865963,-0.06464344263076782
1766401973104605000,0.23860498046875,-0.06224924325942993,-0.26575639843940735,-0.19393034279346466
1766401973114614800,0.24861474609375,0.07182604819536209,-0.011971008032560349,-0.1388636976480484
1766401973124624600,0.258624755859375,0.06464344263076782,-0.11971008777618408,-0.08379705995321274
1766401973134634200,0.26863427734375,0.14604631066322327,0.22505496442317963,-0.019153613597154617
1766401973144644000,0.27864404296875,0.14365209639072418,0.14844051003456116,0.002394201699644327
1766401973154684400,0.288684326171875,0.06464344263076782,-0.023942016065120697,-0.047884032130241394
1766401973164694300,0.2986943359375,0.038307227194309235,-0.12449848651885986,-0.1173158809542656
1766401973174703900,0.308703857421875,0.12449848651885986,-0.11013327538967133,-0.14604631066322327
1766401973184713700,0.318713623046875,0.07182604819536209,-0.06703764945268631,-0.181959331035614
1766401973194754000,0.328754150390625,0.028730420395731926,-0.0694318488240242,-0.05746084079146385
1766401973204763600,0.338763671875,0.05746084079146385,-0.05746084079146385,-0.0454898327589035
1766401973214773500,0.3487734375,0.040701430290937424,-0.15562310814857483,-0.06224924325942993
1766401973224783400,0.358783447265625,-0.038307227194309235,0,-0.040701430290937424
1766401973234793000,0.36879296875,-0.05027823522686958,-0.14604631066322327,0.009576806798577309
1766401973244802800,0.378802734375,-0.043095629662275314,-0.09576806426048279,-0.15562310814857483
1766401973254812700,0.388812744140625,-0.16519992053508759,-0.08858546614646912,-0.038307227194309235
1766401973264822300,0.398822265625,-0.2322375625371933,0.002394201699644327,-0.040701430290937424
1766401973294882000,0.428882080078125,-0.7852981686592102,0.31364041566848755,-0.19393034279346466
1766401973304892000,0.438891845703125,-1.05105459690094,0.4429273009300232,-0.2537853717803955
1766401973314932200,0.44893212890625,-1.3766659498214722,0.47644615173339844,-0.6440402865409851
1766401973324942000,0.458942138671875,-1.7597382068634033,2.6216509342193604,-3.466804027557373
1766401973334982100,0.468982177734375,-2.1787235736846924,0.5578489899635315,-2.5067291259765625
1766401973344992000,0.478991943359375,-2.7006595134735107,0.8523358106613159,-0.8259995579719543
1766401973355001900,0.489001953125,-2.6001031398773193,1.3982137441635132,-2.3774423599243164
1766401973365011500,0.499011474609375,-2.3343467712402344,1.7884687185287476,-2.3247697353363037
1766401973375021300,0.509021240234375,-2.7054479122161865,1.647210717201233,-2.5067291259765625
1766401973405020200,0.539020263671875,-2.784456491470337,1.6376339197158813,-3.1483752727508545
1766401973415029800,0.54902978515625,-2.873042106628418,1.5538369417190552,-3.066972494125366
1766401973425039600,0.55903955078125,-2.940079689025879,1.4484920501708984,-3.1244332790374756
1766401973435080000,0.569079833984375,-2.8993782997131348,1.4460978507995605,-3.1651346683502197
1766401973445089800,0.57908984375,-3.1723172664642334,0.828393816947937,-3.1220390796661377
1766401973455129900,0.5891298828125,-3.1531636714935303,0.20350714027881622,-2.8395233154296875
1766401973465139700,0.5991396484375,-3.2561142444610596,-0.17956513166427612,-2.8802247047424316
1766401973475180000,0.609179931640625,-3.222595453262329,-0.3016694188117981,-2.784456491470337
1766401973515219000,0.649218994140625,-1.6974890232086182,-2.47560453414917,-1.2856862545013428
1766401973525228800,0.659228759765625,-1.625662922859192,-2.8107926845550537,-1.3048399686813354
1766401973535238700,0.66923876953125,-1.778891921043396,-3.380612850189209,-1.4508862495422363
1766401973545248300,0.679248291015625,-1.601720929145813,-3.117250680923462,-1.436521053314209
1766401973555258000,0.689258056640625,-1.6376339197158813,-3.778050184249878,-1.0414776802062988
1766401973565268000,0.69926806640625,-1.4053963422775269,-4.175487995147705,-0.4429273009300232
1766401973575308300,0.709308349609375,-0.8667010068893433,-3.9193081855773926,0.2968810200691223
1766401973605337600,0.739337646484375,0.16998831927776337,-3.2968156337738037,1.9177556037902832
1766401973615347200,0.74934716796875,0.16519992053508759,-3.603273630142212,1.922544002532959
1766401973625357000,0.759357177734375,0.08379705995321274,-3.471592426300049,1.9536685943603516
1766401973635366700,0.76936669921875,0.11252748221158981,-3.397372245788574,1.9512743949890137
1766401973645346000,0.779345947265625,0.1364694982767105,-3.07415509223938,1.9488801956176758
1766401973655386400,0.789386474609375,0.24181437492370605,-2.762908697128296,1.9919757843017578
1766401973665335000,0.7993349609375,0.1867477297782898,-2.363077163696289,2.296039342880249
1766401973675375400,0.809375244140625,0.14844051003456116,-1.9369091987609863,2.3774423599243164
1766401973685385000,0.819385009765625,0.24899697303771973,-1.522712230682373,2.346317768096924
1766401973715445000,0.849445068359375,0.45010992884635925,-1.9991583824157715,2.3798365592956543
1766401973725454600,0.85945458984375,0.4141969084739685,-1.86508309841156,2.518700122833252
1766401973735495000,0.869494873046875,0.3256114423274994,-1.4413094520568848,2.626439332962036
1766401973745474300,0.879474365234375,0.3447650372982025,-1.5825673341751099,2.669534921646118
1766401973755514400,0.889514404296875,0.30885201692581177,-1.5298948287963867,2.559401512145996
1766401973765493800,0.89949365234375,0.586579442024231,-1.659181833267212,2.5115175247192383
1766401973775503600,0.909503662109375,0.6631938815116882,-1.5849615335464478,2.6168625354766846
1766401973785513200,0.91951318359375,0.8667010068893433,-1.4700398445129395,2.691082715988159
1766401973815573000,0.949572998046875,0.871489405632019,-0.5793967843055725,1.9704279899597168
1766401973855612200,0.989612060546875,0.5171475410461426,-0.13168109953403473,1.968033790588379
1766401973905630500,1.03963037109375,0.7326257228851318,-0.6392518281936646,1.3934253454208374
1766401973925711000,1.059711181640625,0.5482721924781799,-0.3878606855869293,1.2330138683319092
1766401974005758700,1.1397587890625,0.22505496442317963,0.05267243832349777,0.19393034279346466
1766401974015798800,1.149798828125,0.05027823522686958,0.17717093229293823,0.15562310814857483
1766401974055838000,1.189837890625,-0.5746083855628967,-0.31842881441116333,-0.3256114423274994
1766401974115957500,1.24995751953125,-0.8667010068893433,-0.36152446269989014,0.15801730751991272
1766401974135946500,1.269946533203125,-1.113303780555725,-0.47165772318840027,0.4572925269603729
1766401974155966200,1.28996630859375,-1.0414776802062988,-0.24181437492370605,0.6847416758537292
1766401974165975800,1.299975830078125,-0.8044517636299133,-0.2777273952960968,0.6392518281936646
1766401974175985700,1.309985595703125,-0.5626373887062073,-0.40701428055763245,0.7541735172271729
1766401974185995500,1.31999560546875,-0.31842881441116333,-0.5746083855628967,0.47405192255973816
1766401974196005000,1.330005126953125,-0.16998831927776337,-1.2880805730819702,0.4668693244457245
1766401974206015000,1.340014892578125,-0.2106897532939911,-1.8076223134994507,0.09576806426048279
1766401974216024800,1.35002490234375,-0.12449848651885986,-2.0853497982025146,-0.19632454216480255
1766401974226034400,1.360034423828125,-0.06224924325942993,-2.2433669567108154,0.004788403399288654
1766401974266104000,1.40010400390625,0.021547814831137657,-3.0166940689086914,-0.14365209639072418
1766401974276114000,1.410114013671875,0.3208230137825012,-2.5019407272338867,-0.14604631066322327
1766401974286062600,1.4200625,0.2298433631658554,-2.760514497756958,-0.07661445438861847
1766401974296072400,1.430072509765625,0.16998831927776337,-2.38462495803833,-0.0071826050989329815
1766401974306082000,1.44008203125,0.15083470940589905,-1.8986018896102905,0.05267243832349777
1766401974316122400,1.450122314453125,0.4213795065879822,-1.7118542194366455,-0.12449848651885986
1766401974326101800,1.460101806640625,1.0582371950149536,-0.8307880163192749,-0.4141969084739685
1766401974336141800,1.470141845703125,1.9153614044189453,-0.06703764945268631,-0.706289529800415
1766401974346151700,1.480151611328125,2.9712042808532715,0.1867477297782898,-0.8355764150619507
1766401974386221300,1.52022119140625,-0.26096799969673157,-3.6391866207122803,1.0654197931289673
1766401974396261600,1.53026171875,-1.577778935432434,-4.793191909790039,1.4748282432556152
1766401974406240800,1.54024072265625,-2.851494312286377,-4.879383087158203,1.8818424940109253
1766401974416220200,1.55022021484375,-3.485957622528076,-5.351040840148926,2.5522189140319824
1766401974426229800,1.560229736328125,-3.823540210723877,-5.22175407409668,2.9233202934265137
1766401974436239600,1.570239501953125,-4.0749311447143555,-4.692635536193848,3.0142998695373535
1766401974476278500,1.610278564453125,-2.030282974243164,-2.2649147510528564,2.518700122833252
1766401974496298200,1.63029833984375,-1.7717092037200928,-0.9888052940368652,1.9321208000183105
1766401974506277400,1.64027734375,-1.5442601442337036,-0.7350199222564697,1.9249382019042969
1766401974516317700,1.650317626953125,-1.2282254695892334,-0.4668693244457245,1.3742717504501343
1766401974526296800,1.660296875,-1.5969325304031372,0.33758243918418884,0.7398083209991455
1766401974536367900,1.670367919921875,-1.7525556087493896,0.8475474119186401,0.3423708379268646
1766401974566397000,1.70039697265625,-2.2146365642547607,0.9289502501487732,-0.5027823448181152
1766401974596487400,1.7304873046875,-0.8547300100326538,2.346317768096924,-1.599326729774475
1766401974606497000,1.7404970703125,-0.6344634294509888,2.5067291259765625,-1.9345149993896484
1766401974616507000,1.7505068359375,-0.47644615173339844,3.203441858291626,-1.8411411046981812
1766401974626516700,1.760516845703125,0.05267243832349777,4.120420932769775,-1.920149803161621
1766401974636587500,1.77058740234375,0.38067805767059326,3.998316764831543,-2.4636335372924805
1766401974646597000,1.78059716796875,0.363918662071228,4.335899353027344,-2.9735984802246094
1766401974686636300,1.82063623046875,0.42856210470199585,5.056553840637207,-4.347870349884033
1766401974696646100,1.830646240234375,0.5841852426528931,6.18182897567749,-4.132391929626465
1766401974706655700,1.84065576171875,1.0558429956436157,5.779603004455566,-4.1180267333984375
1766401974716696000,1.850696044921875,1.0630255937576294,5.983109951019287,-4.546588897705078
1766401974726706000,1.860705810546875,1.256955862045288,5.293580055236816,-4.886565685272217
1766401974736715800,1.8707158203125,0.6416460275650024,4.711789131164551,-4.910507678985596
1766401974746725400,1.880725341796875,0.18914192914962769,2.5282769203186035,-4.537012100219727
1766401974756765700,1.890765625,0.4357447028160095,-0.10055647045373917,-4.086902141571045
1766401974766775600,1.900775634765625,1.2952631711959839,-0.6129156351089478,-4.086902141571045
1766401974776815900,1.91081591796875,1.6496049165725708,0.7541735172271729,-4.108449935913086
1766401974786825500,1.920825439453125,1.3479355573654175,2.389413356781006,-3.5865142345428467
1766401974796865800,1.93086572265625,0.7469909191131592,3.179499864578247,-3.0621838569641113
1766401974806875600,1.940875732421875,0.7876923680305481,3.550601005554199,-2.382230758666992
1766401974816885200,1.95088525390625,0.5506663918495178,4.307168960571289,-1.965639591217041
1766401974826895000,1.96089501953125,-0.6320692300796509,3.995922565460205,-1.1444283723831177
1766401974836935400,1.970935302734375,-1.3000515699386597,1.522712230682373,-0.8188169598579407
1766401974846945000,1.980945068359375,-1.2617442607879639,-0.5123591423034668,-0.768538773059845
1766401974856955000,1.990954833984375,-0.5363011956214905,-0.5841852426528931,-0.19871874153614044
1766401974896994000,2.030994140625,-2.6001031398773193,1.3431471586227417,1.2521674633026123
1766401974907003600,2.041003662109375,-2.985569477081299,2.4205379486083984,1.6639702320098877
1766401974917044000,2.0510439453125,-2.2385785579681396,2.7988216876983643,1.4987702369689941
1766401974927053800,2.0610537109375,-1.194706678390503,2.868253707885742,0.6847416758537292
1766401974937094100,2.07109423828125,-0.6751648783683777,2.959233283996582,-0.11252748221158981
1766401974947073300,2.0810732421875,-1.0869675874710083,2.9065608978271484,-0.5339069962501526
1766401974957113600,2.091113525390625,-1.0821791887283325,2.9927520751953125,-0.38546648621559143
1766401974967123500,2.10112353515625,-0.9792284965515137,2.8850131034851074,-1.2689268589019775
1766401974997183200,2.131183349609375,-1.9728221893310547,4.182670593261719,-2.7126305103302
1766401975007192800,2.14119287109375,-0.849941611289978,5.578489780426025,-3.4404678344726562
1766401975017202700,2.15120263671875,0.36152446269989014,4.975151062011719,-4.309563159942627
1766401975027212500,2.161212646484375,0.6368576288223267,4.307168960571289,-4.900930881500244
1766401975037222100,2.17122216796875,0.2106897532939911,3.890577793121338,-5.216965675354004
1766401975047201500,2.181201416015625,0.40701428055763245,3.5721490383148193,-6.112396717071533
1766401975057211100,2.191211181640625,0.45010992884635925,5.655104637145996,-6.2632317543029785
1766401975067221000,2.201220947265625,0.3902548849582672,7.383718013763428,-6.172252178192139
1766401975087240400,2.221240478515625,-0.4644751250743866,9.773131370544434,-6.313509941101074
1766401975097280800,2.23128076171875,-0.9624691009521484,8.710105895996094,-6.507440090179443
1766401975107290600,2.24129052734375,-1.5514427423477173,6.44279670715332,-7.122750282287598
1766401975117331000,2.2513310546875,-2.0661959648132324,4.879383087158203,-7.580042362213135
1766401975127340500,2.261340576171875,-2.22660756111145,3.471592426300049,-7.491456985473633
1766401975147360300,2.2813603515625,-3.050212860107422,-1.2665326595306396,-7.371747016906738
1766401975157400600,2.291400634765625,-3.5170822143554688,-3.550601005554199,-7.529764175415039
1766401975167379700,2.301379638671875,-3.643975019454956,-3.428496837615967,-6.868964672088623
1766401975177389600,2.3113896484375,-3.466804027557373,-1.2617442607879639,-5.899312973022461
1766401975197409000,2.331408935546875,-3.318363666534424,2.7557260990142822,-5.51624059677124
1766401975207419000,2.3414189453125,-3.3016040325164795,2.583343744277954,-6.124367713928223
1766401975227408000,2.361407958984375,-2.300827741622925,-4.766855716705322,-9.11233139038086
1766401975237417500,2.37141748046875,-1.2258312702178955,-10.127472877502441,-10.553641319274902
1766401975247427300,2.38142724609375,-0.9313444495201111,-12.018892288208008,-9.955090522766113
1766401975257437200,2.391437255859375,-1.1013327836990356,-9.674968719482422,-7.785943984985352
1766401975267446800,2.40144677734375,-0.6536170840263367,-7.003039836883545,-6.057330131530762
1766401975277487000,2.411487060546875,-0.4908113479614258,-5.04218864440918,-5.374982833862305
1766401975287497000,2.4214970703125,-0.27054479718208313,-4.211400985717773,-5.137956619262695
1766401975337545700,2.471545654296875,3.1100680828094482,-11.750741958618164,-5.621585369110107
1766401975347555600,2.4815556640625,3.160346269607544,-8.75080680847168,-3.8283286094665527
1766401975357565200,2.491565185546875,3.021482467651367,-6.423643112182617,-2.937685489654541
1766401975367575000,2.501574951171875,2.741360902786255,-4.7189717292785645,-2.3487119674682617
1766401975377585000,2.5115849609375,2.470816135406494,-3.581725835800171,-1.8076223134994507
1766401975387594500,2.521594482421875,2.33913516998291,-2.892195701599121,-1.1109095811843872
1766401975397604400,2.531604248046875,2.1954829692840576,-2.5091233253479004,-0.5267243981361389
1766401975447683600,2.58168359375,2.1356279850006104,-3.804386615753174,0.13407529890537262
1766401975457693400,2.591693359375,2.2577321529388428,-3.1220390796661377,0.40940847992897034
1766401975467703300,2.601703369140625,2.43011474609375,-2.3271639347076416,0.6607996821403503
1766401975477682400,2.611682373046875,2.4372973442077637,-1.802833914756775,0.8954314589500427
1766401975487692300,2.6216923828125,2.315192937850952,-1.4484920501708984,0.9385270476341248
1766401975497732600,2.631732666015625,1.764526605606079,-1.1994950771331787,0.7230489253997803
1766401975527731200,2.661731201171875,0.6129156351089478,-1.2401964664459229,0.4141969084739685
1766401975537741000,2.671740966796875,0.4213795065879822,-0.43095630407333374,0.31842881441116333
1766401975547751000,2.6817509765625,0.33039984107017517,0.5626373887062073,0.2849099934101105
1766401975557791000,2.691791015625,0.22505496442317963,1.213860273361206,-0.12210428714752197
1766401975567800800,2.70180078125,-0.181959331035614,1.3934253454208374,-0.3998316824436188
1766401975577841200,2.711841064453125,-0.545877993106842,1.0438719987869263,-0.5506663918495178
1766401975587851000,2.72185107421875,-0.7589619159698486,0.5913678407669067,-0.7086837291717529
1766401975617849600,2.751849609375,-0.9744400978088379,0.6703764796257019,-1.039083480834961
1766401975627798500,2.761798583984375,-1.0247182846069336,1.113303780555725,-1.1851298809051514
1766401975637838600,2.771838623046875,-1.1444283723831177,1.3239935636520386,-1.2306196689605713
1766401975647848400,2.781848388671875,-1.1228805780410767,1.2665326595306396,-1.2186486721038818
1766401975657858300,2.7918583984375,-1.2066776752471924,1.1444283723831177,-1.3838485479354858
1766401975667868000,2.801867919921875,-1.070208191871643,1.036689281463623,-1.5849615335464478
1766401975677877800,2.811877685546875,-1.0438719987869263,0.9792284965515137,-1.7621324062347412
1766401975687887600,2.8218876953125,-1.072602391242981,0.8068459630012512,-1.6400281190872192
1766401975697927700,2.831927734375,-1.0462661981582642,0.5770025849342346,-1.721431016921997
1766401975717977900,2.851977783203125,-1.2018892765045166,1.0558429956436157,-1.7262194156646729
1766401975747976700,2.881976806640625,-0.9864110946655273,1.4772224426269531,-1.2665326595306396
1766401975757986300,2.891986328125,-0.8738836050033569,1.482010841369629,-1.1875240802764893
1766401975767996200,2.90199609375,-0.7469909191131592,1.5658079385757446,-1.2521674633026123
1766401975778006000,2.912006103515625,-0.5147533416748047,1.6208745241165161,-1.158793568611145
1766401975787954700,2.92195458984375,-0.44771572947502136,1.6089035272598267,-1.0223240852355957
1766401975797964500,2.931964599609375,-0.33758243918418884,1.656787633895874,-0.9193734526634216
1766401975807974100,2.94197412109375,-0.3711012601852417,1.678335428237915,-1.0462661981582642
1766401975838003500,2.97200341796875,-0.40462008118629456,1.501164436340332,-1.0558429956436157
1766401975848013300,2.982013427734375,-0.44532153010368347,1.4963760375976562,-0.9074024558067322
1766401975858023000,2.99202294921875,-0.5746083855628967,1.3862427473068237,-0.8810662031173706
1766401975868032800,3.00203271484375,-0.5650315880775452,1.1851298809051514,-0.7469909191131592
1766401975878073000,3.012072998046875,-0.6775590777397156,1.1180921792984009,-0.6584054827690125
1766401975888083000,3.0220830078125,-0.6105214357376099,1.1492167711257935,-0.6105214357376099
1766401975898123000,3.032123046875,-0.45489832758903503,1.0773907899856567,-0.5626373887062073
1766401975908132900,3.0421328125,-0.2849099934101105,0.8355764150619507,-0.5554547905921936
1766401975918173200,3.052173095703125,-0.1843535304069519,0.7398083209991455,-0.38307225704193115
1766401975948202500,3.082202392578125,-0.21547815203666687,0.3734954595565796,-0.10534487664699554
1766401975958242800,3.092242919921875,-0.24899697303771973,0.19393034279346466,-0.047884032130241394
1766401975968252400,3.10225244140625,-0.45250412821769714,0.090979665517807,0.023942016065120697
1766401975978262300,3.11226220703125,-0.4572925269603729,-0.004788403399288654,0.009576806798577309
1766401975988272000,3.122272216796875,-0.4596867263317108,-0.1412578970193863,0.13168109953403473
1766401975998281700,3.13228173828125,-0.42856210470199585,-0.17238251864910126,0.15562310814857483
1766401976008291600,3.14229150390625,-0.33039984107017517,-0.181959331035614,0.1628057211637497
1766401976018301400,3.152301513671875,-0.26096799969673157,-0.16519992053508759,0.05746084079146385
1766401976028311000,3.16231103515625,-0.12210428714752197,-0.028730420395731926,0.031124621629714966
1766401976068319700,3.20231982421875,-0.28969839215278625,-0.06464344263076782,-0.19393034279346466
1766401976078360000,3.212360107421875,-0.3758896589279175,-0.07182604819536209,-0.272938996553421
1766401976088369700,3.22236962890625,-0.38307225704193115,-0.2849099934101105,-0.17956513166427612
1766401976098379500,3.232379638671875,-0.35913026332855225,-0.5147533416748047,-0.13168109953403473
1766401976118429400,3.252429443359375,-0.31364041566848755,-0.2753331959247589,-0.11013327538967133
1766401976128469800,3.2624697265625,-0.29209262132644653,-0.2968810200691223,-0.047884032130241394
1766401976148489200,3.2824892578125,-0.3423708379268646,-0.304063618183136,-0.21308395266532898
1766401976158499000,3.2924990234375,-0.3232172429561615,-0.3974374830722809,-0.45250412821769714
1766401976168509000,3.302509033203125,-0.38307225704193115,-0.31842881441116333,-0.5554547905921936
1766401976178518500,3.3125185546875,-0.4429273009300232,-0.24660277366638184,-0.5051765441894531
1766401976188528400,3.3225283203125,-0.4908113479614258,-0.3471592366695404,-0.45250412821769714
1766401976208547800,3.3425478515625,-0.7326257228851318,-0.395043283700943,-0.28969839215278625
1766401976218557700,3.3525576171875,-0.8595184087753296,-0.42856210470199585,-0.3280056416988373
1766401976228536800,3.362536865234375,-0.9911994934082031,-0.3998316824436188,-0.3447650372982025
1766401976268515000,3.40251513671875,-0.2777273952960968,-0.24181437492370605,-0.5554547905921936
1766401976278555100,3.41255517578125,-0.12449848651885986,-0.11013327538967133,-0.6919242739677429
1766401976288565000,3.42256494140625,-0.10295066982507706,0.1364694982767105,-0.6823474764823914
1766401976298574800,3.432574951171875,-0.15801730751991272,0.17717093229293823,-0.586579442024231
1766401976308554000,3.442553955078125,-0.30885201692581177,0.07422025501728058,-0.5746083855628967
1766401976318563800,3.452563720703125,-0.33997663855552673,-0.023942016065120697,-0.6320692300796509
1766401976328604200,3.462604248046875,-0.33997663855552673,0.1149216815829277,-0.6631938815116882
1766401976358633500,3.492633544921875,-0.26096799969673157,0.181959331035614,-0.4213795065879822
1766401976368643000,3.50264306640625,-0.06703764945268631,0.12449848651885986,-0.3663128614425659
1766401976388662800,3.522662841796875,0.0071826050989329815,0.11252748221158981,-0.47165772318840027
1766401976398672400,3.53267236328125,-0.07182604819536209,0.1628057211637497,-0.5386953949928284
1766401976408682200,3.54268212890625,-0.023942016065120697,0.22744916379451752,-0.5195417404174805
1766401976418692000,3.552692138671875,0.023942016065120697,0.17477671802043915,-0.6631938815116882
1766401976428701700,3.56270166015625,0.05506663769483566,0.011971008032560349,-0.7972691655158997
1766401976438772500,3.5727724609375,0.002394201699644327,0.08858546614646912,-0.8810662031173706
1766401976478872600,3.61287255859375,0.28969839215278625,-0.10773907601833344,-1.2258312702178955
1766401976488882400,3.62288232421875,0.47644615173339844,-0.026336219161748886,-1.4748282432556152
1766401976498922800,3.6329228515625,0.6943184733390808,-0.05506663769483566,-1.6160861253738403
1766401976508932400,3.642932373046875,0.8930372595787048,-0.009576806798577309,-1.678335428237915
1766401976519003100,3.653003173828125,0.8906430602073669,-0.07182604819536209,-1.8052281141281128
1766401976529013000,3.663012939453125,0.9648633003234863,-0.0933738648891449,-1.968033790588379
1766401976539022800,3.67302294921875,0.9600749015808105,-0.20111294090747833,-2.054224967956543
1766401976569052200,3.70305224609375,1.1444283723831177,-0.11013327538967133,-2.5977089405059814
1766401976579061800,3.713061767578125,1.173158884048462,-0.0071826050989329815,-2.717418909072876
1766401976589071600,3.723071533203125,1.1994950771331787,0.043095629662275314,-2.6192567348480225
1766401976599081500,3.73308154296875,1.1635819673538208,0.2346317619085312,-2.4133553504943848
1766401976609060600,3.743060546875,1.0893617868423462,0.2992752194404602,-2.451662540435791
1766401976619070500,3.753070556640625,1.1420341730117798,0.363918662071228,-2.3535003662109375
1766401976629080000,3.763080078125,1.091755986213684,0.33518823981285095,-2.346317768096924
1766401976639059500,3.7730595703125,1.0055646896362305,0.3758896589279175,-2.3511061668395996
1766401976649069000,3.783069091796875,0.9433154463768005,0.47644615173339844,-2.164358377456665
1766401976689077800,3.823077880859375,0.8690952062606812,0.7350199222564697,-1.53707754611969
1766401976699118000,3.8331181640625,0.6847416758537292,0.8978256583213806,-1.5131354331970215
1766401976719137500,3.853137451171875,0.44771572947502136,0.9624691009521484,-1.1851298809051514
1766401976729147400,3.8631474609375,0.44532153010368347,0.9385270476341248,-1.1468225717544556
1766401976739187500,3.8731875,0.33758243918418884,0.9409212470054626,-1.1085153818130493
1766401976749166800,3.883166748046875,0.24899697303771973,0.8738836050033569,-1.0271124839782715
1766401976759176700,3.8931767578125,0.12449848651885986,0.8906430602073669,-0.8403648138046265
1766401976789267000,3.923266845703125,0.023942016065120697,0.7469909191131592,-0.7541735172271729
1766401976809316900,3.94331689453125,0.07422025501728058,0.49799394607543945,-0.6057330369949341
1766401976819326700,3.95332666015625,-0.021547814831137657,0.3974374830722809,-0.5291185975074768
1766401976829336600,3.963336669921875,0,0.24899697303771973,-0.5386953949928284
1766401976839346200,3.97334619140625,0.040701430290937424,0.06224924325942993,-0.4357447028160095
1766401976849356000,3.98335595703125,0.1604115068912506,0.07661445438861847,-0.38546648621559143
1766401976859366000,3.993365966796875,0.31842881441116333,0.004788403399288654,-0.2944868206977844
1766401976869345000,4.003344970703125,0.3663128614425659,-0.1149216815829277,-0.15083470940589905
1766401976889364500,4.023364501953125,0.5171475410461426,-0.07661445438861847,0.2944868206977844
1766401976899374300,4.033374267578125,0.4692635238170624,-0.17238251864910126,0.4908113479614258
1766401976909384200,4.04338427734375,0.38067805767059326,-0.19871874153614044,0.6631938815116882
1766401976919393800,4.053393798828125,0.24181437492370605,-0.2298433631658554,0.9528923034667969
1766401976929403600,4.063403564453125,0.16759411990642548,-0.2537853717803955,1.0103530883789062
1766401976949423000,4.083423095703125,0.4620809257030487,-0.40940847992897034,0.8667010068893433
1766401976959433000,4.093432861328125,0.5147533416748047,-0.4812345504760742,0.8762778043746948
1766401976969442800,4.10344287109375,0.4357447028160095,-0.40462008118629456,0.811634361743927
1766401976999471900,4.133471923828125,0.37828385829925537,-0.3998316824436188,1.1516109704971313
1766401977009481700,4.143481689453125,0.28730419278144836,-0.37828385829925537,1.1013327836990356
1766401977019522000,4.15352197265625,0.1173158809542656,-0.33758243918418884,0.9169792532920837
1766401977029532000,4.163531982421875,0.014365210197865963,-0.3256114423274994,1.0007762908935547
1766401977039572000,4.173572021484375,-0.1149216815829277,-0.2753331959247589,1.161187767982483
1766401977049612300,4.1836123046875,-0.28969839215278625,-0.47165772318840027,1.292868971824646
1766401977059622100,4.1936220703125,-0.31364041566848755,-0.4357447028160095,1.2832920551300049
1766401977069632000,4.203632080078125,-0.33758243918418884,-0.6943184733390808,1.41257905960083
1766401977099661300,4.233661376953125,-0.47405192255973816,-0.7398083209991455,1.1659762859344482
1766401977109671000,4.2436708984375,-0.40462008118629456,-0.7254431247711182,1.1444283723831177
1766401977119680800,4.2536806640625,-0.49559974670410156,-0.6512228846549988,1.0127472877502441
1766401977129690600,4.263690673828125,-0.6919242739677429,-0.871489405632019,0.7972691655158997
1766401977139669800,4.273669677734375,-0.8068459630012512,-0.9481038451194763,0.5961562395095825
1766401977149649000,4.28364892578125,-0.8140285611152649,-0.8858546018600464,0.47644615173339844
1766401977159689200,4.293689208984375,-0.8020575642585754,-1.01753568649292,0.44771572947502136
1766401977169699000,4.303698974609375,-0.6727706789970398,-1.1779472827911377,0.395043283700943
1766401977189749000,4.3237490234375,-0.6033388376235962,-1.213860273361206,0.2944868206977844
1766401977209768700,4.343768798828125,-0.181959331035614,-1.6496049165725708,0.29209262132644653
1766401977219778300,4.3537783203125,-0.2513911724090576,-1.8124107122421265,-0.009576806798577309
1766401977229788200,4.3637880859375,-0.22505496442317963,-1.5322890281677246,-0.12210428714752197
1766401977239798000,4.373798095703125,-0.19393034279346466,-1.3096283674240112,-0.009576806798577309
1766401977249807600,4.3838076171875,-0.26096799969673157,-1.4867992401123047,0.23702596127986908
1766401977259817500,4.3938173828125,-0.35913026332855225,-1.5849615335464478,0.2753331959247589
1766401977269827300,4.403827392578125,-0.2777273952960968,-1.7118542194366455,0.22744916379451752
1766401977289846800,4.4238466796875,-0.08140286058187485,-2.073378562927246,0.05746084079146385
1766401977299887000,4.43388720703125,0.019153613597154617,-2.7557260990142822,-0.1867477297782898
1766401977309896700,4.443896728515625,0.040701430290937424,-3.734954595565796,-0.5913678407669067
1766401977319906600,4.453906494140625,0.028730420395731926,-4.067748546600342,-0.8044517636299133
1766401977329947000,4.46394677734375,0.1364694982767105,-3.885789394378662,-0.7805097699165344
1766401977339956700,4.473956787109375,0.040701430290937424,-3.7660791873931885,-0.8020575642585754
1766401977349966300,4.48396630859375,-0.011971008032560349,-3.466804027557373,-0.8403648138046265
1766401977360006700,4.494006591796875,-0.07182604819536209,-3.114856481552124,-0.7948749661445618
1766401977370016500,4.5040166015625,-0.0454898327589035,-3.064578056335449,-0.6416460275650024
1766401977389935900,4.523935791015625,-0.12449848651885986,-3.5649664402008057,-0.6584054827690125
1766401977399945700,4.53394580078125,-0.047884032130241394,-4.357447147369385,-1.0007762908935547
1766401977409955600,4.54395556640625,-0.038307227194309235,-5.327098846435547,-1.501164436340332
1766401977419934700,4.553934814453125,-0.06224924325942993,-5.7556610107421875,-2.118868589401245
1766401977429944600,4.563944580078125,-0.3471592366695404,-5.748478412628174,-2.3367409706115723
1766401977439954200,4.5739541015625,-0.5147533416748047,-5.303156852722168,-2.564189910888672
1766401977449903000,4.583903076171875,-0.6200982332229614,-5.56173038482666,-2.7006595134735107
1766401977459943200,4.593943115234375,-0.4596867263317108,-6.236895561218262,-2.4875755310058594
1766401977469922600,4.603922607421875,-0.06464344263076782,-6.959944248199463,-2.631227731704712
1766401977479932400,4.613932373046875,0.4836287498474121,-6.4595561027526855,-2.935291290283203
1766401977499982300,4.633982421875,-0.2801215946674347,-6.332663536071777,-2.403778553009033
1766401977509961500,4.64396142578125,-0.7182605266571045,-6.287173748016357,-2.0925323963165283
1766401977520001800,4.654001708984375,-0.27054479718208313,-5.91128396987915,-1.6831238269805908
1766401977530011600,4.66401171875,0.3998316824436188,-6.004657745361328,-1.4077905416488647
1766401977540021500,4.674021484375,0.6607996821403503,-6.066906929016113,-1.3862427473068237
1766401977550000600,4.684000732421875,0.26336219906806946,-6.22731876373291,-1.400607943534851
1766401977560071400,4.694071533203125,0.24660277366638184,-6.655880928039551,-1.5275006294250488
1766401977570050800,4.70405078125,-0.05506663769483566,-5.655104637145996,-1.8411411046981812
1766401977590100700,4.724100830078125,0.09816227108240128,-4.323928356170654,-1.7860745191574097
1766401977600110600,4.734110595703125,0.12689268589019775,-4.745307922363281,-1.8267759084701538
1766401977610120200,4.7441201171875,-0.07422025501728058,-4.752490520477295,-1.8746598958969116
1766401977620130000,4.754130126953125,-0.22744916379451752,-5.303156852722168,-1.9847931861877441
1766401977630140000,4.764139892578125,-0.629675030708313,-5.861005783081055,-2.4420857429504395
1766401977640180200,4.77418017578125,-1.1635819673538208,-6.289567947387695,-3.043030261993408
1766401977650189800,4.78418994140625,-1.599326729774475,-5.868188381195068,-3.734954595565796
1766401977660199700,4.79419970703125,-2.140416383743286,-6.4595561027526855,-3.9600095748901367
1766401977670209300,4.804209228515625,-2.6240451335906982,-7.242460250854492,-4.3861775398254395
1766401977690198500,4.824198486328125,-2.190694570541382,-5.324704647064209,-4.9368438720703125
1766401977710248400,4.84424853515625,-3.117250680923462,-6.13633918762207,-5.655104637145996
1766401977720227600,4.8542275390625,-3.184288263320923,-6.217741966247559,-6.224924564361572
1766401977740247300,4.874247314453125,-3.2968156337738037,-4.37420654296875,-6.833051681518555
1766401977750257000,4.8842568359375,-3.450044631958008,-4.857835292816162,-7.177816867828369
1766401977760297200,4.894297119140625,-3.2417490482330322,-4.831499099731445,-7.036558628082275
1766401977770337500,4.904337646484375,-3.3016040325164795,-5.070919036865234,-7.41484260559082
1766401977780347400,4.914347412109375,-3.5386300086975098,-5.011064052581787,-8.030152320861816
1766401977790357000,4.92435693359375,-3.6990416049957275,-4.3191399574279785,-8.283937454223633
1766401977820386300,4.95438623046875,-4.745307922363281,-2.762908697128296,-7.975085735321045
1766401977830396200,4.964396240234375,-4.967968463897705,-1.8124107122421265,-8.465897560119629
1766401977840406000,4.974406005859375,-5.202600479125977,-1.0821791887283325,-8.480262756347656
1766401977850415600,4.98441552734375,-5.329493045806885,-1.558625340461731,-8.101978302001953
1766401977860456000,4.9944560546875,-5.058948040008545,-0.9768342971801758,-7.886500358581543
1766401977870435300,5.004435302734375,-4.623203277587891,-0.4572925269603729,-8.221688270568848
1766401977880445000,5.01444482421875,-4.20421838760376,0.4668693244457245,-8.29830265045166
1766401977890454800,5.024454833984375,-4.125209331512451,0.4572925269603729,-7.979874134063721
1766401977900464600,5.034464599609375,-4.23773717880249,0.4165911078453064,-7.728483200073242
1766401977910474200,5.04447412109375,-3.861847400665283,0.3423708379268646,-7.4555439949035645
1766401977920484000,5.054484130859375,-3.4979286193847656,0.31364041566848755,-7.103596210479736
1766401977930494000,5.064493896484375,-2.8586769104003906,0.42856210470199585,-6.9910688400268555
1766401977940503600,5.074503662109375,-2.470816135406494,0.5027823448181152,-6.71334171295166
1766401977950513400,5.084513427734375,-2.0231003761291504,0.9744400978088379,-6.1267619132995605
1766401977960523000,5.09452294921875,-2.0183119773864746,0.9600749015808105,-5.4875102043151855
1766401977970532900,5.104532958984375,-2.0039467811584473,1.3766659498214722,-4.982333660125732
1766401977980542700,5.114542724609375,-1.6735470294952393,1.968033790588379,-4.393360137939453
1766401977990552300,5.12455224609375,-1.4389152526855469,2.0661959648132324,-4.122815132141113
1766401978040601300,5.174601318359375,0.6392518281936646,-0.5722141861915588,-2.978386878967285
1766401978050611000,5.18461083984375,0.8236053586006165,-0.5722141861915588,-2.889801502227783
1766401978060590300,5.19459033203125,0.8858546018600464,-0.569819986820221,-2.7317841053009033
1766401978070600000,5.204599853515625,0.9050082564353943,-1.2521674633026123,-2.5115175247192383
1766401978080609800,5.21460986328125,1.1324573755264282,-1.2186486721038818,-2.2840683460235596
1766401978090619600,5.22461962890625,1.1659762859344482,-0.9576807022094727,-1.8507179021835327
1766401978100659700,5.23465966796875,1.1635819673538208,-1.1994950771331787,-2.0446481704711914
1766401978130689000,5.26468896484375,2.8993782997131348,-0.2513911724090576,-1.2018892765045166
1766401978140729300,5.274729248046875,2.9879636764526367,-0.6440402865409851,-0.43335050344467163
1766401978150739200,5.2847392578125,2.978386878967285,-1.3910311460494995,-0.12689268589019775
1766401978160779500,5.294779541015625,2.889801502227783,-1.6903064250946045,-0.181959331035614
1766401978170789000,5.3047890625,2.5905263423919678,-1.9249382019042969,-0.16759411990642548
1766401978180799000,5.314799072265625,1.9728221893310547,-1.9536685943603516,-0.1388636976480484
1766401978190808800,5.324808837890625,1.290474772453308,-2.169146776199341,-0.21308395266532898
1766401978200818400,5.334818359375,0.6823474764823914,-2.8562827110290527,0.35913026332855225
1766401978220838100,5.354838134765625,0.7852981686592102,-2.3774423599243164,-0.090979665517807
1766401978230817300,5.3648173828125,0.9911994934082031,-2.2912509441375732,-0.2513911724090576
1766401978240888000,5.37488818359375,1.5083470344543457,-1.1899182796478271,-0.6177040338516235
1766401978250898000,5.38489794921875,1.5634137392044067,-0.2513911724090576,-0.19153612852096558
1766401978260907500,5.394907470703125,1.3215993642807007,0.667982280254364,0.31842881441116333
1766401978270917400,5.40491748046875,0.7805097699165344,0.790086567401886,0.272938996553421
1766401978280927200,5.41492724609375,0.090979665517807,0.7182605266571045,0.33279404044151306
1766401978290906400,5.42490625,-0.49559974670410156,0.9097966551780701,0.35913026332855225
1766401978320935700,5.454935791015625,-0.002394201699644327,0.08140286058187485,0.011971008032560349
1766401978340985900,5.47498583984375,-0.3663128614425659,-0.7948749661445618,0.9026140570640564
1766401978350995500,5.484995361328125,-0.40222588181495667,-0.9911994934082031,0.40940847992897034
1766401978361005300,5.49500537109375,-0.2585737705230713,-1.4245500564575195,0.11013327538967133
1766401978371015200,5.50501513671875,-0.047884032130241394,-1.4844050407409668,0.026336219161748886
1766401978381024800,5.515024658203125,0.26096799969673157,-1.1085153818130493,-0.40940847992897034
1766401978391034600,5.52503466796875,0.21308395266532898,-0.5171475410461426,0.021547814831137657
1766401978401044500,5.53504443359375,-0.3663128614425659,-0.08379705995321274,0.23702596127986908
1766401978461164000,5.5951640625,0.0694318488240242,0.7254431247711182,-0.44771572947502136
1766401978471173600,5.605173583984375,0.0454898327589035,1.0606313943862915,-0.26336219906806946
1766401978481153000,5.615153076171875,-0.2849099934101105,1.2832920551300049,-0.2825157940387726
1766401978491163000,5.625162841796875,-0.07661445438861847,1.216254472732544,-0.3711012601852417
1766401978501172500,5.63517236328125,-0.49559974670410156,0.8427590131759644,-0.038307227194309235
1766401978511182300,5.645182373046875,-0.5267243981361389,0.5291185975074768,-0.07900865375995636
1766401978531201800,5.665201904296875,-0.031124621629714966,0.790086567401886,-0.17477671802043915
1766401978541211600,5.675211669921875,-0.17717093229293823,0.5817909836769104,-0.2753331959247589
1766401978551221200,5.68522119140625,-0.30885201692581177,0.8212111592292786,-0.2561795711517334
1766401978561231000,5.695231201171875,-0.2992752194404602,1.1803414821624756,-0.021547814831137657
1766401978571241000,5.705240966796875,-0.751779317855835,0.6943184733390808,-0.19393034279346466
1766401978581250600,5.71525048828125,-0.5722141861915588,0.6416460275650024,-0.7038952708244324
1766401978591260400,5.725260498046875,-0.4620809257030487,1.070208191871643,-0.9074024558067322
1766401978601270300,5.735270263671875,-0.4812345504760742,1.213860273361206,-1.2665326595306396
1766401978611249400,5.74524951171875,-0.4141969084739685,1.9512743949890137,-1.8315643072128296
1766401978621289700,5.755289794921875,-0.3495534360408783,3.2345664501190186,-1.8818424940109253
1766401978651319000,5.785319091796875,-1.8315643072128296,2.7006595134735107,-1.7310078144073486
1766401978661329000,5.795328857421875,-2.2601263523101807,3.1004912853240967,-2.051830768585205
1766401978671338500,5.80533837890625,-2.542642116546631,3.1866824626922607,-2.0470423698425293
1766401978681348400,5.815348388671875,-3.069366693496704,2.8107926845550537,-1.7860745191574097
1766401978691327500,5.825327392578125,-3.177105665206909,2.736572504043579,-1.525106430053711
1766401978701337300,5.83533740234375,-3.4739866256713867,2.58813214302063,-1.237802267074585
1766401978711347200,5.84534716796875,-3.9887399673461914,1.9345149993896484,-0.4836287498474121
1766401978721356800,5.855356689453125,-4.034229755401611,1.5849615335464478,0.002394201699644327
1766401978731366700,5.86536669921875,-3.8498764038085938,1.6208745241165161,-0.07661445438861847
1766401978751386000,5.88538623046875,-4.5825018882751465,1.6496049165725708,-0.05027823522686958
1766401978761396000,5.89539599609375,-5.015852451324463,1.5322890281677246,0.3663128614425659
1766401978771405600,5.905405517578125,-5.439626216888428,0.4189853072166443,1.280897855758667
1766401978781446000,5.91544580078125,-5.568912982940674,-0.43335050344467163,2.10210919380188
1766401978791455700,5.925455810546875,-5.377377033233643,-0.6200982332229614,2.580949544906616
1766401978801496000,5.93549609375,-4.4292731285095215,-0.6871358752250671,2.6360161304473877
1766401978811505700,5.945505615234375,-3.818751811981201,-1.0295066833496094,2.5306711196899414
1766401978821546000,5.9555458984375,-3.552995204925537,-1.965639591217041,2.671929121017456
1766401978831495000,5.965494873046875,-2.9688100814819336,-2.5115175247192383,2.875436305999756
1766401978851514400,5.985514404296875,-2.1332337856292725,-2.0039467811584473,3.1675288677215576
1766401978871533800,6.005533935546875,0,-3.861847400665283,2.561795711517334
1766401978881574100,6.01557421875,0.9481038451194763,-4.213795185089111,2.6886885166168213
1766401978891584000,6.025583984375,1.2449848651885986,-3.711012601852417,2.892195701599121
1766401978901593600,6.035593505859375,1.1635819673538208,-3.2154128551483154,3.160346269607544
1766401978911573000,6.045572998046875,0.6105214357376099,-2.8155810832977295,3.375824451446533
1766401978921613300,6.05561328125,0.3878606855869293,-2.669534921646118,3.2824504375457764
1766401978931623000,6.065622802734375,1.0223240852355957,-3.157952070236206,2.851494312286377
1766401978941632800,6.0756328125,1.9704279899597168,-4.352658748626709,2.2577321529388428
1766401978951642600,6.085642578125,2.650381326675415,-5.157110691070557,2.056619167327881
1766401978961652200,6.09565234375,3.5003228187561035,-4.548983097076416,1.9129672050476074
1766401978971662000,6.105662109375,3.799597978591919,-2.9688100814819336,1.2641384601593018
1766401978981671700,6.115671630859375,3.4093432426452637,-1.8842366933822632,0.7134721279144287
1766401978991651000,6.125651123046875,2.049436569213867,-1.5490485429763794,0.5985504388809204
1766401979001661000,6.135660888671875,0.849941611289978,-1.455674648284912,0.40940847992897034
1766401979011670500,6.14567041015625,0.18914192914962769,-1.8579005002975464,-0.028730420395731926
1766401979021680400,6.155680419921875,0.1149216815829277,-2.516305923461914,-0.16759411990642548
1766401979031690200,6.165690185546875,0.3064578175544739,-1.9393033981323242,-0.24420857429504395
1766401979041730300,6.175730224609375,0.6320692300796509,-0.8044517636299133,-0.5602431893348694
1766401979051740200,6.185740234375,0.4429273009300232,-0.9241618514060974,-0.8762778043746948
1766401979081769500,6.21576953125,1.2066776752471924,-1.4508862495422363,-1.9704279899597168
1766401979091748600,6.22574853515625,1.137245774269104,-1.522712230682373,-2.3056161403656006
1766401979101758500,6.235758544921875,1.0103530883789062,-1.0558429956436157,-2.0374655723571777
1766401979111768300,6.245768310546875,0.6129156351089478,-0.2968810200691223,-1.7597382068634033
1766401979121778000,6.25577783203125,0.5961562395095825,0.8643068075180054,-1.4413094520568848
1766401979131818200,6.265818359375,-0.19871874153614044,0.5650315880775452,-1.3886369466781616
1766401979141858600,6.275858642578125,-0.4692635238170624,0.15322890877723694,-1.434126853942871
1766401979151868400,6.285868408203125,-0.5386953949928284,0.21547815203666687,-1.3215993642807007
1766401979181897700,6.315897705078125,0.33518823981285095,-0.35434186458587646,-1.3263877630233765
1766401979191907300,6.3259072265625,0.8140285611152649,0.5746083855628967,-0.9864110946655273
1766401979201917200,6.335917236328125,1.0630255937576294,0.9552865028381348,-0.9409212470054626
1766401979211927000,6.345927001953125,0.5889736413955688,0.08379705995321274,-0.7948749661445618
1766401979221936600,6.3559365234375,0.49799394607543945,-0.38546648621559143,-0.6033388376235962
1766401979231946500,6.365946533203125,0.13407529890537262,0.43095630407333374,-0.33997663855552673
1766401979241956400,6.375956298828125,-0.629675030708313,0.33518823981285095,-0.2298433631658554
1766401979251966000,6.385966064453125,-1.1037269830703735,0.22505496442317963,-0.17956513166427612
1766401979261975800,6.395975830078125,-1.2976573705673218,0.5530605912208557,-0.1867477297782898
1766401979271955000,6.405954833984375,-1.0462661981582642,0.5339069962501526,0.17956513166427612
1766401979292066000,6.426066162109375,-0.6871358752250671,0.10773907601833344,0.49799394607543945
1766401979302106400,6.4361064453125,-0.5315127968788147,-0.4644751250743866,0.8307880163192749
1766401979312116200,6.4461162109375,-0.3280056416988373,0.043095629662275314,0.8068459630012512
1766401979322156500,6.456156494140625,-0.6871358752250671,-0.545877993106842,0.7733271718025208
1766401979332166100,6.466166259765625,-1.05105459690094,-0.7326257228851318,0.7972691655158997
1766401979342176000,6.476176025390625,-1.1109095811843872,-0.6560112833976746,0.9864110946655273
1766401979352185600,6.486185546875,-1.2306196689605713,-0.5602431893348694,1.1109095811843872
1766401979362226000,6.496225830078125,-1.7477672100067139,-1.2306196689605713,1.070208191871643
1766401979392224800,6.526224853515625,0.3734954595565796,0.043095629662275314,0.3519476354122162
1766401979402234600,6.536234619140625,0.6584054827690125,0.06703764945268631,0.6153098344802856
1766401979412244200,6.546244140625,0.6607996821403503,0.3016694188117981,0.4836287498474121
1766401979422254000,6.556254150390625,0.19871874153614044,0.45250412821769714,0.2106897532939911
1766401979432264000,6.566263916015625,-0.11971008777618408,0.6440402865409851,0.524330198764801
1766401979442304000,6.576303955078125,-0.43095630407333374,1.0749965906143188,0.689530074596405
1766401979452344300,6.58634423828125,-0.6009446382522583,0.7038952708244324,0.6631938815116882
1766401979462384600,6.596384521484375,-0.6631938815116882,0.3519476354122162,0.7541735172271729
1766401979472394500,6.60639453125,-0.33039984107017517,0.3423708379268646,0.5482721924781799
1766401979492414000,6.6264140625,0.07422025501728058,-0.3663128614425659,0.38307225704193115
1766401979502454300,6.636454345703125,-0.06464344263076782,-0.13407529890537262,0.31124621629714966
1766401979512464100,6.646464111328125,-0.5339069962501526,-0.2585737705230713,0.4668693244457245
1766401979522504400,6.65650439453125,-0.14604631066322327,-0.035913024097681046,0.3016694188117981
1766401979532514000,6.66651416015625,0.7015010714530945,0.272938996553421,0.031124621629714966
1766401979542524000,6.67652392578125,1.4915876388549805,0.37828385829925537,-0.3687070608139038
1766401979552533500,6.686533447265625,1.9345149993896484,0.5578489899635315,-0.4405331015586853
1766401979562543400,6.69654345703125,2.367865562438965,1.338358759880066,-0.5650315880775452
1766401979572553200,6.70655322265625,2.782062292098999,1.8195933103561401,-0.8930372595787048
1766401979582562800,6.716562744140625,2.207453966140747,1.8818424940109253,-1.0654197931289673
1766401979632611800,6.76661181640625,1.534683346748352,-0.7422025203704834,-2.3750481605529785
1766401979642713000,6.776713134765625,1.6089035272598267,-0.5937620401382446,-2.2361843585968018
1766401979652661800,6.786661865234375,1.4987702369689941,-0.4644751250743866,-2.274491548538208
1766401979662702000,6.7967021484375,0.8403648138046265,-1.6496049165725708,-2.0877439975738525
1766401979672681200,6.80668115234375,0.3280056416988373,-2.9281086921691895,-1.8962076902389526
1766401979682691000,6.816691162109375,0.4357447028160095,-1.9776105880737305,-1.6089035272598267
1766401979692701000,6.826700927734375,0.12928688526153564,-1.3838485479354858,-0.8236053586006165
1766401979722699500,6.856699462890625,0.8140285611152649,-0.31124621629714966,0.040701430290937424
1766401979732739800,6.86673974609375,0.5937620401382446,0.8331822156906128,0.20350714027881622
1766401979742780200,6.8767802734375,0.45010992884635925,2.121262788772583,0.5578489899635315
1766401979752759600,6.886759521484375,0.1628057211637497,3.1100680828094482,1.170764684677124
1766401979762769200,6.89676904296875,-0.42856210470199585,4.410119533538818,1.7046716213226318
1766401979772779000,6.906779052734375,-0.545877993106842,5.710171222686768,1.8148049116134644
1766401979782819300,6.9168193359375,0.040701430290937424,6.48828649520874,2.008735179901123
1766401979832807200,6.96680712890625,0.22505496442317963,-2.3558945655822754,1.0869675874710083
1766401979842816800,6.976816650390625,0.3902548849582672,-0.1173158809542656,1.6352397203445435
1766401979852857000,6.986857177734375,0.4381389021873474,-0.23702596127986908,1.5873557329177856
1766401979862867000,6.996866943359375,0.49799394607543945,1.4173674583435059,2.5234885215759277
1766401979872907300,7.0069072265625,-0.023942016065120697,1.6112977266311646,3.19865345954895
1766401979882947300,7.016947265625,-0.7398083209991455,0.9624691009521484,3.7684733867645264
1766401979892987600,7.026987548828125,-0.38546648621559143,1.3407529592514038,4.266467571258545
1766401979912976600,7.0469765625,-0.5051765441894531,1.2497732639312744,4.896142482757568
1766401979923017000,7.057016845703125,-0.8212111592292786,0.10295066982507706,4.388571739196777
1766401979933026800,7.06702685546875,-1.2617442607879639,-0.15083470940589905,3.7708675861358643
1766401979943036700,7.07703662109375,-2.056619167327881,0.6727706789970398,3.861847400665283
1766401979953015800,7.087015869140625,-2.6431987285614014,1.2545616626739502,4.163516521453857
1766401979963025700,7.097025634765625,-3.308786630630493,0.9002198576927185,4.206612586975098
1766401979973065700,7.107065673828125,-3.1938650608062744,-0.17956513166427612,4.060565948486328
1766401979983075600,7.11707568359375,-3.0885202884674072,-1.0223240852355957,3.5170822143554688
1766401979993085400,7.12708544921875,-2.4420857429504395,-1.9129672050476074,3.1100680828094482
1766401980033155000,7.167155029296875,0.07661445438861847,-3.9911341667175293,0.24420857429504395
1766401980043164700,7.17716455078125,0.47165772318840027,-2.9735984802246094,-0.40701428055763245
1766401980053174500,7.187174560546875,0.7134721279144287,-1.7956513166427612,-0.6799532771110535
1766401980063184100,7.19718408203125,0.7158663272857666,-1.0199298858642578,-1.1444283723831177
1766401980073163500,7.20716357421875,0.7613561153411865,-0.706289529800415,-1.8100165128707886
1766401980083173400,7.21717333984375,1.4317326545715332,-0.7805097699165344,-2.5258827209472656
1766401980093213400,7.22721337890625,5.166687488555908,-5.65031623840332,-3.507505416870117
1766401980113263600,7.247263671875,9.746794700622559,-11.346121788024902,-6.598419666290283
1766401980123242800,7.25724267578125,8.71489429473877,-0.2849099934101105,-4.649539470672607
1766401980133283000,7.267282958984375,3.5170822143554688,2.0374655723571777,-2.389413356781006
1766401980143293000,7.27729296875,-1.7932571172714233,-2.10210919380188,-0.009576806798577309
1766401980153302800,7.287302734375,-4.034229755401611,-4.843470096588135,0.5171475410461426
1766401980163282000,7.297281982421875,-3.7253777980804443,-3.557783842086792,-0.2992752194404602
1766401980173352700,7.307352783203125,-2.806004285812378,-1.1420341730117798,-1.1540051698684692
1766401980183362600,7.317362548828125,-3.2537200450897217,1.7621324062347412,-2.0207061767578125
1766401980193372200,7.3273720703125,-3.7229835987091064,3.6391866207122803,-2.1595699787139893
1766401980203412500,7.33741259765625,-3.2345664501190186,4.584896087646484,-1.7764976024627686
1766401980233441800,7.36744189453125,-2.030282974243164,8.214506149291992,3.56017804145813
1766401980243451600,7.37745166015625,0.8906430602073669,5.851428985595703,1.2689268589019775
1766401980253492000,7.387491943359375,0.12449848651885986,2.142810583114624,0
1766401980263501600,7.39750146484375,0.8810662031173706,-2.9017724990844727,-1.359906554222107
1766401980273511400,7.407511474609375,0.7445967197418213,-5.664681434631348,-2.319981336593628
1766401980283490600,7.417490478515625,0.4908113479614258,-6.09324312210083,-2.4396915435791016
1766401980293531000,7.42753076171875,0.05985504388809204,-3.2106244564056396,-2.054224967956543
1766401980303601700,7.4376015625,0.14365209639072418,1.048660397529602,-1.3670891523361206
1766401980333600500,7.4676005859375,-0.49320554733276367,1.6543933153152466,0.7589619159698486
1766401980343640800,7.477640869140625,-1.0606313943862915,-0.05267243832349777,0.9002198576927185
1766401980353620000,7.487619873046875,-0.545877993106842,-0.26336219906806946,0.9888052940368652
1766401980363660300,7.497660400390625,0.06464344263076782,0.16519992053508759,1.01753568649292
1766401980373700600,7.50770068359375,-0.016759412363171577,0.8690952062606812,0.9361328482627869
1766401980383679700,7.5176796875,-0.043095629662275314,-0.3734954595565796,0.9289502501487732
1766401980393689600,7.527689697265625,0.2059013396501541,-1.2473790645599365,1.1180921792984009
1766401980403730000,7.53772998046875,0.26575639843940735,-1.1851298809051514,1.4652514457702637
1766401980413770200,7.547770263671875,-0.040701430290937424,-0.9265560507774353,1.3551181554794312
1766401980443799600,7.577799560546875,1.0271124839782715,1.338358759880066,0.304063618183136
1766401980453840000,7.58783984375,1.0319008827209473,1.2449848651885986,0.011971008032560349
1766401980463849500,7.597849365234375,0.608127236366272,0.8020575642585754,-0.11013327538967133
1766401980473859300,7.607859375,0.06464344263076782,-0.1843535304069519,0.14365209639072418
1766401980483838500,7.61783837890625,-0.38307225704193115,-1.094150185585022,0.3447650372982025
1766401980493878800,7.627878662109375,-0.24181437492370605,-1.6328455209732056,0.7134721279144287
1766401980503888600,7.637888671875,-0.42856210470199585,-1.6663644313812256,1.0319008827209473
1766401980513898200,7.647898193359375,-0.4118026793003082,-1.5682021379470825,1.2330138683319092
1766401980523938600,7.6579384765625,-0.6871358752250671,-1.3192051649093628,1.0821791887283325
1766401980594068000,7.72806787109375,-0.9552865028381348,-0.9481038451194763,-0.4668693244457245
1766401980604047400,7.73804736328125,-1.2330138683319092,-1.0965443849563599,-0.16998831927776337
1766401980614087700,7.748087646484375,-0.9050082564353943,-0.8954314589500427,-0.10773907601833344
1766401980624127700,7.758127685546875,-1.3000515699386597,-0.5315127968788147,-0.05985504388809204
1766401980634137600,7.7681376953125,-0.8331822156906128,-0.4908113479614258,-0.15801730751991272
1766401980644117000,7.778116943359375,-0.507570743560791,-0.586579442024231,-0.16519992053508759
1766401980664197400,7.798197265625,-0.5051765441894531,-1.678335428237915,0.15322890877723694
1766401980674176800,7.8081767578125,-0.6967126727104187,-1.5610195398330688,0.5650315880775452
1766401980684186400,7.818186279296875,-0.028730420395731926,-0.9696516990661621,0.6248866319656372
1766401980694196200,7.8281962890625,0.6512228846549988,0.043095629662275314,0.7709329724311829
1766401980704206000,7.8382060546875,0.4692635238170624,0.023942016065120697,1.039083480834961
1766401980714215700,7.848215576171875,0.21308395266532898,-0.5913678407669067,1.4317326545715332
1766401980724225500,7.8582255859375,-0.4381389021873474,-1.359906554222107,1.7190368175506592
1766401980734265900,7.868265869140625,-0.507570743560791,-1.9728221893310547,1.2689268589019775
1766401980744275500,7.878275390625,-0.1149216815829277,-1.5538369417190552,0.4908113479614258
1766401980784314600,7.918314697265625,0.9888052940368652,1.3407529592514038,-0.33279404044151306
1766401980794293800,7.928293701171875,1.4532804489135742,1.8938134908676147,-0.5937620401382446
1766401980804303600,7.9383037109375,1.6711528301239014,2.8203697204589844,-0.9816226959228516
1766401980814313500,7.9483134765625,1.680729627609253,3.222595453262329,-1.5490485429763794
1766401980834333000,7.9683330078125,0.26815059781074524,-0.20350714027881622,-1.5179238319396973
1766401980844342800,7.9783427734375,-0.6703764796257019,-0.6440402865409851,-1.1492167711257935
1766401980854322000,7.988322021484375,-0.9145850539207458,-0.6105214357376099,-1.036689281463623
1766401980874341400,8.00834130859375,-1.280897855758667,3.4955344200134277,0.07661445438861847
1766401980884381700,8.018381591796874,-1.2856862545013428,4.01268196105957,0.586579442024231
1766401980894391600,8.0283916015625,-1.2258312702178955,3.974374771118164,0.8164227604866028
1766401980904431900,8.038431884765625,-0.9313444495201111,3.3470940589904785,0.31842881441116333
1766401980914411000,8.048410888671874,-0.3280056416988373,2.279279947280884,-0.9169792532920837
1766401980924451300,8.058451416015625,0.5363011956214905,1.01753568649292,-1.6160861253738403
1766401980934461200,8.068461181640625,1.647210717201233,-0.507570743560791,-1.601720929145813
1766401980954450200,8.0884501953125,3.335123062133789,-3.380612850189209,-1.802833914756775
1766401980964459800,8.098459716796874,2.5067291259765625,-3.914519786834717,-1.9560627937316895
1766401980994458600,8.128458740234375,-2.123656988143921,-1.5897499322891235,-0.004788403399288654
1766401981004468500,8.138468505859375,-2.255337953567505,-1.359906554222107,0.43095630407333374
1766401981014447600,8.148447509765624,-2.9472622871398926,-1.1444283723831177,0.21308395266532898
1766401981024457500,8.15845751953125,-2.0446481704711914,-0.5722141861915588,0.12689268589019775
1766401981034436600,8.1684365234375,-1.5442601442337036,0.2106897532939911,0.1867477297782898
1766401981044446500,8.178446533203125,-1.1013327836990356,-1.1994950771331787,0.4118026793003082
1766401981054425600,8.188425537109374,-0.569819986820221,-1.3048399686813354,0.6129156351089478
1766401981084546600,8.218546630859375,-0.27054479718208313,1.1635819673538208,0.8619126081466675
1766401981094525700,8.228525634765624,-1.0414776802062988,0.7541735172271729,0.5770025849342346
1766401981104535600,8.23853564453125,-1.6376339197158813,0.24181437492370605,0.730231523513794
1766401981114545400,8.24854541015625,-1.9321208000183105,-2.0398597717285156,0.5291185975074768
1766401981124555000,8.258554931640624,-1.5825673341751099,-1.6352397203445435,0.6799532771110535
1766401981134564900,8.26856494140625,-0.36152446269989014,-0.7422025203704834,0.43335050344467163
1766401981144605200,8.278605224609375,-0.3902548849582672,-1.7980455160140991,0.6224924325942993
1766401981154615000,8.288614990234375,-0.44532153010368347,-1.8746598958969116,0.667982280254364
1766401981164624600,8.298624755859375,0.05746084079146385,-0.9528923034667969,0.7613561153411865
1766401981174604000,8.30860400390625,-0.1604115068912506,0.7110779285430908,0.6607996821403503
1766401981204663800,8.338663818359375,-1.2737152576446533,2.2194249629974365,0.07182604819536209
1766401981214643000,8.348642822265624,-1.213860273361206,2.6862943172454834,-0.22026655077934265
1766401981234662400,8.368662353515624,2.537853717803955,1.522712230682373,-0.8427590131759644
1766401981244672300,8.37867236328125,3.4979286193847656,-1.1851298809051514,-0.7733271718025208
1766401981254651600,8.388651611328125,2.382230758666992,-1.821987509727478,0.3208230137825012
1766401981264691700,8.398691650390624,2.341529369354248,-1.7334020137786865,0.3734954595565796
1766401981274701600,8.40870166015625,1.05105459690094,-1.4939818382263184,0.6057330369949341
1766401981284711400,8.41871142578125,0.23942017555236816,-2.229001760482788,0.7613561153411865
1766401981294721000,8.428720947265624,-0.3663128614425659,-4.405331134796143,0.45250412821769714
1766401981314710000,8.4487099609375,-0.028730420395731926,-4.790797710418701,1.2282254695892334
1766401981324719900,8.458719970703125,0.1628057211637497,-3.912125587463379,1.0869675874710083
1766401981334729700,8.468729736328125,0.9050082564353943,-3.1004912853240967,0.7015010714530945
1766401981344739300,8.4787392578125,0.507570743560791,-3.1699230670928955,0.15562310814857483
1766401981354749200,8.488749267578125,-0.689530074596405,-3.442862033843994,-0.0454898327589035
1766401981364789500,8.49878955078125,-1.1276689767837524,-2.2361843585968018,0.1628057211637497
1766401981414838300,8.54883837890625,-0.15083470940589905,1.139639973640442,-1.3694833517074585
1766401981424848100,8.55884814453125,-0.5339069962501526,0.7350199222564697,-1.3072341680526733
1766401981434857700,8.568857666015624,-0.48602294921875,-0.5841852426528931,-1.4173674583435059
1766401981444867600,8.57886767578125,-1.436521053314209,-0.3998316824436188,-1.7286136150360107
1766401981454847000,8.588846923828125,-2.0015525817871094,-0.8547300100326538,-1.4245500564575195
1766401981464887000,8.598886962890624,-1.6759412288665771,-1.1971008777618408,-0.3280056416988373
1766401981474897000,8.60889697265625,-1.8291701078414917,0.5171475410461426,0.6248866319656372
1766401981514936000,8.64893603515625,0.22505496442317963,3.88818359375,1.0869675874710083
1766401981524915200,8.658915283203125,-0.19153612852096558,2.425326347351074,-1.0079588890075684
1766401981534925000,8.668925048828125,-0.5386953949928284,0.5937620401382446,-1.7405846118927002
1766401981544965400,8.67896533203125,-0.05985504388809204,-0.4620809257030487,-1.745373010635376
1766401981554944500,8.688944580078125,4.039018154144287,0.5434837937355042,-1.8363527059555054
1766401981564984800,8.69898486328125,4.99669885635376,1.9512743949890137,-0.22505496442317963
1766401981574964000,8.7089638671875,3.627215623855591,1.3742717504501343,1.4437036514282227
1766401981584973800,8.718973876953125,1.3958195447921753,-0.009576806798577309,1.946485996246338
1766401981615033600,8.74903369140625,0.5578489899635315,-0.11252748221158981,-0.363918662071228
1766401981625043500,8.75904345703125,0.4118026793003082,-0.7829039692878723,-0.6943184733390808
1766401981635053000,8.769052978515624,0.9409212470054626,-1.2186486721038818,-0.8236053586006165
1766401981645093400,8.77909326171875,0.9911994934082031,-1.0007762908935547,0.17717093229293823
1766401981655103200,8.789103271484375,-0.20350714027881622,-1.3694833517074585,0.9624691009521484
1766401981665113000,8.799113037109375,-1.070208191871643,-0.9576807022094727,1.1971008777618408
1766401981675122700,8.809122802734375,-1.0821791887283325,0.2322375625371933,0.9840168952941895
1766401981685132500,8.819132568359375,-0.8523358106613159,0.304063618183136,0.7709329724311829
1766401981715192300,8.8491923828125,0.2106897532939911,0.7972691655158997,0.2849099934101105
1766401981745252000,8.879252197265625,-1.37906014919281,-3.4165258407592773,-0.8954314589500427
1766401981755262000,8.889261962890625,-1.381454348564148,-3.2776620388031006,-1.4437036514282227
1766401981765271600,8.899271484375,-0.2825157940387726,-0.8786720037460327,-1.0271124839782715
1766401981775281400,8.909281494140625,0.8547300100326538,1.161187767982483,-0.5506663918495178
1766401981785291300,8.919291259765625,1.0295066833496094,2.964021682739258,0.272938996553421
1766401981805310700,8.939310791015625,-0.17956513166427612,2.7557260990142822,2.4636335372924805
1766401981845410800,8.979410888671875,-0.8451532125473022,-0.608127236366272,-0.8068459630012512
1766401981855420700,8.989420654296875,-0.8834604024887085,-2.2433669567108154,-1.5897499322891235
1766401981865430300,8.99943017578125,-1.3096283674240112,-1.3862427473068237,-2.0015525817871094
1766401981875440000,9.009440185546875,-1.048660397529602,-0.7709329724311829,-1.6543933153152466
1766401981885450000,9.019449951171875,-0.19393034279346466,-0.24899697303771973,-0.6584054827690125
1766401981925489000,9.059489013671875,0.3878606855869293,3.2776620388031006,-1.072602391242981
1766401981935498800,9.069498779296875,-0.5746083855628967,2.051830768585205,-1.0630255937576294
1766401981945508400,9.07950830078125,-1.556231141090393,0.5602431893348694,-1.0678139925003052
1766401981955518200,9.089518310546875,-3.0837318897247314,-1.5155296325683594,-1.5442601442337036
1766401981965528000,9.099528076171875,-3.1100680828094482,-1.4628572463989258,-1.5298948287963867
1766401981975537700,9.10953759765625,-3.8738183975219727,-2.6168625354766846,-1.9369091987609863
1766401981985578000,9.119577880859374,-2.4157495498657227,-1.9991583824157715,-2.2601263523101807
1766401981995587800,9.129587890625,0.22026655077934265,-0.9744400978088379,-2.470816135406494
1766401982005628200,9.139628173828125,1.8962076902389526,0.07900865375995636,-1.9584569931030273
1766401982055737900,9.18973779296875,-0.15562310814857483,-1.98958158493042,1.094150185585022
1766401982065747700,9.199747802734375,-0.3471592366695404,-3.045424461364746,-0.1364694982767105
1766401982075757600,9.209757568359375,0.0933738648891449,-2.2625205516815186,-0.933738648891449
1766401982085798000,9.2197978515625,0.3256114423274994,-1.4844050407409668,-1.3527239561080933
1766401982095807500,9.229807373046874,2.387019157409668,2.1284453868865967,0.07661445438861847
1766401982105817300,9.2398173828125,3.0837318897247314,3.9815573692321777,1.8962076902389526
1766401982125867300,9.2598671875,1.644816517829895,0.8212111592292786,3.5482068061828613
1766401982135877000,9.269877197265625,-0.2825157940387726,0.29209262132644653,2.2146365642547607
1766401982145917400,9.27991748046875,-1.2258312702178955,0.35673606395721436,0.6967126727104187
1766401982155896600,9.289896484375,-1.9273324012756348,-0.6033388376235962,-0.16519992053508759
1766401982165906400,9.299906494140625,-1.4389152526855469,-1.5538369417190552,-0.9624691009521484
1766401982175916300,9.309916259765625,-0.9217676520347595,-1.7693150043487549,-1.3886369466781616
1766401982185926000,9.31992578125,0.33518823981285095,-0.7374141216278076,-1.1971008777618408
1766401982195935700,9.329935791015625,2.3487119674682617,1.1300631761550903,-0.6655880808830261
1766401982205945600,9.339945556640625,2.8227639198303223,1.2713210582733154,0.28730419278144836
1766401982215955200,9.349955078125,1.625662922859192,0.790086567401886,1.3982137441635132
1766401982266004000,9.40000390625,-0.5482721924781799,-0.6153098344802856,-1.2449848651885986
1766401982286054100,9.42005419921875,0.5434837937355042,0.8140285611152649,-0.8355764150619507
1766401982296064000,9.43006396484375,0.2585737705230713,1.1492167711257935,0.2298433631658554
1766401982306104000,9.44010400390625,0.9026140570640564,0.9696516990661621,1.381454348564148
1766401982316114000,9.450114013671875,1.039083480834961,1.2282254695892334,2.2840683460235596
1766401982346143200,9.480143310546875,-2.1715409755706787,0.7398083209991455,0.028730420395731926
1766401982356153000,9.490153076171875,-2.2361843585968018,0.608127236366272,-0.7637503147125244
1766401982366193400,9.500193359375,-2.118868589401245,-1.1994950771331787,-1.2617442607879639
1766401982376172500,9.510172607421875,-1.259350061416626,-3.6798880100250244,-1.4915876388549805
1766401982386182400,9.520182373046875,-0.09576806426048279,-4.752490520477295,-1.7477672100067139
1766401982406232300,9.540232421875,2.537853717803955,1.9800047874450684,-0.272938996553421
1766401982416242200,9.5502421875,2.7748796939849854,3.512293815612793,1.1085153818130493
1766401982436261600,9.57026171875,-1.4867992401123047,-0.07422025501728058,1.8171991109848022
1766401982456250600,9.590250732421875,-1.6184803247451782,-0.7565677165985107,0.2346317619085312
1766401982466291000,9.600291015625,-0.6823474764823914,-0.7948749661445618,-0.6200982332229614
1766401982476300800,9.61030078125,0.33039984107017517,-1.6160861253738403,-0.8403648138046265
1766401982486310400,9.620310302734374,1.0199298858642578,-1.843535304069519,-0.5985504388809204
1766401982496320300,9.6303203125,0.6512228846549988,0.05027823522686958,0.17717093229293823
1766401982506330000,9.640330078125,0.45010992884635925,0.811634361743927,0.6488286852836609
1766401982516339700,9.650339599609374,-0.1173158809542656,1.0678139925003052,0.8906430602073669
1766401982526349600,9.660349609375,-0.5722141861915588,1.2545616626739502,1.0295066833496094
1766401982566327600,9.70032763671875,-1.3407529592514038,-0.31364041566848755,-0.4357447028160095
1766401982576337400,9.71033740234375,-1.0247182846069336,-1.6927006244659424,-1.1276689767837524
1766401982586347000,9.720346923828124,-0.19632454216480255,-1.889025092124939,-1.7836803197860718
1766401982596356900,9.73035693359375,0.28730419278144836,-1.9752163887023926,-1.4891934394836426
1766401982606366700,9.74036669921875,2.250549554824829,-1.8698714971542358,-0.6224924325942993
1766401982616376300,9.750376220703124,1.6400281190872192,-0.9959878921508789,0.33758243918418884
1766401982626386200,9.76038623046875,0.9145850539207458,0.5746083855628967,0.5650315880775452
1766401982636365300,9.770365234375,0.3016694188117981,0.8667010068893433,0.1867477297782898
1766401982656415500,9.79041552734375,-0.8331822156906128,2.561795711517334,0.9744400978088379
1766401982666425300,9.80042529296875,-0.28730419278144836,2.873042106628418,0.9672574996948242
1766401982676404500,9.810404541015625,-0.23942017555236816,2.6575639247894287,0.9313444495201111
1766401982686475300,9.820475341796875,-0.4596867263317108,3.026270866394043,0.7086837291717529
1766401982696454400,9.830454345703124,-1.0271124839782715,2.2601263523101807,0.181959331035614
1766401982706464300,9.84046435546875,-1.2737152576446533,1.0965443849563599,-0.5770025849342346
1766401982716443600,9.850443603515625,-2.3535003662109375,1.8363527059555054,-0.9576807022094727
1766401982726453200,9.860453369140625,-1.900996208190918,2.6216509342193604,-0.8762778043746948
1766401982736493600,9.87049365234375,-2.7030537128448486,2.674323320388794,-1.0271124839782715
1766401982776563200,9.910563232421875,1.8387469053268433,-0.950498104095459,-1.53707754611969
1766401982786603500,9.920603515625,2.5905263423919678,-0.8523358106613159,-1.115697979927063
1766401982796613000,9.930613037109374,1.7621324062347412,-1.4748282432556152,-0.6200982332229614
1766401982806653400,9.9406533203125,0.524330198764801,-1.6950948238372803,-0.20350714027881622
1766401982816632800,9.9506328125,-0.19632454216480255,-1.2473790645599365,-0.5434837937355042
1766401982826642400,9.960642333984374,0.730231523513794,0.090979665517807,-1.048660397529602
1766401982836682800,9.970682861328125,1.9393033981323242,0.6272808313369751,-1.2545616626739502
1766401982856702200,9.9907021484375,2.2146365642547607,-0.3280056416988373,-0.33518823981285095
1766401982866712000,10.000712158203125,-0.33039984107017517,-2.250549554824829,-0.19871874153614044
1766401982876722000,10.010721923828125,-1.6136919260025024,-2.8634653091430664,0.0454898327589035
1766401982886762200,10.02076220703125,-0.524330198764801,-2.4803929328918457,0.24899697303771973
1766401982896771800,10.030771728515624,-0.2322375625371933,-1.381454348564148,0.28730419278144836
1766401982906842600,10.040842529296874,0.45489832758903503,-0.6560112833976746,0.727837324142456
1766401982926892800,10.060892822265625,1.721431016921997,0.8643068075180054,0.730231523513794
1766401982936902400,10.07090234375,1.1659762859344482,0.3926490843296051,1.2401964664459229
1766401982966962400,10.10096240234375,-0.3878606855869293,-1.05105459690094,1.2665326595306396
1766401982976972000,10.110971923828124,-0.304063618183136,-1.4939818382263184,0.19393034279346466
1766401982987012400,10.121012451171875,-0.7134721279144287,-0.3663128614425659,-0.10773907601833344
1766401982996991700,10.13099169921875,0.5961562395095825,-0.304063618183136,-0.08140286058187485
1766401983007001300,10.14100146484375,0.9672574996948242,0.16759411990642548,0.5889736413955688
1766401983017011200,10.15101123046875,-0.3256114423274994,0.4572925269603729,1.3096283674240112
1766401983027020800,10.161020751953124,-1.0007762908935547,0.5770025849342346,1.802833914756775
1766401983037030700,10.17103076171875,-0.8092401623725891,0.23942017555236816,1.4676456451416016
1766401983047040500,10.18104052734375,-0.8619126081466675,0.31124621629714966,0.5147533416748047
1766401983077100300,10.211100341796875,0.3471592366695404,1.1276689767837524,-0.12210428714752197
1766401983087110100,10.221110107421875,0.2968810200691223,0.40940847992897034,0.4165911078453064
1766401983097119700,10.23111962890625,0.7637503147125244,-1.5705963373184204,0.4884171485900879
1766401983107129600,10.241129638671875,0.29209262132644653,-2.0614075660705566,-0.15083470940589905
1766401983117139500,10.251139404296875,-0.11252748221158981,-0.4812345504760742,-0.13407529890537262
1766401983127179500,10.261179443359374,0.1628057211637497,1.3527239561080933,-0.14604631066322327
1766401983137219800,10.2712197265625,0.18914192914962769,2.10210919380188,-0.24899697303771973
1766401983147229700,10.281229736328125,-0.7876923680305481,1.845929503440857,-0.5434837937355042
1766401983157239600,10.291239501953125,-1.3670891523361206,1.137245774269104,-0.37828385829925537
1766401983187268600,10.3212685546875,0.15801730751991272,-1.742978811264038,-0.7948749661445618
1766401983197278500,10.331278564453125,1.113303780555725,-1.0845733880996704,-1.1563993692398071
1766401983207288300,10.341288330078125,1.8938134908676147,0.31124621629714966,-1.5394717454910278
1766401983217298000,10.3512978515625,2.1715409755706787,1.4676456451416016,-0.8786720037460327
1766401983227307800,10.361307861328125,1.2090718746185303,0.8906430602073669,-0.13168109953403473
1766401983237317600,10.371317626953125,0.09816227108240128,0.45250412821769714,-0.047884032130241394
1766401983247388400,10.381388427734375,-0.6775590777397156,-0.11971008777618408,0.028730420395731926
1766401983257367600,10.391367431640624,-0.7613561153411865,0.19393034279346466,-0.05267243832349777
1766401983287396900,10.42139697265625,0.21547815203666687,-0.6536170840263367,1.5634137392044067
1766401983297406700,10.43140673828125,0.2082955539226532,-2.0470423698425293,1.5969325304031372
1766401983307416300,10.441416259765624,0.9145850539207458,-2.31758713722229,1.414973258972168
1766401983317426200,10.45142626953125,1.05105459690094,-1.5729905366897583,1.3910311460494995
1766401983327436000,10.46143603515625,0.7206547260284424,-2.1092917919158936,0.5219359993934631
1766401983337445600,10.471445556640624,-0.026336219161748886,-3.265691041946411,0.10773907601833344
1766401983347486000,10.48148583984375,-0.090979665517807,-3.3039982318878174,-0.5147533416748047
1766401983357526300,10.4915263671875,-0.12689268589019775,-0.3519476354122162,-0.22505496442317963
1766401983367597000,10.50159716796875,0,2.1811177730560303,0.3447650372982025
1766401983397565400,10.5315654296875,-1.216254472732544,1.647210717201233,-0.038307227194309235
1766401983407605800,10.541605712890625,-1.5298948287963867,0.33518823981285095,-0.6033388376235962
1766401983417615400,10.551615478515625,-1.1109095811843872,0.08140286058187485,-0.9002198576927185
1766401983427655700,10.56165576171875,-0.9552865028381348,1.316810965538025,-0.7565677165985107
1766401983437665500,10.57166552734375,0.14844051003456116,2.341529369354248,-0.5506663918495178
1766401983447675100,10.581675048828124,0.45489832758903503,2.0661959648132324,-0.7709329724311829
1766401983457685000,10.59168505859375,-0.7015010714530945,1.4748282432556152,-1.039083480834961
1766401983467725300,10.601725341796875,-0.9385270476341248,-0.031124621629714966,-1.4389152526855469
1766401983497754600,10.631754638671875,2.300827741622925,-2.2697031497955322,-1.4197616577148438
1766401983507764200,10.64176416015625,2.205059766769409,-1.213860273361206,-0.5363011956214905
1766401983517774000,10.651774169921875,1.4437036514282227,-0.08140286058187485,1.3862427473068237
1766401983527814400,10.661814453125,2.3080103397369385,0.9888052940368652,1.6424223184585571
1766401983537793500,10.67179345703125,1.2952631711959839,0.7805097699165344,1.53707754611969
1766401983547833900,10.681833740234374,0.08140286058187485,-0.8403648138046265,1.3455413579940796
1766401983557843700,10.69184375,0.1867477297782898,-3.0861260890960693,0.07661445438861847
1766401983567884000,10.701884033203125,-1.6184803247451782,-3.797203779220581,0.8954314589500427
1766401983597913300,10.731913330078125,0.3902548849582672,1.039083480834961,0.8236053586006165
1766401983607923000,10.7419228515625,0.24181437492370605,1.5466543436050415,0.7757213711738586
1766401983617932800,10.751932861328125,-0.7350199222564697,0.7948749661445618,0.5027823448181152
1766401983627942700,10.761942626953125,-0.6153098344802856,-0.0694318488240242,0.6799532771110535
1766401983637952300,10.7719521484375,-1.9752163887023926,-0.6536170840263367,1.2617442607879639
1766401983647962000,10.781962158203125,-1.3766659498214722,0.26096799969673157,0.5339069962501526
1766401983657972000,10.791971923828125,-0.5937620401382446,-0.11971008777618408,-0.3232172429561615
1766401983667981600,10.801981689453125,-0.545877993106842,-2.0853497982025146,-0.7398083209991455
1766401983698011000,10.832010986328125,-1.7070658206939697,-0.6177040338516235,-1.335964560508728
1766401983708020700,10.842020751953125,-1.6831238269805908,2.070984363555908,-2.118868589401245
1766401983717999900,10.851999755859374,-0.1149216815829277,3.315969467163086,-2.827552318572998
1766401983728040200,10.862040283203125,0.11252748221158981,2.3319525718688965,-2.6024973392486572
1766401983738050000,10.872050048828125,-0.3471592366695404,0.24420857429504395,-2.1045033931732178
1766401983768079400,10.902079345703125,3.028665065765381,-0.2585737705230713,-0.8690952062606812
1766401983808179500,10.942179443359375,-0.5386953949928284,0.6560112833976746,0.4118026793003082
1766401983818219800,10.9522197265625,-0.9074024558067322,-0.18914192914962769,0.2537853717803955
1766401983828229400,10.9622294921875,-0.9169792532920837,-1.0893617868423462,0.33758243918418884
1766401983838239200,10.9722392578125,-1.173158884048462,-1.1228805780410767,0.4165911078453064
1766401983848248800,10.982248779296874,-1.5682021379470825,-0.47165772318840027,0.16759411990642548
1766401983858258700,10.9922587890625,-1.1899182796478271,0.23702596127986908,-0.07422025501728058
1766401983868268500,11.0022685546875,-0.5386953949928284,-0.10534487664699554,0.09576806426048279
1766401983878278100,11.012278076171874,-0.016759412363171577,-0.6512228846549988,0.2801215946674347
1766401983898328300,11.032328369140625,0.004788403399288654,-0.5746083855628967,0.6129156351089478
1766401983908399000,11.042399169921875,-0.5961562395095825,-0.36152446269989014,0.49799394607543945
1766401983918439400,11.052439453125,-0.9768342971801758,-1.194706678390503,0.2059013396501541
1766401983928449000,11.062448974609374,-0.6847416758537292,-2.535459518432617,-0.10055647045373917
1766401983938459000,11.072458984375,0.608127236366272,-2.96162748336792,0.10295066982507706
1766401983948468700,11.08246875,0.4405331015586853,-2.0925323963165283,0.507570743560791
1766401983958478300,11.092478271484374,-0.21787235140800476,-1.4293384552001953,0.5363011956214905
1766401983968488200,11.10248828125,-0.26336219906806946,-0.6655880808830261,0.608127236366272
1766401983978498000,11.112498046875,0.10295066982507706,0.14365209639072418,0.33279404044151306
1766401983988507600,11.122507568359374,-0.38546648621559143,0.2059013396501541,0.028730420395731926
1766401984008557800,11.142557861328125,-2.274491548538208,-0.5937620401382446,-0.8523358106613159
1766401984018537000,11.152536865234374,-1.2449848651885986,-1.113303780555725,-0.4429273009300232
1766401984028546800,11.162546875,-0.40222588181495667,-0.8092401623725891,0.035913024097681046
1766401984038556700,11.172556640625,-0.07182604819536209,0.07661445438861847,0.15083470940589905
1766401984048596700,11.1825966796875,-0.1867477297782898,1.53707754611969,-0.21547815203666687
1766401984058606600,11.192606689453125,-0.6967126727104187,1.522712230682373,-0.4596867263317108
1766401984068616400,11.202616455078125,-0.9576807022094727,0.0071826050989329815,-0.38067805767059326
1766401984078626000,11.2126259765625,-0.2298433631658554,-0.3926490843296051,-0.05746084079146385
1766401984118726100,11.25272607421875,1.1755530834197998,0.24420857429504395,-0.035913024097681046
1766401984128736000,11.262736083984375,1.8387469053268433,0.7972691655158997,0.19393034279346466
1766401984138715100,11.272715087890624,1.9129672050476074,1.3239935636520386,0.2513911724090576
1766401984148725000,11.28272509765625,1.6639702320098877,0.6584054827690125,-0.09816227108240128
1766401984158734800,11.29273486328125,1.625662922859192,0.33039984107017517,-0.33518823981285095
1766401984168744400,11.302744384765624,0.8188169598579407,0.4572925269603729,-0.4141969084739685
1766401984178723800,11.312723876953125,-0.021547814831137657,0.35913026332855225,-0.4381389021873474
1766401984188733700,11.322733642578125,-0.8930372595787048,0.15801730751991272,-0.3423708379268646
1766401984238782500,11.372782470703125,0.629675030708313,-0.6033388376235962,0.2537853717803955
1766401984248822800,11.38282275390625,0.11971008777618408,-0.2082955539226532,-0.21308395266532898
1766401984258802000,11.392802001953125,-0.3878606855869293,0.1412578970193863,-0.0933738648891449
1766401984268811800,11.402811767578125,-1.1659762859344482,0.10773907601833344,-0.021547814831137657
1766401984278821400,11.4128212890625,-1.113303780555725,-0.21308395266532898,0.11252748221158981
1766401984288831200,11.422831298828125,-0.26575639843940735,-0.2322375625371933,0.31603461503982544
1766401984298810400,11.432810302734374,1.501164436340332,-0.181959331035614,0.3974374830722809
1766401984318830000,11.452830078125,0.790086567401886,-0.14604631066322327,-0.047884032130241394
1766401984338849500,11.472849609375,-0.49320554733276367,0.44532153010368347,0.2968810200691223
1766401984348889900,11.482889892578125,-0.8978256583213806,0.1173158809542656,0.31124621629714966
1766401984358899700,11.492899658203125,-0.545877993106842,-0.08379705995321274,0.3902548849582672
1766401984368909300,11.502909423828125,0.181959331035614,-0.05746084079146385,0.2801215946674347
1766401984378919200,11.512919189453125,1.316810965538025,0.5363011956214905,-0.07900865375995636
1766401984388959500,11.52295947265625,1.1300631761550903,0.7134721279144287,-0.031124621629714966
1766401984418958000,11.5529580078125,0.14844051003456116,-0.038307227194309235,-0.047884032130241394
1766401984448987400,11.5829873046875,0.3974374830722809,0.009576806798577309,0.12449848651885986
1766401984458997200,11.592997314453125,0.6847416758537292,0.15083470940589905,-0.2082955539226532
1766401984469007000,11.603007080078125,0.5051765441894531,0.22026655077934265,-0.23702596127986908
1766401984478986200,11.612986328125,-0.24660277366638184,0.1149216815829277,-0.16519992053508759
1766401984488996000,11.62299609375,-0.35434186458587646,0.05027823522686958,-0.0071826050989329815
1766401984499005700,11.633005615234374,-0.19393034279346466,-0.08858546614646912,0.181959331035614
1766401984519025400,11.653025390625,0.5099649429321289,-0.10295066982507706,0.3208230137825012
1766401984529065700,11.663065673828125,0.7613561153411865,-0.1412578970193863,0.507570743560791
1766401984539075300,11.673075439453125,0.37828385829925537,-0.3256114423274994,0.5530605912208557
1766401984549085200,11.683085205078125,0.0694318488240242,-0.2777273952960968,0.47884035110473633
1766401984559094800,11.6930947265625,-0.12210428714752197,-0.18914192914962769,0.38307225704193115
1766401984569135000,11.703135009765624,-0.19393034279346466,-0.08858546614646912,0.6009446382522583
1766401984579145000,11.71314501953125,0.090979665517807,0.16519992053508759,0.730231523513794
1766401984589154800,11.72315478515625,0.021547814831137657,-0.004788403399288654,0.6224924325942993
1766401984599164400,11.733164306640624,0.16759411990642548,0.14365209639072418,0.5147533416748047
1766401984629255000,11.7632548828125,0.0694318488240242,-0.1149216815829277,0.7852981686592102
1766401984649274400,11.7832744140625,0.2106897532939911,0.29209262132644653,0.40222588181495667
1766401984659284200,11.7932841796875,0.4668693244457245,0.023942016065120697,0.31124621629714966
1766401984669293800,11.8032939453125,0.16759411990642548,-0.19153612852096558,0.42856210470199585
1766401984679303700,11.8133037109375,-0.05985504388809204,-0.2298433631658554,0.37828385829925537
1766401984689313300,11.823313232421874,-0.12449848651885986,0.07900865375995636,0.1843535304069519
1766401984699292700,11.833292724609375,-0.5674257874488831,0.37828385829925537,0.22505496442317963
1766401984709302500,11.843302490234375,-0.6560112833976746,0.24899697303771973,0.08619125932455063
1766401984729322000,11.863322021484375,-0.5123591423034668,0.4189853072166443,0.19632454216480255
1766401984739331800,11.873331787109375,-0.5027823448181152,0.05746084079146385,0.22505496442317963
1766401984749372000,11.883371826171874,-0.7086837291717529,0.18914192914962769,0.1867477297782898
1766401984759381800,11.8933818359375,-0.5363011956214905,-0.4405331015586853,0.10773907601833344
1766401984769391600,11.9033916015625,-0.2059013396501541,-0.9911994934082031,0.33997663855552673
1766401984779401200,11.913401123046874,-0.1364694982767105,-0.6847416758537292,0.19393034279346466
1766401984789411000,11.9234111328125,-0.17956513166427612,-0.06703764945268631,-0.05746084079146385
1766401984799421000,11.9334208984375,-0.4405331015586853,0.790086567401886,-0.3471592366695404
1766401984809461000,11.9434609375,-0.4381389021873474,0.7757213711738586,-0.35434186458587646
1766401984849469700,11.9834697265625,0.3734954595565796,-0.9409212470054626,0.10534487664699554
1766401984859448800,11.99344873046875,0.43095630407333374,-1.5969325304031372,0.0694318488240242
1766401984869458700,12.003458740234375,0.5339069962501526,-1.036689281463623,-0.2298433631658554
1766401984879468500,12.013468505859375,0.4668693244457245,0.35434186458587646,-0.304063618183136
1766401984889478100,12.02347802734375,-0.2944868206977844,0.4884171485900879,-0.33039984107017517
1766401984899488000,12.033488037109375,-0.11013327538967133,0.035913024097681046,-0.395043283700943
1766401984909497900,12.043497802734375,0.6057330369949341,-0.7469909191131592,-0.44532153010368347
1766401984949536800,12.083536865234375,0.26336219906806946,0.28730419278144836,-0.7134721279144287
1766401984959546600,12.093546630859375,0.38307225704193115,-0.5363011956214905,-0.5937620401382446
1766401984969556200,12.10355615234375,0.9097966551780701,-1.2737152576446533,-0.5482721924781799
1766401984979566000,12.113566162109375,1.1180921792984009,-1.070208191871643,-0.4357447028160095
1766401984989576000,12.123575927734375,1.1109095811843872,-0.6440402865409851,-0.2777273952960968
1766401984999585500,12.13358544921875,0.8212111592292786,-0.22026655077934265,0.17477671802043915
1766401985009595400,12.143595458984375,0.1149216815829277,-0.48602294921875,0.3663128614425659
1766401985019574500,12.153574462890624,-0.3711012601852417,-0.569819986820221,0.272938996553421
1766401985049603800,12.183603759765624,0.28969839215278625,-0.0071826050989329815,0.2059013396501541
1766401985059613700,12.19361376953125,1.3455413579940796,-0.608127236366272,0.38067805767059326
1766401985069623600,12.20362353515625,1.1420341730117798,-0.5626373887062073,0.7852981686592102
1766401985079633200,12.213633056640624,-0.3447650372982025,-0.9983820915222168,0.9217676520347595
1766401985089643000,12.22364306640625,-1.259350061416626,-0.8619126081466675,0.5123591423034668
1766401985099652900,12.23365283203125,-2.4444799423217773,0.28969839215278625,-0.035913024097681046
1766401985119672300,12.25367236328125,-0.1867477297782898,-0.33279404044151306,0.2753331959247589
1766401985129682200,12.26368212890625,0.2298433631658554,-1.0630255937576294,0.933738648891449
1766401985149701600,12.28370166015625,-0.3280056416988373,-1.3455413579940796,0.40701428055763245
1766401985159711200,12.293711181640624,-0.7709329724311829,-0.7613561153411865,0.3256114423274994
1766401985169721000,12.30372119140625,0.12449848651885986,0.040701430290937424,0.22744916379451752
1766401985179731000,12.31373095703125,0.011971008032560349,-0.13168109953403473,0.5961562395095825
1766401985189740500,12.323740478515624,0.30885201692581177,0.15562310814857483,0.3687070608139038
1766401985209760300,12.34376025390625,0.1628057211637497,-0.22026655077934265,0.09816227108240128
1766401985219739400,12.353739501953125,-0.33279404044151306,-0.8259995579719543,0.10055647045373917
1766401985229749200,12.363749267578125,-0.7398083209991455,-0.48602294921875,-0.395043283700943
1766401985259778600,12.393778564453125,-0.009576806798577309,0.3064578175544739,-1.137245774269104
1766401985269819000,12.40381884765625,1.1468225717544556,-0.08858546614646912,-1.1300631761550903
1766401985279828500,12.413828369140624,0.47884035110473633,0.4429273009300232,-1.3239935636520386
1766401985289868800,12.423868896484375,-0.7852981686592102,1.235408067703247,-1.2090718746185303
1766401985299878700,12.433878662109375,-1.036689281463623,1.4413094520568848,-1.0342950820922852
1766401985309888300,12.44388818359375,-1.41257905960083,0.7661445140838623,-0.751779317855835
1766401985319898000,12.453898193359375,-0.9792284965515137,0.5722141861915588,-0.7374141216278076
1766401985349958000,12.4839580078125,-1.7884687185287476,0.9576807022094727,-1.290474772453308
1766401985380017700,12.514017578125,-1.8938134908676147,1.659181833267212,-1.2306196689605713
1766401985390058000,12.52405810546875,-1.8387469053268433,1.2186486721038818,-1.2856862545013428
1766401985400037400,12.534037353515625,-1.6639702320098877,1.7693150043487549,-1.170764684677124
1766401985410047000,12.544046875,-1.8531121015548706,1.8363527059555054,-1.2473790645599365
1766401985420056800,12.554056884765625,-1.5658079385757446,1.534683346748352,-1.2425906658172607
1766401985430066700,12.564066650390625,-1.3862427473068237,0.8667010068893433,-1.2473790645599365
1766401985440076300,12.574076171875,-1.137245774269104,0.6967126727104187,-1.2449848651885986
1766401985470075100,12.6040751953125,-1.2497732639312744,1.0319008827209473,-1.1109095811843872
1766401985490094600,12.624094482421874,-1.1803414821624756,0.524330198764801,-1.3239935636520386
1766401985500104400,12.6341044921875,-0.5099649429321289,0.17238251864910126,-1.3192051649093628
1766401985510114300,12.6441142578125,0.6200982332229614,0.33518823981285095,-1.0558429956436157
1766401985520124000,12.6541240234375,0.48602294921875,0.5793967843055725,-0.8523358106613159
1766401985530133800,12.6641337890625,0.05746084079146385,0.8140285611152649,-0.6392518281936646
1766401985540143400,12.674143310546874,-0.05267243832349777,0.6584054827690125,-0.6631938815116882
1766401985580152000,12.714152099609375,0.9193734526634216,0.524330198764801,-0.6057330369949341
1766401985590162000,12.724161865234375,0.9720458984375,0.7613561153411865,-0.033518824726343155
1766401985600141000,12.73414111328125,0.7948749661445618,0.7613561153411865,0.2322375625371933
1766401985610181400,12.744181396484375,0.8164227604866028,0.40701428055763245,0.3280056416988373
1766401985620191000,12.75419091796875,0.6751648783683777,-0.0933738648891449,0.4357447028160095
1766401985630200800,12.764200927734375,0.871489405632019,-0.2298433631658554,0.6248866319656372
1766401985640180200,12.77418017578125,0.912190854549408,-0.28969839215278625,0.8810662031173706
1766401985670270500,12.8042705078125,0.4668693244457245,-0.009576806798577309,2.1787235736846924
1766401985680249600,12.81424951171875,0.6536170840263367,-0.043095629662275314,2.4205379486083984
1766401985690290000,12.8242900390625,0.9145850539207458,0.004788403399288654,2.6839001178741455
1766401985700299800,12.8342998046875,0.9720458984375,-0.021547814831137657,2.9735984802246094
1766401985710309400,12.844309326171874,0.8858546018600464,-0.26575639843940735,3.1244332790374756
1766401985720288800,12.854288818359375,0.8355764150619507,-0.6847416758537292,3.0310592651367188
1766401985740338700,12.874338623046874,1.2090718746185303,-1.1252747774124146,2.8443117141723633
1766401985750348500,12.8843486328125,1.3335703611373901,-0.7254431247711182,2.5258827209472656
1766401985770398700,12.904398681640625,1.1085153818130493,-0.10055647045373917,2.118868589401245
1766401985780408300,12.914408203125,1.2234370708465576,0.26336219906806946,1.6376339197158813
1766401985790418200,12.924418212890625,1.434126853942871,0.2346317619085312,1.237802267074585
1766401985800428000,12.934427978515625,1.45806884765625,0.40701428055763245,1.0462661981582642
1766401985810437600,12.944437744140625,1.889025092124939,0.6799532771110535,0.7876923680305481
1766401985820447500,12.954447509765625,2.0398597717285156,1.015141487121582,0.8212111592292786
1766401985830457000,12.96445703125,1.7956513166427612,0.9720458984375,1.015141487121582
1766401985840497400,12.974497314453124,1.8602946996688843,1.0558429956436157,1.0271124839782715
1766401985850446300,12.9844462890625,1.9369091987609863,1.2401964664459229,0.7038952708244324
1766401985870435300,13.004435302734375,1.6903064250946045,1.357512354850769,0.545877993106842
1766401985900495000,13.0344951171875,1.0678139925003052,0.9097966551780701,0.6033388376235962
1766401985910535400,13.044535400390625,0.9361328482627869,0.6775590777397156,0.5363011956214905
1766401985920545000,13.054544921875,0.7613561153411865,0.6847416758537292,0.6488286852836609
1766401985930615800,13.06461572265625,0.19632454216480255,0.6248866319656372,0.7374141216278076
1766401985940625700,13.074625732421875,-0.26575639843940735,0.40222588181495667,0.7350199222564697
1766401985960614700,13.09461474609375,-0.8212111592292786,0.3926490843296051,0.9768342971801758
1766401985970685400,13.104685546875,-1.1061211824417114,0.7757213711738586,0.8020575642585754
1766401985990705000,13.124704833984374,-1.194706678390503,0.6775590777397156,0.28730419278144836
1766401986000684300,13.134684326171875,-1.2713210582733154,0.5554547905921936,0.3495534360408783
1766401986010724600,13.144724609375,-1.0845733880996704,0.5434837937355042,0.3519476354122162
1766401986020734200,13.154734130859374,-1.6160861253738403,0.5267243981361389,0.16519992053508759
1766401986030744000,13.164744140625,-1.680729627609253,0.6129156351089478,-0.20111294090747833
1766401986040754000,13.17475390625,-1.6041151285171509,0.7015010714530945,-0.36152446269989014
1766401986050794200,13.184794189453125,-1.4844050407409668,0.7422025203704834,-0.4118026793003082
1766401986060773400,13.1947734375,-1.280897855758667,0.8619126081466675,-0.4141969084739685
1766401986110822100,13.244822265625,-1.5897499322891235,1.0558429956436157,-0.5554547905921936
1766401986120770800,13.254770751953124,-1.4844050407409668,0.586579442024231,-0.7038952708244324
1766401986130811100,13.26481103515625,-1.216254472732544,0.2585737705230713,-0.6823474764823914
1766401986140821000,13.274821044921875,-1.2114660739898682,0.10055647045373917,-0.5410895943641663
1766401986150830800,13.284830810546875,-1.1563993692398071,0.1149216815829277,-0.6320692300796509
1766401986160779500,13.294779541015625,-1.1037269830703735,0.17956513166427612,-0.6440402865409851
1766401986190839300,13.32483935546875,-1.6065093278884888,-0.090979665517807,-0.7110779285430908
1766401986200849200,13.33484912109375,-1.4197616577148438,-0.33039984107017517,-0.6272808313369751
1766401986210889200,13.34488916015625,-1.2401964664459229,-0.586579442024231,-0.38546648621559143
1766401986220868600,13.35486865234375,-1.2306196689605713,-0.8643068075180054,-0.4429273009300232
1766401986230939400,13.364939453125,-1.2976573705673218,-0.727837324142456,-0.47644615173339844
1766401986240918500,13.37491845703125,-1.5275006294250488,-0.5793967843055725,-0.6392518281936646
1766401986250958800,13.384958740234374,-1.6615760326385498,-0.49320554733276367,-0.8331822156906128
1766401986260968700,13.39496875,-1.434126853942871,-0.5937620401382446,-0.9528923034667969
1766401986271009000,13.405009033203125,-1.2545616626739502,-0.7757213711738586,-0.8403648138046265
1766401986291028500,13.425028564453125,-1.158793568611145,-1.1204863786697388,-0.8619126081466675
1766401986311048000,13.4450478515625,-1.2186486721038818,-1.1899182796478271,-1.158793568611145
1766401986321057800,13.455057861328125,-1.0749965906143188,-1.0582371950149536,-1.2737152576446533
1766401986331037000,13.465036865234374,-0.8954314589500427,-1.072602391242981,-1.1875240802764893
1766401986341046800,13.475046875,-0.6248866319656372,-1.161187767982483,-1.1540051698684692
1766401986351056600,13.485056640625,-0.4118026793003082,-1.280897855758667,-1.3048399686813354
1766401986361066200,13.495066162109374,-0.31124621629714966,-1.2282254695892334,-1.338358759880066
1766401986371076000,13.505076171875,-0.07182604819536209,-1.0342950820922852,-1.1899182796478271
1766401986381086000,13.5150859375,0.20350714027881622,-0.9959878921508789,-0.9816226959228516
1766401986421124900,13.555124755859374,0.2968810200691223,-1.139639973640442,-0.7134721279144287
1766401986431134700,13.565134765625,0.646434485912323,-1.2545616626739502,-0.4141969084739685
1766401986441113900,13.57511376953125,0.9050082564353943,-1.3646949529647827,0.05506663769483566
1766401986451154200,13.585154296875,1.0582371950149536,-1.2689268589019775,0.4357447028160095
1766401986461164000,13.5951640625,0.9409212470054626,-1.2641384601593018,0.6799532771110535
1766401986471173600,13.605173583984374,1.3239935636520386,-1.359906554222107,0.629675030708313
1766401986481183500,13.61518359375,1.4245500564575195,-1.158793568611145,0.4141969084739685
1766401986491193300,13.625193359375,1.4484920501708984,-0.9385270476341248,0.2825157940387726
1766401986511182300,13.645182373046875,1.5059528350830078,-1.0103530883789062,0.3926490843296051
1766401986521161500,13.655161376953124,1.625662922859192,-1.3000515699386597,0.45489832758903503
1766401986531201800,13.665201904296875,1.86508309841156,-1.4173674583435059,0.3447650372982025
1766401986541211600,13.675211669921875,1.6400281190872192,-1.436521053314209,0.3016694188117981
1766401986551221200,13.68522119140625,1.525106430053711,-1.3263877630233765,0.19871874153614044
1766401986561200600,13.69520068359375,1.577778935432434,-1.3024457693099976,0.10295066982507706
1766401986571271400,13.705271484375,1.6639702320098877,-1.314416766166687,0.047884032130241394
1766401986581281300,13.71528125,1.4939818382263184,-1.3311761617660522,0.004788403399288654
1766401986591321300,13.7253212890625,1.3886369466781616,-1.3958195447921753,-0.0933738648891449
1766401986601331200,13.735331298828125,1.2832920551300049,-1.4053963422775269,-0.22744916379451752
1766401986621381400,13.75538134765625,1.2042834758758545,-1.235408067703247,0.1412578970193863
1766401986631391000,13.765390869140624,1.0965443849563599,-1.0893617868423462,0.11013327538967133
1766401986641400800,13.77540087890625,0.9600749015808105,-1.072602391242981,0.13168109953403473
1766401986651441200,13.785441162109375,0.6919242739677429,-1.259350061416626,0.3256114423274994
1766401986661450800,13.79545068359375,0.569819986820221,-1.1851298809051514,0.3687070608139038
1766401986671460600,13.805460693359375,0.7182605266571045,-1.3263877630233765,0.31364041566848755
1766401986681409300,13.8154091796875,0.5506663918495178,-1.335964560508728,0.6560112833976746
1766401986691449600,13.82544970703125,0.629675030708313,-1.2306196689605713,0.5626373887062073
1766401986701459500,13.83545947265625,0.5410895943641663,-0.8259995579719543,0.47405192255973816
1766401986711469000,13.845468994140624,0.40222588181495667,-0.849941611289978,0.4596867263317108
1766401986731519200,13.865519287109375,0.28969839215278625,-0.3926490843296051,0.33518823981285095
1766401986741529000,13.875529052734375,0.23942017555236816,-0.24420857429504395,0.38546648621559143
1766401986751538700,13.88553857421875,0.3064578175544739,-0.36152446269989014,0.569819986820221
1766401986761548500,13.895548583984375,0.6009446382522583,-0.3878606855869293,0.6105214357376099
1766401986771558400,13.905558349609375,0.8403648138046265,-0.24420857429504395,0.6129156351089478
1766401986781568000,13.915568115234375,0.7254431247711182,-0.2106897532939911,0.5674257874488831
1766401986791577900,13.925577880859375,0.7350199222564697,-0.1364694982767105,0.33279404044151306
1766401986801587500,13.93558740234375,0.5506663918495178,0.023942016065120697,0.26336219906806946
1766401986811627800,13.945627685546874,0.49799394607543945,0.040701430290937424,0.05746084079146385
1766401986831616800,13.96561669921875,0.6153098344802856,0.5386953949928284,-0.15801730751991272
1766401986841626600,13.975626708984375,0.6488286852836609,0.8954314589500427,0.0694318488240242
1766401986851667000,13.9856669921875,0.6655880808830261,0.7972691655158997,0.08619125932455063
1766401986861676800,13.9956767578125,0.5434837937355042,0.8236053586006165,-0.016759412363171577
1766401986871686400,14.005686279296874,0.5171475410461426,0.6560112833976746,-0.10773907601833344
1766401986881665800,14.015665771484375,0.6009446382522583,0.2801215946674347,-0.1604115068912506
1766401986891736600,14.025736572265625,0.5626373887062073,0.22026655077934265,-0.14604631066322327
1766401986901746200,14.03574609375,0.6320692300796509,0.26575639843940735,-0.1843535304069519
1766401986911756000,14.045756103515625,0.667982280254364,0.4836287498474121,-0.33039984107017517
1766401986931775500,14.065775390625,-0.023942016065120697,0.6344634294509888,0.18914192914962769
1766401986941785300,14.075785400390625,-0.3926490843296051,0.7876923680305481,0.2825157940387726
1766401986971814700,14.105814697265625,-0.35434186458587646,1.3263877630233765,0.5722141861915588
1766401987001844000,14.135843994140625,-1.1037269830703735,0.5003881454467773,0.7661445140838623
1766401987011884300,14.14588427734375,-1.3096283674240112,0.3734954595565796,0.6272808313369751
1766401987021894000,14.155893798828124,-1.1635819673538208,0.06464344263076782,0.30885201692581177
1766401987031934200,14.165934326171875,-1.1037269830703735,-0.0071826050989329815,0.0454898327589035
1766401987061933000,14.19593310546875,-0.9097966551780701,0.023942016065120697,0.15801730751991272
1766401987071943000,14.20594287109375,-0.8068459630012512,0.1604115068912506,0.2322375625371933
1766401987081952500,14.215952392578124,-0.7038952708244324,0.30885201692581177,0.304063618183136
1766401987091992800,14.225992919921875,-0.7709329724311829,0.31364041566848755,0.42616790533065796
1766401987101972000,14.235971923828124,-0.9050082564353943,0.2753331959247589,0.3758896589279175
1766401987111981800,14.24598193359375,-0.8427590131759644,0.31603461503982544,0.2298433631658554
1766401987121991700,14.25599169921875,-0.7086837291717529,0.2849099934101105,0.090979665517807
1766401987132032000,14.266031982421875,-0.5554547905921936,0.2537853717803955,0.2059013396501541
1766401987142041600,14.27604150390625,-0.23702596127986908,0.07422025501728058,0.15801730751991272
1766401987152051500,14.286051513671875,-0.30885201692581177,0.040701430290937424,0.13407529890537262
1766401987162030600,14.296030517578124,-0.42616790533065796,0.10534487664699554,0.047884032130241394
1766401987172101400,14.306101318359374,-0.3974374830722809,0.3256114423274994,0
1766401987182111200,14.316111328125,-0.3423708379268646,0.6105214357376099,-0.1388636976480484
1766401987192151600,14.326151611328125,-0.6631938815116882,1.0630255937576294,-0.3447650372982025
1766401987202161400,14.336161376953125,-0.9672574996948242,1.2258312702178955,-0.6129156351089478
1766401987212171000,14.3461708984375,-1.094150185585022,1.1659762859344482,-0.7422025203704834
1766401987222180900,14.356180908203125,-1.2258312702178955,1.2761094570159912,-0.9002198576927185
1766401987232221200,14.36622119140625,-1.170764684677124,1.659181833267212,-0.8355764150619507
1766401987272260000,14.406260009765624,-0.31364041566848755,0.8858546018600464,0.11252748221158981
1766401987282270000,14.41627001953125,-0.2801215946674347,0.8762778043746948,0.3016694188117981
1766401987292340700,14.4263408203125,-0.040701430290937424,0.6847416758537292,0.40462008118629456
1766401987302350600,14.4363505859375,0.0694318488240242,0.3758896589279175,0.5961562395095825
1766401987312391000,14.446390869140625,0.3734954595565796,-0.011971008032560349,0.5626373887062073
1766401987322431000,14.456430908203124,0.8020575642585754,-0.40462008118629456,0.5434837937355042
1766401987332440800,14.46644091796875,1.1779472827911377,-0.8259995579719543,0.40701428055763245
1766401987352460300,14.486460205078124,1.8962076902389526,-1.1252747774124146,-0.19871874153614044
1766401987372510500,14.506510498046875,2.5737667083740234,-1.2114660739898682,-0.9576807022094727
1766401987382520000,14.51652001953125,2.868253707885742,-1.647210717201233,-1.1061211824417114
1766401987392560400,14.526560302734374,3.0861260890960693,-1.745373010635376,-1.290474772453308
1766401987402570200,14.5365703125,3.383007049560547,-2.032677173614502,-1.534683346748352
1766401987412580000,14.546580078125,3.5697548389434814,-2.056619167327881,-1.5466543436050415
1766401987422559200,14.556559326171875,3.550601005554199,-1.9776105880737305,-1.5514427423477173
1766401987432569000,14.566569091796875,3.1052796840667725,-2.056619167327881,-1.3742717504501343
1766401987442578700,14.57657861328125,2.786850690841675,-2.145204782485962,-1.278503656387329
1766401987462628900,14.59662890625,2.983175277709961,-1.6424223184585571,-1.2066776752471924
1766401987472638700,14.606638671875,3.227383852005005,-1.9632453918457031,-1.1180921792984009
1766401987482648300,14.6166484375,3.134010076522827,-2.3295583724975586,-0.912190854549408
1766401987492658200,14.626658203125,2.8203697204589844,-2.7126305103302,-0.7996633648872375
1766401987502667800,14.636667724609374,2.4588451385498047,-2.8850131034851074,-0.629675030708313
1766401987512708000,14.6467080078125,2.276885747909546,-2.760514497756958,-0.5770025849342346
1766401987522718000,14.656718017578125,2.190694570541382,-2.5282769203186035,-0.38307225704193115
1766401987532727800,14.666727783203125,2.2146365642547607,-2.4205379486083984,-0.2825157940387726
1766401987542737400,14.6767373046875,1.7094600200653076,-2.8155810832977295,-0.30885201692581177
1766401987562726400,14.696726318359374,1.4245500564575195,-3.0621838569641113,-0.8523358106613159
1766401987572766700,14.7067666015625,1.1659762859344482,-2.4875755310058594,-1.094150185585022
1766401987582776600,14.716776611328125,0.8619126081466675,-2.0207061767578125,-1.158793568611145
1766401987592786400,14.726786376953125,0.8020575642585754,-1.8411411046981812,-1.2473790645599365
1766401987602796000,14.736796142578125,0.8140285611152649,-1.8579005002975464,-1.2689268589019775
1766401987612806000,14.746805908203125,0.6631938815116882,-1.7405846118927002,-1.5682021379470825
1766401987622815500,14.7568154296875,0.07422025501728058,-1.6304513216018677,-1.778891921043396
1766401987632825300,14.766825439453125,-0.21547815203666687,-1.3623007535934448,-1.8507179021835327
1766401987642804700,14.7768046875,-0.5099649429321289,-1.0319008827209473,-1.6543933153152466
1766401987652844800,14.7868447265625,-0.5674257874488831,-0.6416460275650024,-1.3862427473068237
1766401987682874000,14.8168740234375,-1.1013327836990356,-0.08619125932455063,-0.38067805767059326
1766401987692884000,14.826884033203125,-1.5059528350830078,0.2106897532939911,-0.2849099934101105
1766401987702863000,14.836863037109374,-1.8124107122421265,0.545877993106842,-0.40940847992897034
1766401987712873000,14.846873046875,-1.9943699836730957,0.5554547905921936,-0.5722141861915588
1766401987722882800,14.8568828125,-2.0901381969451904,0.5195417404174805,-0.6392518281936646
1766401987732892400,14.866892333984374,-2.0422539710998535,0.4381389021873474,-0.6488286852836609
1766401987742871800,14.876871826171875,-1.766920804977417,0.3447650372982025,-0.5554547905921936
1766401987752881400,14.88688134765625,-1.8315643072128296,0.4189853072166443,-0.5554547905921936
1766401987782910700,14.91691064453125,-2.4013843536376953,1.0127472877502441,-0.7613561153411865
1766401987792920600,14.926920654296875,-2.535459518432617,1.2234370708465576,-0.9050082564353943
1766401987802930400,14.936930419921875,-2.4588451385498047,1.1420341730117798,-0.8044517636299133
1766401987813001200,14.947001220703125,-2.31758713722229,1.070208191871643,-0.5746083855628967
1766401987823010800,14.9570107421875,-2.0638017654418945,0.8571242094039917,-0.3926490843296051
1766401987833020700,14.967020751953125,-2.0398597717285156,0.6967126727104187,-0.29209262132644653
1766401987843030500,14.977030517578125,-2.0207061767578125,0.5339069962501526,-0.08858546614646912
1766401987853040000,14.9870400390625,-2.3247697353363037,0.4357447028160095,-0.30885201692581177
1766401987863050000,14.997050048828125,-2.4803929328918457,0.3734954595565796,-0.4668693244457245
1766401987883069400,15.0170693359375,-2.1116859912872314,0.4381389021873474,-0.5650315880775452
1766401987893079300,15.027079345703125,-1.7262194156646729,0.14604631066322327,-0.47165772318840027
1766401987913068300,15.047068359375,-0.8547300100326538,-0.26575639843940735,-0.24660277366638184
1766401987923078100,15.057078125,-0.9696516990661621,-0.15801730751991272,-0.40940847992897034
1766401987933087700,15.067087646484374,-1.1037269830703735,-0.2322375625371933,-0.5554547905921936
1766401987943097600,15.07709765625,-1.1827356815338135,0.090979665517807,-0.524330198764801
1766401987953107500,15.087107421875,-1.292868971824646,0.3663128614425659,-0.4908113479614258
1766401987963117000,15.097116943359374,-1.0678139925003052,0.4381389021873474,-0.6512228846549988
1766401987973127000,15.107126953125,-0.7493851184844971,0.19632454216480255,-0.751779317855835
1766401987993146400,15.127146484375,-0.2561795711517334,0.37828385829925537,-0.5482721924781799
1766401988003156200,15.13715625,-0.11252748221158981,0.22505496442317963,-0.49320554733276367
1766401988013196500,15.147196533203125,-0.06703764945268631,-0.05985504388809204,-0.4405331015586853
1766401988023206100,15.1572060546875,-0.31124621629714966,-0.07661445438861847,-0.35673606395721436
1766401988033216000,15.167216064453125,-0.1173158809542656,-0.21308395266532898,-0.3711012601852417
1766401988043225900,15.177225830078125,0.2777273952960968,-0.7565677165985107,-0.40462008118629456
1766401988053235500,15.1872353515625,0.2801215946674347,-0.9696516990661621,-0.2849099934101105
1766401988063214800,15.19721484375,0.16998831927776337,-0.7589619159698486,-0.12210428714752197
1766401988113263600,15.247263671875,0.15801730751991272,-0.33279404044151306,-0.043095629662275314
1766401988123242800,15.25724267578125,0.2059013396501541,-0.1388636976480484,0.08858546614646912
1766401988133252600,15.267252685546875,0.10055647045373917,0.30885201692581177,0.19871874153614044
1766401988143262500,15.277262451171875,0.17477671802043915,0.33039984107017517,0.2968810200691223
1766401988153272000,15.28727197265625,0.40222588181495667,0.21308395266532898,0.5937620401382446
1766401988163282000,15.297281982421875,0.5363011956214905,-0.15562310814857483,0.828393816947937
1766401988193280800,15.32728076171875,0.3280056416988373,-0.2992752194404602,0.9361328482627869
1766401988203290400,15.337290283203124,0.40701428055763245,-0.38546648621559143,0.8092401623725891
1766401988213300200,15.34730029296875,0.524330198764801,-0.3519476354122162,0.7972691655158997
1766401988223279400,15.357279296875,0.7230489253997803,-0.22266076505184174,0.7733271718025208
1766401988233289200,15.367289306640625,0.9361328482627869,-0.05746084079146385,0.6655880808830261
1766401988243329500,15.37732958984375,1.2665326595306396,-0.3016694188117981,0.2968810200691223
