time,seconds_elapsed,z,y,x
1766401971777914400,-1.088085693359375,9.761207580566406,-0.37827521562576294,-0.8637819290161133
1766401971797964500,-1.068035400390625,9.764017105102539,-0.32544565200805664,-0.853489339351654
1766401971807974100,-1.05802587890625,9.763982772827148,-0.3153819441795349,-0.8576483726501465
1766401971828024300,-1.0379755859375,9.762593269348145,-0.32519203424453735,-0.8697198033332825
1766401971838034000,-1.027966064453125,9.761870384216309,-0.33043283224105835,-0.875831663608551
1766401971848043800,-1.017956298828125,9.760757446289062,-0.3386296331882477,-0.8850600719451904
1766401971858084000,-1.007916015625,9.760188102722168,-0.3442537486553192,-0.8891552090644836
1766401971868124400,-0.99787548828125,9.759435653686523,-0.35429465770721436,-0.8934656977653503
1766401971878195200,-0.9878046875,9.758604049682617,-0.3645065426826477,-0.8984295725822449
1766401971888204800,-0.977795166015625,9.757726669311523,-0.3760145306587219,-0.903200626373291
1766401971918234000,-0.947765869140625,9.755709648132324,-0.3927580416202545,-0.9177424907684326
1766401971928244000,-0.937756103515625,9.755577087402344,-0.3929624557495117,-0.9190687537193298
1766401971938253800,-0.92774609375,9.755481719970703,-0.3868241012096405,-0.9226796627044678
1766401971948263400,-0.917736572265625,9.75549030303955,-0.38206061720848083,-0.924575686454773
1766401971958303700,-0.9076962890625,9.755224227905273,-0.3811597526073456,-0.9277336597442627
1766401971968344000,-0.897656005859375,9.754963874816895,-0.378929078578949,-0.931386411190033
1766401971988363500,-0.877636474609375,9.754522323608398,-0.3779449462890625,-0.9363929629325867
1766401971998373400,-0.867626708984375,9.7535982131958,-0.3855089545249939,-0.9429153203964233
1766401972038412500,-0.82758740234375,9.752144813537598,-0.3908901810646057,-0.9556463956832886
1766401972048422100,-0.817577880859375,9.751691818237305,-0.3949809968471527,-0.9585789442062378
1766401972058432000,-0.807568115234375,9.751358032226562,-0.3977739214897156,-0.9608185291290283
1766401972068441600,-0.797558349609375,9.750826835632324,-0.404459148645401,-0.9634152054786682
1766401972078451500,-0.787548583984375,9.750290870666504,-0.4086107313632965,-0.9670829176902771
1766401972088461300,-0.77753857421875,9.749483108520508,-0.4138457179069519,-0.9729791283607483
1766401972098501600,-0.767498291015625,9.749276161193848,-0.414169043302536,-0.974919319152832
1766401972128561400,-0.7374384765625,9.747743606567383,-0.4181920886039734,-0.9884277582168579
1766401972138571000,-0.727428955078125,9.746950149536133,-0.4222921133041382,-0.9944966435432434
1766401972148580900,-0.717419189453125,9.746355056762695,-0.4248286783695221,-0.9992315173149109
1766401972158621200,-0.70737890625,9.745946884155273,-0.42682015895843506,-1.002364158630371
1766401972168600300,-0.697399658203125,9.744959831237793,-0.43433982133865356,-1.0087084770202637
1766401972178610200,-0.687389892578125,9.744465827941895,-0.4405454993247986,-1.0107903480529785
1766401972188620000,-0.6773798828125,9.744091987609863,-0.44448429346084595,-1.0126652717590332
1766401972198629600,-0.667370361328125,9.744131088256836,-0.4432927072048187,-1.0128114223480225
1766401972208609000,-0.657390869140625,9.744128227233887,-0.44078877568244934,-1.0139291286468506
1766401972238699300,-0.62730078125,9.744949340820312,-0.42619335651397705,-1.0122798681259155
1766401972248709000,-0.617290771484375,9.74533748626709,-0.4203028082847595,-1.0109989643096924
1766401972258718700,-0.60728125,9.74533462524414,-0.421225368976593,-1.010652780532837
1766401972268728600,-0.597271484375,9.745148658752441,-0.42249196767807007,-1.0119141340255737
1766401972278769000,-0.587231201171875,9.74409008026123,-0.4326205849647522,-1.0178089141845703
1766401972288748000,-0.577251953125,9.743515014648438,-0.4399266839027405,-1.0201802253723145
1766401972298788400,-0.567211669921875,9.743207931518555,-0.4451114535331726,-1.0208637714385986
1766401972308798200,-0.557201904296875,9.742953300476074,-0.4491632580757141,-1.021515130996704
1766401972338827500,-0.52717236328125,9.742512702941895,-0.4611893892288208,-1.0203630924224854
1766401972348867800,-0.517132080078125,9.74254035949707,-0.4603707492351532,-1.0204647779464722
1766401972358877400,-0.50712255859375,9.742183685302734,-0.4638199210166931,-1.022305965423584
1766401972368856800,-0.49714306640625,9.741922378540039,-0.46600258350372314,-1.023804783821106
1766401972378836000,-0.4871640625,9.741353034973145,-0.4699805974960327,-1.0273979902267456
1766401972388876300,-0.477123779296875,9.740635871887207,-0.4733792245388031,-1.032618522644043
1766401972398886100,-0.46711376953125,9.740374565124512,-0.4749980866909027,-1.0343470573425293
1766401972408865300,-0.457134765625,9.739789962768555,-0.47937774658203125,-1.0378165245056152
1766401972448904400,-0.417095458984375,9.739534378051758,-0.4719124734401703,-1.0436291694641113
1766401972458914000,-0.4070859375,9.739256858825684,-0.4722301661968231,-1.0460662841796875
1766401972468924000,-0.397076171875,9.738972663879395,-0.47328507900238037,-1.0482392311096191
1766401972488943400,-0.377056640625,9.737751007080078,-0.4832232594490051,-1.0550233125686646
1766401972498922800,-0.3670771484375,9.737610816955566,-0.4853968918323517,-1.0553315877914429
1766401972508963000,-0.357036865234375,9.737590789794922,-0.4862813353538513,-1.055098295211792
1766401972569021400,-0.296978515625,9.738398551940918,-0.48876330256462097,-1.046464443206787
1766401972579061800,-0.286938232421875,9.738865852355957,-0.4843160808086395,-1.0441808700561523
1766401972589071600,-0.276928466796875,9.739029884338379,-0.4814318120479584,-1.043990135192871
1766401972599050800,-0.26694921875,9.738601684570312,-0.48138028383255005,-1.0480024814605713
1766401972609060600,-0.256939453125,9.737841606140137,-0.49236932396888733,-1.0499491691589355
1766401972619039700,-0.246960205078125,9.737319946289062,-0.5010249614715576,-1.0506958961486816
1766401972669088800,-0.1969111328125,9.736106872558594,-0.5192192196846008,-1.0530991554260254
1766401972679098400,-0.186901611328125,9.736437797546387,-0.5159149169921875,-1.0516676902770996
1766401972689108200,-0.176891845703125,9.73690128326416,-0.5104151368141174,-1.0500562191009521
1766401972699118000,-0.1668818359375,9.736898422241211,-0.5095454454421997,-1.0505062341690063
1766401972709127700,-0.156872314453125,9.736873626708984,-0.5093067288398743,-1.050851583480835
1766401972719107000,-0.146892822265625,9.736637115478516,-0.5115785598754883,-1.0519448518753052
1766401972729086200,-0.136913818359375,9.736391067504883,-0.5133222341537476,-1.0533621311187744
1766401972739126500,-0.12687353515625,9.736140251159668,-0.5135908722877502,-1.0555495023727417
1766401972779135000,-0.086864990234375,9.736772537231445,-0.5078466534614563,-1.0524895191192627
1766401972789175300,-0.07682470703125,9.736653327941895,-0.5094209909439087,-1.0528345108032227
1766401972799185200,-0.06681494140625,9.736594200134277,-0.5123231410980225,-1.0519667863845825
1766401972809133800,-0.0568662109375,9.736445426940918,-0.5151322484016418,-1.0519777536392212
1766401972819174100,-0.046825927734375,9.736435890197754,-0.517370879650116,-1.0509623289108276
1766401972829153300,-0.0368466796875,9.736350059509277,-0.5205370187759399,-1.0501943826675415
1766401972839193600,-0.026806396484375,9.73631763458252,-0.5213002562522888,-1.0501205921173096
1766401972849173000,-0.016826904296875,9.736833572387695,-0.5183824300765991,-1.046782374382019
1766401972899252200,0.033252197265625,9.73576831817627,-0.5251612067222595,-1.0532844066619873
1766401972929281500,0.063281494140625,9.732930183410645,-0.5835089683532715,-1.0488007068634033
1766401972954336500,0.08833642578125,9.732934951782227,-0.5829118490219116,-1.0490819215774536
1766401972964346400,0.098346435546875,9.73259162902832,-0.5850268602371216,-1.0510969161987305
1766401972984426800,0.1184267578125,9.73206901550293,-0.5873395800590515,-1.0546375513076782
1766401972994436600,0.1284365234375,9.7317533493042,-0.588858962059021,-1.056700587272644
1766401973004446500,0.138446533203125,9.731466293334961,-0.5904715061187744,-1.0584369897842407
1766401973014486500,0.148486572265625,9.731346130371094,-0.590890109539032,-1.0593128204345703
1766401973034567200,0.168567138671875,9.73144817352295,-0.5901560187339783,-1.0587798357009888
1766401973044546600,0.178546630859375,9.731551170349121,-0.5909996628761292,-1.0573680400848389
1766401973054556200,0.18855615234375,9.731524467468262,-0.594576895236969,-1.0555999279022217
1766401973064535600,0.19853564453125,9.731492042541504,-0.595582127571106,-1.0553374290466309
1766401973074576000,0.208575927734375,9.731372833251953,-0.5970050692558289,-1.055635690689087
1766401973104605000,0.23860498046875,9.730609893798828,-0.6064938902854919,-1.0572572946548462
1766401973114614800,0.24861474609375,9.730515480041504,-0.6067937612533569,-1.0579471588134766
1766401973124624600,0.258624755859375,9.730735778808594,-0.6041160225868225,-1.0574591159820557
1766401973134634200,0.26863427734375,9.73091983795166,-0.6021871566772461,-1.0568588972091675
1766401973144644000,0.27864404296875,9.730766296386719,-0.6052654385566711,-1.0565178394317627
1766401973154684400,0.288684326171875,9.7305269241333,-0.6082594394683838,-1.0569978952407837
1766401973164694300,0.2986943359375,9.729628562927246,-0.6192070841789246,-1.0589107275009155
1766401973194754000,0.328754150390625,9.727669715881348,-0.6474559903144836,-1.060012936592102
1766401973204763600,0.338763671875,9.727089881896973,-0.6579509377479553,-1.0588703155517578
1766401973214773500,0.3487734375,9.726652145385742,-0.6665822863578796,-1.0574983358383179
1766401973224783400,0.358783447265625,9.72609806060791,-0.6778817176818848,-1.0554026365280151
1766401973234793000,0.36879296875,9.725220680236816,-0.689400851726532,-1.0560309886932373
1766401973244802800,0.378802734375,9.724824905395508,-0.6954777240753174,-1.0556918382644653
1766401973254812700,0.388812744140625,9.724163055419922,-0.7062786817550659,-1.0546141862869263
1766401973264822300,0.398822265625,9.723116874694824,-0.7235486507415771,-1.0525473356246948
1766401973294882000,0.428882080078125,9.720725059509277,-0.7637708187103271,-1.046201229095459
1766401973304892000,0.438891845703125,9.718816757202148,-0.7921752333641052,-1.0428117513656616
1766401973314932200,0.44893212890625,9.714910507202148,-0.8150664567947388,-1.0613970756530762
1766401973324942000,0.458942138671875,9.710712432861328,-0.8662170171737671,-1.0593019723892212
1766401973334982100,0.468982177734375,9.703157424926758,-0.9905737042427063,-1.0187689065933228
1766401973344992000,0.478991943359375,9.699889183044434,-1.037940263748169,-1.0026036500930786
1766401973355001900,0.489001953125,9.693048477172852,-1.13644540309906,-0.9610811471939087
1766401973365011500,0.499011474609375,9.682162284851074,-1.2597864866256714,-0.9160038232803345
1766401973375021300,0.509021240234375,9.654623985290527,-1.5080070495605469,-0.8273755311965942
1766401973405020200,0.539020263671875,9.571914672851562,-2.026240110397339,-0.665729820728302
1766401973415029800,0.54902978515625,9.522356033325195,-2.2676146030426025,-0.5941756367683411
1766401973425039600,0.55903955078125,9.424298286437988,-2.667834758758545,-0.48542866110801697
1766401973435080000,0.569079833984375,9.340633392333984,-2.9577789306640625,-0.4177333116531372
1766401973445089800,0.57908984375,9.241082191467285,-3.262881278991699,-0.35552969574928284
1766401973455129900,0.5891298828125,9.185012817382812,-3.420132637023926,-0.32955822348594666
1766401973465139700,0.5991396484375,8.997712135314941,-3.8919029235839844,-0.2542716860771179
1766401973475180000,0.609179931640625,8.926865577697754,-4.052683353424072,-0.23921038210391998
1766401973515219000,0.649218994140625,8.152961730957031,-5.445335388183594,-0.21894057095050812
1766401973525228800,0.659228759765625,8.052600860595703,-5.59208869934082,-0.2335510551929474
1766401973535238700,0.66923876953125,7.8578200340271,-5.861344337463379,-0.26399749517440796
1766401973545248300,0.679248291015625,7.656990051269531,-6.119656562805176,-0.3011561334133148
1766401973555258000,0.689258056640625,7.452278137207031,-6.365188121795654,-0.3439759314060211
1766401973565268000,0.69926806640625,7.15313720703125,-6.695432186126709,-0.4173654317855835
1766401973575308300,0.709308349609375,7.051448345184326,-6.800746440887451,-0.4442024528980255
1766401973605337600,0.739337646484375,6.451573371887207,-7.354653358459473,-0.6757670640945435
1766401973615347200,0.74934716796875,6.369565963745117,-7.422555446624756,-0.7104250192642212
1766401973625357000,0.759357177734375,6.216177463531494,-7.544273376464844,-0.7832447290420532
1766401973635366700,0.76936669921875,6.002997875213623,-7.703521251678467,-0.8889192938804626
1766401973645346000,0.779345947265625,5.9322333335876465,-7.754425525665283,-0.9208124279975891
1766401973655386400,0.789386474609375,5.746901988983154,-7.881051540374756,-1.016143798828125
1766401973665335000,0.7993349609375,5.68565034866333,-7.9221415519714355,-1.0408917665481567
1766401973675375400,0.809375244140625,5.519004821777344,-8.027111053466797,-1.129805326461792
1766401973685385000,0.819385009765625,5.406322479248047,-8.095190048217773,-1.1874146461486816
1766401973715445000,0.849445068359375,5.047133922576904,-8.300753593444824,-1.3395252227783203
1766401973725454600,0.85945458984375,4.9856109619140625,-8.335675239562988,-1.3529930114746094
1766401973735495000,0.869494873046875,4.869615077972412,-8.397881507873535,-1.3902602195739746
1766401973745474300,0.879474365234375,4.756380081176758,-8.457010269165039,-1.4234554767608643
1766401973755514400,0.889514404296875,4.643192291259766,-8.514382362365723,-1.4548028707504272
1766401973765493800,0.89949365234375,4.480655670166016,-8.594341278076172,-1.4937916994094849
1766401973775503600,0.909503662109375,4.428844928741455,-8.620596885681152,-1.4970066547393799
1766401973785513200,0.91951318359375,4.33079195022583,-8.667162895202637,-1.514899730682373
1766401973815573000,0.949572998046875,4.093863010406494,-8.780823707580566,-1.519149899482727
1766401973855612200,0.989612060546875,3.8345775604248047,-8.905112266540527,-1.471521019935608
1766401973905630500,1.03963037109375,3.311039686203003,-9.124396324157715,-1.3974264860153198
1766401973925711000,1.059711181640625,2.739809513092041,-9.33327865600586,-1.2464996576309204
1766401973995779300,1.129779296875,2.444478988647461,-9.430368423461914,-1.1238678693771362
1766401974015798800,1.149798828125,2.347867012023926,-9.459671020507812,-1.082850456237793
1766401974055838000,1.189837890625,2.0574686527252197,-9.533346176147461,-1.0259302854537964
1766401974115957500,1.24995751953125,1.4587268829345703,-9.653820991516113,-0.9199246764183044
1766401974135946500,1.269946533203125,1.2826231718063354,-9.683378219604492,-0.8703233003616333
1766401974155966200,1.28996630859375,1.1277276277542114,-9.70743179321289,-0.8150973916053772
1766401974165975800,1.299975830078125,1.0943663120269775,-9.71264362335205,-0.7983274459838867
1766401974175985700,1.309985595703125,0.9962731599807739,-9.724286079406738,-0.7849261164665222
1766401974185995500,1.31999560546875,0.9356528520584106,-9.730640411376953,-0.7807625532150269
1766401974196005000,1.330005126953125,0.8835786581039429,-9.735688209533691,-0.7785060405731201
1766401974206015000,1.340014892578125,0.8467324376106262,-9.73929214477539,-0.7743471264839172
1766401974216024800,1.35002490234375,0.832501232624054,-9.741153717041016,-0.7663266062736511
1766401974226034400,1.360034423828125,0.8431692123413086,-9.74121379852295,-0.75379478931427
1766401974236074800,1.37007470703125,0.8653526902198792,-9.740422248840332,-0.7387304902076721
1766401974266104000,1.40010400390625,1.012834072113037,-9.731505393981934,-0.6651178002357483
1766401974276114000,1.410114013671875,1.057023286819458,-9.728035926818848,-0.6468652486801147
1766401974286062600,1.4200625,1.190683126449585,-9.715133666992188,-0.6073209047317505
1766401974296072400,1.430072509765625,1.4713948965072632,-9.681123733520508,-0.5303031206130981
1766401974306082000,1.44008203125,1.6982100009918213,-9.64710521697998,-0.4688730835914612
1766401974316122400,1.450122314453125,1.9592431783676147,-9.6005277633667,-0.4020628035068512
1766401974326101800,1.460101806640625,2.2474913597106934,-9.539807319641113,-0.333545446395874
1766401974336141800,1.470141845703125,2.5364203453063965,-9.469453811645508,-0.2577098608016968
1766401974356192000,1.49019189453125,2.9912946224212646,-9.339106559753418,-0.06034691631793976
1766401974386221300,1.52022119140625,3.010387659072876,-9.328557014465332,0.29323798418045044
1766401974396261600,1.53026171875,2.7940080165863037,-9.383617401123047,0.5582575798034668
1766401974406240800,1.54024072265625,2.7067506313323975,-9.403030395507812,0.6533923149108887
1766401974416220200,1.55022021484375,2.430382251739502,-9.451361656188965,0.967166006565094
1766401974426229800,1.560229736328125,2.2542812824249268,-9.46911907196045,1.1934747695922852
1766401974436239600,1.570239501953125,2.1018311977386475,-9.470904350280762,1.43341863155365
1766401974476278500,1.610278564453125,1.820750117301941,-9.340752601623535,2.367614984512329
1766401974496298200,1.63029833984375,1.846226453781128,-9.11761474609375,3.103377342224121
1766401974506277400,1.64027734375,1.8746131658554077,-9.001622200012207,3.4098446369171143
1766401974516317700,1.650317626953125,1.8945517539978027,-8.87170696258545,3.7247679233551025
1766401974526296800,1.660296875,1.9076082706451416,-8.803668975830078,3.876444101333618
1766401974536367900,1.670367919921875,1.9452152252197266,-8.662540435791016,4.164963722229004
1766401974566397000,1.70039697265625,2.060746669769287,-8.20042610168457,4.96756649017334
1766401974596487400,1.7304873046875,2.1677603721618652,-7.702894687652588,5.668918609619141
1766401974606497000,1.7404970703125,2.194502830505371,-7.535749435424805,5.879374980926514
1766401974616507000,1.7505068359375,2.2150368690490723,-7.2926554679870605,6.170995712280273
1766401974626516700,1.760516845703125,2.217637538909912,-7.212608814239502,6.263446807861328
1766401974636587500,1.77058740234375,2.1998324394226074,-7.066059589385986,6.4344329833984375
1766401974646597000,1.78059716796875,2.150813102722168,-6.9345550537109375,6.592142105102539
1766401974656607000,1.79060693359375,2.075059175491333,-6.819304943084717,6.735102653503418
1766401974686636300,1.82063623046875,1.8985072374343872,-6.539461135864258,7.057019233703613
1766401974696646100,1.830646240234375,1.8864269256591797,-6.462236404418945,7.131009578704834
1766401974706655700,1.84065576171875,1.8817437887191772,-6.4036760330200195,7.184871196746826
1766401974716696000,1.850696044921875,1.8636107444763184,-6.365379810333252,7.2235236167907715
1766401974726706000,1.860705810546875,1.8155208826065063,-6.353052139282227,7.246585845947266
1766401974736715800,1.8707158203125,1.6570839881896973,-6.397071361541748,7.245822906494141
1766401974746725400,1.880725341796875,1.5921236276626587,-6.426533222198486,7.234309673309326
1766401974756765700,1.890765625,1.451525092124939,-6.497434139251709,7.200472831726074
1766401974766775600,1.900775634765625,1.329836368560791,-6.558359146118164,7.168672561645508
1766401974776815900,1.91081591796875,1.2483254671096802,-6.6131744384765625,7.1328816413879395
1766401974786825500,1.920825439453125,1.2016700506210327,-6.666408538818359,7.091219902038574
1766401974796865800,1.93086572265625,1.171090841293335,-6.725294589996338,7.04055118560791
1766401974806875600,1.940875732421875,1.140063762664795,-6.792893886566162,6.980489730834961
1766401974816885200,1.95088525390625,1.1004408597946167,-6.869906425476074,6.911136627197266
1766401974826895000,1.96089501953125,1.040337324142456,-6.963824272155762,6.825926303863525
1766401974836935400,1.970935302734375,0.8743541836738586,-7.174077987670898,6.6286115646362305
1766401974846945000,1.980945068359375,0.8433113694190979,-7.29226016998291,6.502472400665283
1766401974856955000,1.990954833984375,0.81629478931427,-7.343681812286377,6.447821140289307
1766401974896994000,2.030994140625,0.6613655090332031,-7.674478054046631,6.069215774536133
1766401974907003600,2.041003662109375,0.6903881430625916,-7.761285305023193,5.954510688781738
1766401974917044000,2.0510439453125,0.7661609053611755,-7.902382850646973,5.756365776062012
1766401974927053800,2.0610537109375,0.7868804335594177,-7.947574615478516,5.690983772277832
1766401974937094100,2.07109423828125,0.8034680485725403,-8.04137897491455,5.555272102355957
1766401974947073300,2.0810732421875,0.7942296266555786,-8.18485164642334,5.343014717102051
1766401974957113600,2.091113525390625,0.7809224128723145,-8.27955150604248,5.197075366973877
1766401974967123500,2.10112353515625,0.7582529187202454,-8.373712539672852,5.047415733337402
1766401974997183200,2.131183349609375,0.733712375164032,-8.611645698547363,4.633747577667236
1766401975007192800,2.14119287109375,0.7599392533302307,-8.710592269897461,4.440549373626709
1766401975017202700,2.15120263671875,0.768345296382904,-8.868603706359863,4.114354610443115
1766401975027212500,2.161212646484375,0.7154869437217712,-8.97988224029541,3.8755853176116943
1766401975037222100,2.17122216796875,0.6149901151657104,-9.09870433807373,3.6063528060913086
1766401975047201500,2.181201416015625,0.48065587878227234,-9.218364715576172,3.3107571601867676
1766401975057211100,2.191211181640625,0.32316988706588745,-9.336524963378906,2.982492208480835
1766401975067221000,2.201220947265625,0.24014848470687866,-9.392964363098145,2.8080153465270996
1766401975087240400,2.221240478515625,-0.28528526425361633,-9.647994995117188,1.733555793762207
1766401975097280800,2.23128076171875,-0.41019758582115173,-9.686664581298828,1.4733190536499023
1766401975107290600,2.24129052734375,-0.8366127610206604,-9.754585266113281,0.5643979907035828
1766401975117331000,2.2513310546875,-1.1345254182815552,-9.74004077911377,-0.12194383889436722
1766401975127340500,2.261340576171875,-1.270918369293213,-9.713324546813965,-0.4543769359588623
1766401975147360300,2.2813603515625,-1.8305057287216187,-9.410882949829102,-2.062739610671997
1766401975157400600,2.291400634765625,-2.0317981243133545,-9.204449653625488,-2.705605983734131
1766401975167379700,2.301379638671875,-2.1927011013031006,-8.954337120056152,-3.343998432159424
1766401975187399200,2.321399169921875,-2.3953604698181152,-8.301694869995117,-4.6383748054504395
1766401975207419000,2.3414189453125,-2.5421628952026367,-7.463766098022461,-5.8309550285339355
1766401975227408000,2.361407958984375,-2.652649402618408,-6.531148910522461,-6.81747579574585
1766401975237417500,2.37141748046875,-2.6872894763946533,-6.072817325592041,-7.215939998626709
1766401975247427300,2.38142724609375,-2.7087595462799072,-5.633681774139404,-7.5560994148254395
1766401975257437200,2.391437255859375,-2.7216508388519287,-5.208341598510742,-7.850874423980713
1766401975267446800,2.40144677734375,-2.742161273956299,-4.798249244689941,-8.101094245910645
1766401975277487000,2.411487060546875,-2.78629732131958,-4.413989543914795,-8.30202579498291
1766401975297506600,2.431506591796875,-2.9001519680023193,-3.8981380462646484,-8.518452644348145
1766401975337545700,2.471545654296875,-3.431241273880005,-2.9616754055023193,-8.696288108825684
1766401975347555600,2.4815556640625,-3.4730567932128906,-2.913205623626709,-8.696061134338379
1766401975357565200,2.491565185546875,-3.599111795425415,-2.8111324310302734,-8.678382873535156
1766401975367575000,2.501574951171875,-3.6736514568328857,-2.7713706493377686,-8.659919738769531
1766401975377585000,2.5115849609375,-3.734649896621704,-2.746898889541626,-8.64160442352295
1766401975387594500,2.521594482421875,-3.775146484375,-2.7352702617645264,-8.627687454223633
1766401975427603200,2.561603271484375,-3.9164068698883057,-2.720489978790283,-8.569195747375488
1766401975447683600,2.58168359375,-3.8502204418182373,-2.848106861114502,-8.55771541595459
1766401975457693400,2.591693359375,-3.848365306854248,-2.8544230461120605,-8.55644702911377
1766401975467703300,2.601703369140625,-3.8521437644958496,-2.842754364013672,-8.558629035949707
1766401975477682400,2.611682373046875,-3.8576323986053467,-2.8167474269866943,-8.564753532409668
1766401975487692300,2.6216923828125,-3.8664779663085938,-2.775712728500366,-8.57415771484375
1766401975527731200,2.661731201171875,-3.873600721359253,-2.6222469806671143,-8.619132995605469
1766401975537741000,2.671740966796875,-3.8639416694641113,-2.5365540981292725,-8.64906120300293
1766401975547751000,2.6817509765625,-3.8384878635406494,-2.478113889694214,-8.677289962768555
1766401975557791000,2.691791015625,-3.7989959716796875,-2.407052993774414,-8.714591026306152
1766401975567800800,2.70180078125,-3.78450608253479,-2.3496010303497314,-8.736550331115723
1766401975577841200,2.711841064453125,-3.7741332054138184,-2.297678232192993,-8.754828453063965
1766401975587851000,2.72185107421875,-3.762105941772461,-2.2549796104431152,-8.77109146118164
1766401975617849600,2.751849609375,-3.7194254398345947,-2.187493085861206,-8.806313514709473
1766401975627798500,2.761798583984375,-3.702613592147827,-2.1758947372436523,-8.816266059875488
1766401975637838600,2.771838623046875,-3.6834068298339844,-2.167306661605835,-8.826417922973633
1766401975647848400,2.781848388671875,-3.674187183380127,-2.160881519317627,-8.83183479309082
1766401975657858300,2.7918583984375,-3.67026948928833,-2.15462327003479,-8.83499526977539
1766401975667868000,2.801867919921875,-3.6725146770477295,-2.147998809814453,-8.835677146911621
1766401975677877800,2.811877685546875,-3.6805458068847656,-2.141906261444092,-8.833810806274414
1766401975687887600,2.8218876953125,-3.692493200302124,-2.138641357421875,-8.829615592956543
1766401975697927700,2.831927734375,-3.707674503326416,-2.139160394668579,-8.823126792907715
1766401975727957000,2.86195703125,-3.7509279251098633,-2.1510679721832275,-8.801922798156738
1766401975747976700,2.881976806640625,-3.787217140197754,-2.1684489250183105,-8.782098770141602
1766401975757986300,2.891986328125,-3.816296339035034,-2.183258533477783,-8.765823364257812
1766401975767996200,2.90199609375,-3.833195209503174,-2.1876533031463623,-8.75735092163086
1766401975778006000,2.912006103515625,-3.849501848220825,-2.1892428398132324,-8.749796867370605
1766401975787954700,2.92195458984375,-3.863528251647949,-2.1864213943481445,-8.744318962097168
1766401975797964500,2.931964599609375,-3.878122091293335,-2.181513547897339,-8.739082336425781
1766401975807974100,2.94197412109375,-3.8824450969696045,-2.1735005378723145,-8.739161491394043
1766401975838003500,2.97200341796875,-3.9352595806121826,-2.1200504302978516,-8.72866153717041
1766401975848013300,2.982013427734375,-3.948596239089966,-2.0950746536254883,-8.728669166564941
1766401975858023000,2.99202294921875,-3.9602153301239014,-2.069413900375366,-8.729524612426758
1766401975868032800,3.00203271484375,-3.971728801727295,-2.0435779094696045,-8.730380058288574
1766401975878073000,3.012072998046875,-3.9757425785064697,-2.02524995803833,-8.732824325561523
1766401975888083000,3.0220830078125,-3.980440139770508,-1.9983792304992676,-8.736875534057617
1766401975898123000,3.032123046875,-3.9842653274536133,-1.9651912450790405,-8.742657661437988
1766401975908132900,3.0421328125,-3.981536865234375,-1.9372788667678833,-8.750127792358398
1766401975948202500,3.082202392578125,-3.9719130992889404,-1.81907057762146,-8.779820442199707
1766401975958242800,3.092242919921875,-3.9809868335723877,-1.7862237691879272,-8.782456398010254
1766401975968252400,3.10225244140625,-3.99017071723938,-1.755481481552124,-8.7844877243042
1766401975978262300,3.11226220703125,-4.002181053161621,-1.7288317680358887,-8.784309387207031
1766401975988272000,3.122272216796875,-4.019426345825195,-1.6935310363769531,-8.78331470489502
1766401975998281700,3.13228173828125,-4.026280879974365,-1.6852601766586304,-8.78176212310791
1766401976008291600,3.14229150390625,-4.035231113433838,-1.6669867038726807,-8.781143188476562
1766401976018301400,3.152301513671875,-4.045660018920898,-1.639451503753662,-8.781530380249023
1766401976068319700,3.20231982421875,-4.089284896850586,-1.563862681388855,-8.775108337402344
1766401976078360000,3.212360107421875,-4.106664657592773,-1.5321166515350342,-8.772587776184082
1766401976088369700,3.22236962890625,-4.117890357971191,-1.5143007040023804,-8.77042293548584
1766401976098379500,3.232379638671875,-4.123382091522217,-1.5065584182739258,-8.76917552947998
1766401976108389000,3.24238916015625,-4.1363115310668945,-1.4781419038772583,-8.767921447753906
1766401976118429400,3.252429443359375,-4.144054412841797,-1.4650462865829468,-8.766461372375488
1766401976148489200,3.2824892578125,-4.159524440765381,-1.442941665649414,-8.762801170349121
1766401976158499000,3.2924990234375,-4.164802551269531,-1.4293224811553955,-8.762526512145996
1766401976168509000,3.302509033203125,-4.168591022491455,-1.420284628868103,-8.762192726135254
1766401976178518500,3.3125185546875,-4.172577857971191,-1.4103286266326904,-8.761906623840332
1766401976188528400,3.3225283203125,-4.1776347160339355,-1.4078983068466187,-8.7598876953125
1766401976208547800,3.3425478515625,-4.191360950469971,-1.386351227760315,-8.75676441192627
1766401976218557700,3.3525576171875,-4.198948860168457,-1.3878674507141113,-8.752890586853027
1766401976228536800,3.362536865234375,-4.206360340118408,-1.392974853515625,-8.748517036437988
1766401976258535700,3.39253564453125,-4.223814010620117,-1.4436092376708984,-8.731884956359863
1766401976278555100,3.41255517578125,-4.238882541656494,-1.5176589488983154,-8.712004661560059
1766401976288565000,3.42256494140625,-4.245072364807129,-1.541158676147461,-8.70486068725586
1766401976298574800,3.432574951171875,-4.252630710601807,-1.5641721487045288,-8.697062492370605
1766401976308554000,3.442553955078125,-4.260781764984131,-1.5869040489196777,-8.688952445983887
1766401976318563800,3.452563720703125,-4.269640922546387,-1.608304738998413,-8.680665016174316
1766401976328604200,3.462604248046875,-4.274908065795898,-1.61876380443573,-8.676127433776855
1766401976338613800,3.47261376953125,-4.287747859954834,-1.6510529518127441,-8.663700103759766
1766401976358633500,3.492633544921875,-4.305219650268555,-1.6970912218093872,-8.646120071411133
1766401976368643000,3.50264306640625,-4.3078484535217285,-1.7093275785446167,-8.642396926879883
1766401976378653000,3.51265283203125,-4.3147406578063965,-1.7353981733322144,-8.633760452270508
1766401976388662800,3.522662841796875,-4.326511859893799,-1.776888132095337,-8.619418144226074
1766401976398672400,3.53267236328125,-4.33290433883667,-1.8051965236663818,-8.610321998596191
1766401976408682200,3.54268212890625,-4.337835788726807,-1.8346282243728638,-8.60161304473877
1766401976418692000,3.552692138671875,-4.338169097900391,-1.849822998046875,-8.598188400268555
1766401976428701700,3.56270166015625,-4.342095375061035,-1.879960536956787,-8.589668273925781
1766401976438772500,3.5727724609375,-4.3439717292785645,-1.9094679355621338,-8.582205772399902
1766401976468863000,3.602863037109375,-4.329157829284668,-2.0121536254882812,-8.566210746765137
1766401976488882400,3.62288232421875,-4.306402683258057,-2.0315237045288086,-8.573108673095703
1766401976498922800,3.6329228515625,-4.285866737365723,-2.0512306690216064,-8.578706741333008
1766401976508932400,3.642932373046875,-4.261483192443848,-2.0703890323638916,-8.586248397827148
1766401976519003100,3.653003173828125,-4.220066070556641,-2.099144458770752,-8.599711418151855
1766401976529013000,3.663012939453125,-4.1840338706970215,-2.118973970413208,-8.612443923950195
1766401976539022800,3.67302294921875,-4.160126209259033,-2.1290810108184814,-8.621529579162598
1766401976559042300,3.693042236328125,-4.067205429077148,-2.178973913192749,-8.653341293334961
1766401976579061800,3.713061767578125,-3.9226527214050293,-2.261539936065674,-8.698773384094238
1766401976589071600,3.723071533203125,-3.884803295135498,-2.27823805809021,-8.711390495300293
1766401976599081500,3.73308154296875,-3.780057907104492,-2.3384149074554443,-8.741477012634277
1766401976609060600,3.743060546875,-3.7032477855682373,-2.3804614543914795,-8.762977600097656
1766401976619070500,3.753070556640625,-3.624171018600464,-2.426018714904785,-8.783517837524414
1766401976629080000,3.763080078125,-3.5438051223754883,-2.4748916625976562,-8.802655220031738
1766401976639059500,3.7730595703125,-3.4617342948913574,-2.525995969772339,-8.820777893066406
1766401976649069000,3.783069091796875,-3.4154481887817383,-2.549448013305664,-8.83206844329834
1766401976679068000,3.81306787109375,-3.153096914291382,-2.708261489868164,-8.88221549987793
1766401976699118000,3.8331181640625,-2.9485113620758057,-2.8432137966156006,-8.910265922546387
1766401976709127700,3.843127685546875,-2.868675947189331,-2.8936734199523926,-8.920076370239258
1766401976719137500,3.853137451171875,-2.7905099391937256,-2.9433510303497314,-8.928613662719727
1766401976729147400,3.8631474609375,-2.7502286434173584,-2.9620044231414795,-8.934942245483398
1766401976739187500,3.8731875,-2.644639492034912,-3.0403614044189453,-8.940496444702148
1766401976749166800,3.883166748046875,-2.5785224437713623,-3.084784746170044,-8.944592475891113
1766401976779257000,3.913257080078125,-2.431034564971924,-3.1777875423431396,-8.953330993652344
1766401976799307300,3.933307373046875,-2.3262674808502197,-3.252711534500122,-8.954259872436523
1766401976809316900,3.94331689453125,-2.279505729675293,-3.287038803100586,-8.95374870300293
1766401976819326700,3.95332666015625,-2.233640670776367,-3.3219356536865234,-8.952428817749023
1766401976829336600,3.963336669921875,-2.1676406860351562,-3.3769476413726807,-8.948071479797363
1766401976839346200,3.97334619140625,-2.1227240562438965,-3.405294418334961,-8.948097229003906
1766401976849356000,3.98335595703125,-2.0958316326141357,-3.4110300540924072,-8.952249526977539
1766401976859366000,3.993365966796875,-2.023554801940918,-3.4517390727996826,-8.953274726867676
1766401976889364500,4.023364501953125,-1.8774653673171997,-3.524897336959839,-8.956598281860352
1766401976899374300,4.033374267578125,-1.831225037574768,-3.548654556274414,-8.95678997039795
1766401976909384200,4.04338427734375,-1.8091397285461426,-3.5598459243774414,-8.956836700439453
1766401976919393800,4.053393798828125,-1.7439475059509277,-3.5920817852020264,-8.956897735595703
1766401976929403600,4.063403564453125,-1.6802743673324585,-3.621870756149292,-8.957073211669922
1766401976949423000,4.083423095703125,-1.615132451057434,-3.6493682861328125,-8.957894325256348
1766401976959433000,4.093432861328125,-1.5718671083450317,-3.668315887451172,-8.95785140991211
1766401976999471900,4.133471923828125,-1.417011022567749,-3.7430410385131836,-8.952773094177246
1766401977009481700,4.143481689453125,-1.3731530904769897,-3.7635838985443115,-8.950994491577148
1766401977019522000,4.15352197265625,-1.3076272010803223,-3.792310953140259,-8.948681831359863
1766401977029532000,4.163531982421875,-1.2883663177490234,-3.80216646194458,-8.94729232788086
1766401977039572000,4.173572021484375,-1.2476906776428223,-3.8207521438598633,-8.94513988494873
1766401977049612300,4.1836123046875,-1.208512783050537,-3.837117910385132,-8.943513870239258
1766401977059622100,4.1936220703125,-1.1488219499588013,-3.861956834793091,-8.940688133239746
1766401977069632000,4.203632080078125,-1.1360142230987549,-3.875645160675049,-8.93639850616455
1766401977089651500,4.2236513671875,-1.0774210691452026,-3.9181926250457764,-8.925093650817871
1766401977099661300,4.233661376953125,-1.048858880996704,-3.9408950805664062,-8.918501853942871
1766401977109671000,4.2436708984375,-1.005517840385437,-3.971886157989502,-8.909740447998047
1766401977119680800,4.2536806640625,-0.9946532845497131,-4.002753257751465,-8.897135734558105
1766401977129690600,4.263690673828125,-1.0262902975082397,-4.038527488708496,-8.87735652923584
1766401977139669800,4.273669677734375,-1.0270534753799438,-4.071887493133545,-8.862015724182129
1766401977149649000,4.28364892578125,-1.019824504852295,-4.103213310241699,-8.848388671875
1766401977159689200,4.293689208984375,-0.9856840968132019,-4.137622356414795,-8.836226463317871
1766401977169699000,4.303698974609375,-0.9674838185310364,-4.164994716644287,-8.825370788574219
1766401977189749000,4.3237490234375,-0.952892541885376,-4.21992826461792,-8.800827980041504
1766401977209768700,4.343768798828125,-0.9040881991386414,-4.279247283935547,-8.777302742004395
1766401977219778300,4.3537783203125,-0.8820358514785767,-4.313763618469238,-8.762639999389648
1766401977229788200,4.3637880859375,-0.8460511565208435,-4.36993932723999,-8.73831844329834
1766401977239798000,4.373798095703125,-0.8428706526756287,-4.404156684875488,-8.721431732177734
1766401977249807600,4.3838076171875,-0.8063428401947021,-4.471268177032471,-8.69068431854248
1766401977259817500,4.3938173828125,-0.8018290400505066,-4.507636070251465,-8.672293663024902
1766401977269827300,4.403827392578125,-0.7806444764137268,-4.5643110275268555,-8.644539833068848
1766401977289846800,4.4238466796875,-0.7275071144104004,-4.678368091583252,-8.58801555633545
1766401977299887000,4.43388720703125,-0.6970832347869873,-4.736537456512451,-8.55860424041748
1766401977309896700,4.443896728515625,-0.667628288269043,-4.800130367279053,-8.525458335876465
1766401977319906600,4.453906494140625,-0.6396331191062927,-4.875999927520752,-8.484451293945312
1766401977329947000,4.46394677734375,-0.6081432104110718,-4.9620866775512695,-8.436721801757812
1766401977339956700,4.473956787109375,-0.572320818901062,-5.055562496185303,-8.383565902709961
1766401977349966300,4.48396630859375,-0.5379233956336975,-5.162607669830322,-8.320367813110352
1766401977360006700,4.494006591796875,-0.5038422346115112,-5.285521507263184,-8.244986534118652
1766401977370016500,4.5040166015625,-0.46695035696029663,-5.418760776519775,-8.160233497619629
1766401977389935900,4.523935791015625,-0.3574427366256714,-5.804842472076416,-7.895977020263672
1766401977399945700,4.53394580078125,-0.30891939997673035,-5.978241920471191,-7.767599105834961
1766401977409955600,4.54395556640625,-0.2846596837043762,-6.067811965942383,-7.698768138885498
1766401977419934700,4.553934814453125,-0.2422514408826828,-6.2594380378723145,-7.545274257659912
1766401977429944600,4.563944580078125,-0.20638693869113922,-6.4606709480285645,-7.374791622161865
1766401977439954200,4.5739541015625,-0.1758688986301422,-6.669555187225342,-7.187247276306152
1766401977449903000,4.583903076171875,-0.13874036073684692,-6.998575210571289,-6.868120193481445
1766401977459943200,4.593943115234375,-0.1268913745880127,-7.112159729003906,-6.750664234161377
1766401977469922600,4.603922607421875,-0.10080591589212418,-7.349345684051514,-6.492098808288574
1766401977479932400,4.613932373046875,-0.0570981465280056,-7.723641395568848,-6.042557239532471
1766401977499982300,4.633982421875,-0.02015913650393486,-8.096527099609375,-5.533194541931152
1766401977509961500,4.64396142578125,-0.005733867641538382,-8.338920593261719,-5.160696983337402
1766401977520001800,4.654001708984375,0.0274672694504261,-8.686445236206055,-4.551408290863037
1766401977530011600,4.66401171875,0.04252484440803528,-8.793672561645508,-4.340497970581055
1766401977540021500,4.674021484375,0.07565028220415115,-9.001184463500977,-3.8914437294006348
1766401977550000600,4.684000732421875,0.1091805100440979,-9.19241714477539,-3.4143741130828857
1766401977560071400,4.694071533203125,0.15733253955841064,-9.362652778625488,-2.9131391048431396
1766401977570050800,4.70405078125,0.2249579280614853,-9.507484436035156,-2.393223524093628
1766401977590100700,4.724100830078125,0.4047437012195587,-9.713233947753906,-1.2882760763168335
1766401977600110600,4.734110595703125,0.4994175434112549,-9.767875671386719,-0.7138482332229614
1766401977610120200,4.7441201171875,0.5867898464202881,-9.788262367248535,-0.12637539207935333
1766401977620130000,4.754130126953125,0.6721096038818359,-9.77221393585205,0.4717296361923218
1766401977630140000,4.764139892578125,0.7586988806724548,-9.718801498413086,1.0675535202026367
1766401977640180200,4.77418017578125,0.8505266904830933,-9.62692928314209,1.6641075611114502
1766401977650189800,4.78418994140625,1.0326544046401978,-9.413105964660645,2.549010753631592
1766401977660199700,4.79419970703125,1.1013625860214233,-9.322680473327637,2.8363778591156006
1766401977670209300,4.804209228515625,1.3554162979125977,-8.985337257385254,3.6874070167541504
1766401977690198500,4.824198486328125,1.724747657775879,-8.407733917236328,4.744012832641602
1766401977710248400,4.84424853515625,2.0796241760253906,-7.706668853759766,5.696738243103027
1766401977720227600,4.8542275390625,2.144101142883301,-7.530175685882568,5.905054569244385
1766401977740247300,4.874247314453125,2.4440555572509766,-6.587028503417969,6.841639995574951
1766401977750257000,4.8842568359375,2.437394380569458,-6.472101211547852,6.952798366546631
1766401977760297200,4.894297119140625,2.377164125442505,-6.30803918838501,7.12237024307251
1766401977770337500,4.904337646484375,2.492581367492676,-5.715402603149414,7.569123268127441
1766401977780347400,4.914347412109375,2.530484199523926,-5.5094990730285645,7.707948207855225
1766401977790357000,4.92435693359375,2.6635148525238037,-4.849146366119385,8.097028732299805
1766401977820386300,4.95438623046875,2.9282689094543457,-3.5255391597747803,8.669845581054688
1766401977830396200,4.964396240234375,3.0206754207611084,-3.093506097793579,8.80205249786377
1766401977840406000,4.974406005859375,3.112406015396118,-2.673269033432007,8.907129287719727
1766401977850415600,4.98441552734375,3.1577818393707275,-2.465459108352661,8.950995445251465
1766401977860456000,4.9944560546875,3.2500836849212646,-2.0594699382781982,9.020306587219238
1766401977870435300,5.004435302734375,3.3438568115234375,-1.6699059009552002,9.066446304321289
1766401977880445000,5.01444482421875,3.4822733402252197,-1.1298390626907349,9.097672462463379
1766401977900464600,5.034464599609375,3.657269239425659,-0.49475178122520447,9.085702896118164
1766401977910474200,5.04447412109375,3.7009634971618652,-0.34807756543159485,9.07480525970459
1766401977920484000,5.054484130859375,3.7885704040527344,-0.07765231281518936,9.044947624206543
1766401977930494000,5.064493896484375,3.917506217956543,0.2863057255744934,8.985630989074707
1766401977940503600,5.074503662109375,3.9998867511749268,0.5098955631256104,8.939312934875488
1766401977950513400,5.084513427734375,4.077481746673584,0.7169749736785889,8.889908790588379
1766401977960523000,5.09452294921875,4.151150703430176,0.9066373705863953,8.838345527648926
1766401977970532900,5.104532958984375,4.2225022315979,1.0786324739456177,8.785067558288574
1766401977980542700,5.114542724609375,4.293294429779053,1.228846549987793,8.730862617492676
1766401978040601300,5.174601318359375,4.771099090576172,1.6028730869293213,8.416519165039062
1766401978050611000,5.18461083984375,4.845282077789307,1.6176633834838867,8.371188163757324
1766401978060590300,5.19459033203125,4.916032791137695,1.624131202697754,8.328577995300293
1766401978070600000,5.204599853515625,4.987663269042969,1.625453233718872,8.285619735717773
1766401978080609800,5.21460986328125,5.060521602630615,1.6252646446228027,8.241361618041992
1766401978090619600,5.22461962890625,5.1282219886779785,1.6167314052581787,8.201090812683105
1766401978130689000,5.26468896484375,5.478600025177002,1.5433119535446167,7.985833644866943
1766401978140729300,5.274729248046875,5.527040958404541,1.5028870105743408,7.9601216316223145
1766401978150739200,5.2847392578125,5.571991443634033,1.4494235515594482,7.938669681549072
1766401978160779500,5.294779541015625,5.614574909210205,1.3900327682495117,7.919264793395996
1766401978170789000,5.3047890625,5.665130615234375,1.3054083585739136,7.897632122039795
1766401978180799000,5.314799072265625,5.720279216766357,1.2324656248092651,7.8695502281188965
1766401978190808800,5.324808837890625,5.756235122680664,1.1734484434127808,7.852335453033447
1766401978200818400,5.334818359375,5.80400276184082,1.0823301076889038,7.830230712890625
1766401978220838100,5.354838134765625,5.919123649597168,0.9178231358528137,7.764789581298828
1766401978230817300,5.3648173828125,5.977824687957764,0.8644507527351379,7.72584867477417
1766401978240888000,5.37488818359375,6.0216450691223145,0.8298588395118713,7.695552349090576
1766401978250898000,5.38489794921875,6.058866500854492,0.7989746332168579,7.669561386108398
1766401978260907500,5.394907470703125,6.088207244873047,0.7829888463020325,7.647943496704102
1766401978270917400,5.40491748046875,6.119558334350586,0.7704646587371826,7.6241583824157715
1766401978280927200,5.41492724609375,6.157018184661865,0.7751243114471436,7.5934648513793945
1766401978290906400,5.42490625,6.174039363861084,0.7666636109352112,7.580491542816162
1766401978330945500,5.464945556640625,6.352724075317383,0.6194342970848083,7.445104122161865
1766401978340985900,5.47498583984375,6.395995140075684,0.5431416034698486,7.4139485359191895
1766401978350995500,5.484995361328125,6.441729545593262,0.465019166469574,7.379585266113281
1766401978361005300,5.49500537109375,6.493880271911621,0.3850274980068207,7.338369846343994
1766401978371015200,5.50501513671875,6.567642688751221,0.31830739974975586,7.275653839111328
1766401978381024800,5.515024658203125,6.606061935424805,0.2976910173892975,7.241665363311768
1766401978391034600,5.52503466796875,6.6313090324401855,0.29382389783859253,7.2187113761901855
1766401978401044500,5.53504443359375,6.653599262237549,0.30885303020477295,7.197542667388916
1766401978461164000,5.5951640625,6.812031269073486,0.47000062465667725,7.038871765136719
1766401978471173600,5.605173583984375,6.833926677703857,0.5186232924461365,7.014190196990967
1766401978481153000,5.615153076171875,6.858055114746094,0.5705432891845703,6.986555099487305
1766401978491163000,5.625162841796875,6.8788347244262695,0.6359497904777527,6.960431098937988
1766401978501172500,5.63517236328125,6.886343479156494,0.6584997177124023,6.950902938842773
1766401978511182300,5.645182373046875,6.904476165771484,0.698309600353241,6.928994655609131
1766401978531201800,5.665201904296875,6.951507568359375,0.7893680930137634,6.871959686279297
1766401978541211600,5.675211669921875,6.970418930053711,0.8327105045318604,6.847644805908203
1766401978551221200,5.68522119140625,6.986204624176025,0.8963356614112854,6.823483467102051
1766401978561231000,5.695231201171875,7.000061988830566,0.9368241429328918,6.80381441116333
1766401978571241000,5.705240966796875,7.0159125328063965,0.9744275808334351,6.782171726226807
1766401978581250600,5.71525048828125,7.0321855545043945,1.0148069858551025,6.759357929229736
1766401978591260400,5.725260498046875,7.047077655792236,1.058989405632019,6.737033843994141
1766401978601270300,5.735270263671875,7.058991432189941,1.1133662462234497,6.715760231018066
1766401978611249400,5.74524951171875,7.070806503295898,1.2309095859527588,6.68273401260376
1766401978621289700,5.755289794921875,7.067941665649414,1.337580919265747,6.665243148803711
1766401978651319000,5.785319091796875,7.007478713989258,1.347079873085022,6.726887226104736
1766401978671338500,5.80533837890625,6.9528889656066895,1.2954747676849365,6.793339729309082
1766401978681348400,5.815348388671875,6.908743858337402,1.2364885807037354,6.849142551422119
1766401978691327500,5.825327392578125,6.860699653625488,1.161292552947998,6.910325527191162
1766401978701337300,5.83533740234375,6.809679985046387,1.0717722177505493,6.97495174407959
1766401978711347200,5.84534716796875,6.756301403045654,0.9715683460235596,7.041223049163818
1766401978721356800,5.855356689453125,6.682499885559082,0.8059117794036865,7.131976127624512
1766401978731366700,5.86536669921875,6.655756950378418,0.7507070899009705,7.162940979003906
1766401978751386000,5.88538623046875,6.547369480133057,0.4366980791091919,7.2877726554870605
1766401978761396000,5.89539599609375,6.511107444763184,0.3708575963973999,7.323819637298584
1766401978771405600,5.905405517578125,6.430832862854004,0.21798136830329895,7.4004902839660645
1766401978781446000,5.91544580078125,6.245568752288818,0.055398426949977875,7.560437202453613
1766401978791455700,5.925455810546875,6.146180152893066,-0.11437077075242996,7.640797138214111
1766401978801496000,5.93549609375,6.080501556396484,-0.29337555170059204,7.688422203063965
1766401978811505700,5.945505615234375,6.05012321472168,-0.48270082473754883,7.702817916870117
1766401978821546000,5.9555458984375,6.0523600578308105,-0.7597141265869141,7.678681373596191
1766401978831495000,5.965494873046875,6.043867588043213,-0.8530020713806152,7.67557430267334
1766401978851514400,5.985514404296875,6.073390007019043,-1.1798650026321411,7.608695983886719
1766401978871533800,6.005533935546875,6.128706932067871,-1.5009881258010864,7.507087707519531
1766401978881574100,6.01557421875,6.160654067993164,-1.644622564315796,7.450634479522705
1766401978891584000,6.025583984375,6.193339824676514,-1.7647019624710083,7.39586067199707
1766401978901593600,6.035593505859375,6.225258827209473,-1.8622117042541504,7.3449788093566895
1766401978911573000,6.045572998046875,6.252320766448975,-1.9522367715835571,7.298468589782715
1766401978921613300,6.05561328125,6.273433685302734,-2.0476531982421875,7.2540693283081055
1766401978931623000,6.065622802734375,6.290968894958496,-2.151951313018799,7.208550453186035
1766401978941632800,6.0756328125,6.311748027801514,-2.309157609939575,7.141430377960205
1766401978961652200,6.09565234375,6.337120056152344,-2.428401231765747,7.079136371612549
1766401978971662000,6.105662109375,6.363138198852539,-2.4593350887298584,7.045037269592285
1766401978981671700,6.115671630859375,6.3882575035095215,-2.4690353870391846,7.018863201141357
1766401978991651000,6.125651123046875,6.401597499847412,-2.4827463626861572,7.001851558685303
1766401979001661000,6.135660888671875,6.4005560874938965,-2.5228912830352783,6.988439083099365
1766401979011670500,6.14567041015625,6.393951892852783,-2.583773374557495,6.972222328186035
1766401979021680400,6.155680419921875,6.389513969421387,-2.6480987071990967,6.952127456665039
1766401979031690200,6.165690185546875,6.400104999542236,-2.694227933883667,6.9246063232421875
1766401979041730300,6.175730224609375,6.428821563720703,-2.7522754669189453,6.875000476837158
1766401979051740200,6.185740234375,6.446829319000244,-2.7703940868377686,6.850816249847412
1766401979061750000,6.19575,6.482816696166992,-2.823495388031006,6.794949531555176
1766401979081769500,6.21576953125,6.596933364868164,-2.989642381668091,6.611573219299316
1766401979091748600,6.22574853515625,6.6314616203308105,-3.0347166061401367,6.556264877319336
1766401979101758500,6.235758544921875,6.656975746154785,-3.0799989700317383,6.509122371673584
1766401979111768300,6.245768310546875,6.685374736785889,-3.1041669845581055,6.468408584594727
1766401979121778000,6.25577783203125,6.708361625671387,-3.129295825958252,6.432401657104492
1766401979131818200,6.265818359375,6.728122234344482,-3.1646981239318848,6.394328594207764
1766401979141858600,6.275858642578125,6.742061614990234,-3.2134616374969482,6.3552069664001465
1766401979151868400,6.285868408203125,6.757914066314697,-3.2643728256225586,6.3122782707214355
1766401979181897700,6.315897705078125,6.848165035247803,-3.443434953689575,6.116844177246094
1766401979191907300,6.3259072265625,6.899990081787109,-3.4918148517608643,6.0305681228637695
1766401979201917200,6.335917236328125,6.945228576660156,-3.5172438621520996,5.9634881019592285
1766401979211927000,6.345927001953125,6.954718112945557,-3.5788002014160156,5.91561222076416
1766401979221936600,6.3559365234375,6.953869819641113,-3.626410961151123,5.887547492980957
1766401979231946500,6.365946533203125,6.930302143096924,-3.6870508193969727,5.877665996551514
1766401979241956400,6.375956298828125,6.923060417175293,-3.70406436920166,5.875502586364746
1766401979251966000,6.385966064453125,6.904437065124512,-3.7387335300445557,5.875458717346191
1766401979261975800,6.395975830078125,6.901176452636719,-3.7445108890533447,5.875609874725342
1766401979282025700,6.416025634765625,6.89354133605957,-3.7619736194610596,5.873416900634766
1766401979292066000,6.426066162109375,6.881507396697998,-3.7845590114593506,5.873020172119141
1766401979302106400,6.4361064453125,6.870419025421143,-3.799377679824829,5.876432418823242
1766401979312116200,6.4461162109375,6.849404811859131,-3.8255715370178223,5.883965969085693
1766401979322156500,6.456156494140625,6.823294162750244,-3.8463656902313232,5.900722503662109
1766401979332166100,6.466166259765625,6.798357963562012,-3.858647584915161,5.921448707580566
1766401979342176000,6.476176025390625,6.772984504699707,-3.864814281463623,5.9464521408081055
1766401979352185600,6.486185546875,6.724105358123779,-3.901069402694702,5.978164196014404
1766401979362226000,6.496225830078125,6.697244644165039,-3.9131345748901367,6.00039005279541
1766401979392224800,6.526224853515625,6.672379493713379,-3.915762186050415,6.0263214111328125
1766401979402234600,6.536234619140625,6.65746545791626,-3.9189391136169434,6.040733337402344
1766401979412244200,6.546244140625,6.653807640075684,-3.9047272205352783,6.053951740264893
1766401979422254000,6.556254150390625,6.638561725616455,-3.8745765686035156,6.089953422546387
1766401979432264000,6.566263916015625,6.623851776123047,-3.846768617630005,6.123507499694824
1766401979442304000,6.576303955078125,6.604343414306641,-3.825050115585327,6.158086776733398
1766401979452344300,6.58634423828125,6.580455303192139,-3.802009344100952,6.197799205780029
1766401979462384600,6.596384521484375,6.567852973937988,-3.7794783115386963,6.224888801574707
1766401979472394500,6.60639453125,6.563090801239014,-3.7714672088623047,6.234761714935303
1766401979492414000,6.6264140625,6.560349941253662,-3.7716643810272217,6.237526893615723
1766401979502454300,6.636454345703125,6.556909561157227,-3.766341209411621,6.244358062744141
1766401979512464100,6.646464111328125,6.561819076538086,-3.7515645027160645,6.2480950355529785
1766401979522504400,6.65650439453125,6.58167839050293,-3.73301362991333,6.238309860229492
1766401979532514000,6.66651416015625,6.608221530914307,-3.7147200107574463,6.2211456298828125
1766401979542524000,6.67652392578125,6.635745048522949,-3.6954760551452637,6.20328426361084
1766401979552533500,6.686533447265625,6.665865421295166,-3.6689178943634033,6.186734199523926
1766401979562543400,6.69654345703125,6.698843479156494,-3.6350114345550537,6.171108245849609
1766401979572553200,6.70655322265625,6.739099502563477,-3.586012840270996,6.155926704406738
1766401979622602000,6.75660205078125,7.005359172821045,-3.3658361434936523,5.9805073738098145
1766401979642713000,6.776713134765625,7.126896858215332,-3.211641550064087,5.921410083770752
1766401979652661800,6.786661865234375,7.213062286376953,-3.073448896408081,5.890334606170654
1766401979662702000,6.7967021484375,7.248653888702393,-3.0399177074432373,5.86398458480835
1766401979672681200,6.80668115234375,7.3678975105285645,-2.807140588760376,5.831332683563232
1766401979682691000,6.816691162109375,7.47144889831543,-2.603874921798706,5.793761253356934
1766401979722699500,6.856699462890625,7.866873741149902,-1.3421968221664429,5.699226379394531
1766401979732739800,6.86673974609375,7.944568157196045,-0.9144886136054993,5.676084041595459
1766401979742780200,6.8767802734375,7.992397785186768,-0.4530748426914215,5.664511203765869
1766401979752759600,6.886759521484375,8.007637977600098,0.024629998952150345,5.661052703857422
1766401979762769200,6.89676904296875,7.993347644805908,0.491399884223938,5.659974098205566
1766401979772779000,6.906779052734375,7.9750566482543945,0.7206946015357971,5.661223888397217
1766401979782819300,6.9168193359375,7.92551851272583,1.1189532279968262,5.666082859039307
1766401979832807200,6.96680712890625,7.7059783935546875,2.170456886291504,5.663691520690918
1766401979842816800,6.976816650390625,7.596914291381836,2.4606282711029053,5.692327976226807
1766401979852857000,6.986857177734375,7.508746147155762,2.6562623977661133,5.721310138702393
1766401979862867000,6.996866943359375,7.413108825683594,2.84183669090271,5.756749629974365
1766401979872907300,7.0069072265625,7.360336780548096,2.928886890411377,5.780783653259277
1766401979882947300,7.016947265625,7.216551780700684,3.1772572994232178,5.8306779861450195
1766401979912976600,7.0469765625,6.95138692855835,3.5340404510498047,5.946357727050781
1766401979923017000,7.057016845703125,6.891059398651123,3.578979015350342,5.989541053771973
1766401979933026800,7.06702685546875,6.819590091705322,3.6222355365753174,6.04508113861084
1766401979943036700,7.07703662109375,6.808310508728027,3.6238648891448975,6.056806564331055
1766401979953015800,7.087015869140625,6.750862121582031,3.6296072006225586,6.117368698120117
1766401979963025700,7.097025634765625,6.717995643615723,3.60141921043396,6.169983863830566
1766401979973065700,7.107065673828125,6.665430068969727,3.550840139389038,6.255715370178223
1766401979983075600,7.11707568359375,6.6620192527771,3.4411747455596924,6.320301055908203
1766401979993085400,7.12708544921875,6.669005393981934,3.344571828842163,6.3646368980407715
1766401980033155000,7.167155029296875,6.941053867340088,2.9334347248077393,6.275915622711182
1766401980043164700,7.17716455078125,7.059338092803955,2.869035243988037,6.172906875610352
1766401980053174500,7.187174560546875,7.107526779174805,2.8413796424865723,6.13025426864624
1766401980063184100,7.19718408203125,7.181793689727783,2.8156228065490723,6.055121898651123
1766401980073163500,7.20716357421875,7.277545928955078,2.7643256187438965,5.963741779327393
1766401980083173400,7.21717333984375,7.3424859046936035,2.7190675735473633,5.904655456542969
1766401980093213400,7.22721337890625,7.401787757873535,2.6645278930664062,5.85527229309082
1766401980113263600,7.247263671875,7.443663597106934,2.678035020828247,5.795721530914307
1766401980123242800,7.25724267578125,7.433721542358398,2.7269930839538574,5.78564453125
1766401980133283000,7.267282958984375,7.400977611541748,2.721055269241333,5.830246925354004
1766401980143293000,7.27729296875,7.383118152618408,2.589604377746582,5.912182807922363
1766401980153302800,7.287302734375,7.381233215332031,2.4421987533569336,5.97691011428833
1766401980163282000,7.297281982421875,7.382978439331055,2.342421054840088,6.014572620391846
1766401980173352700,7.307352783203125,7.379714488983154,2.310230255126953,6.031006336212158
1766401980183362600,7.317362548828125,7.373758316040039,2.3204851150512695,6.034353256225586
1766401980193372200,7.3273720703125,7.364954471588135,2.344181776046753,6.035946369171143
1766401980203412500,7.33741259765625,7.3514084815979,2.385950803756714,6.036093235015869
1766401980233441800,7.36744189453125,7.30024528503418,2.5123019218444824,6.046911716461182
1766401980243451600,7.37745166015625,7.279296875,2.5835230350494385,6.042154788970947
1766401980253492000,7.387491943359375,7.3383917808532715,2.4074628353118896,6.043386459350586
1766401980263501600,7.39750146484375,7.401381015777588,2.2181143760681152,6.039032459259033
1766401980273511400,7.407511474609375,7.451498031616211,2.0607199668884277,6.033158779144287
1766401980283490600,7.417490478515625,7.468193054199219,1.9597538709640503,6.046143054962158
1766401980293531000,7.42753076171875,7.473564147949219,1.9670363664627075,6.037133693695068
1766401980303601700,7.4376015625,7.442427635192871,2.033339023590088,6.053610324859619
1766401980333600500,7.4676005859375,7.282864093780518,2.1398870944976807,6.208957672119141
1766401980343640800,7.477640869140625,7.26826810836792,2.099029302597046,6.239932060241699
1766401980353620000,7.487619873046875,7.219607830047607,2.04378342628479,6.314316749572754
1766401980363660300,7.497660400390625,7.202611923217773,2.032925605773926,6.337191104888916
1766401980373700600,7.50770068359375,7.166695594787598,1.9891366958618164,6.391572952270508
1766401980383679700,7.5176796875,7.131843090057373,1.929068684577942,6.448712348937988
1766401980393689600,7.527689697265625,7.098491668701172,1.861291766166687,6.50518274307251
1766401980403730000,7.53772998046875,7.065738201141357,1.7849663496017456,6.561984062194824
1766401980413770200,7.547770263671875,7.031740665435791,1.7344261407852173,6.6118669509887695
1766401980443799600,7.577799560546875,6.933270454406738,1.6387031078338623,6.739050388336182
1766401980453840000,7.58783984375,6.9140849113464355,1.6146762371063232,6.76451301574707
1766401980463849500,7.597849365234375,6.911816120147705,1.5869077444076538,6.773397445678711
1766401980473859300,7.607859375,6.8868889808654785,1.5237281322479248,6.813178062438965
1766401980483838500,7.61783837890625,6.861268043518066,1.4524863958358765,6.854462623596191
1766401980493878800,7.627878662109375,6.82321834564209,1.3727704286575317,6.9086594581604
1766401980503888600,7.637888671875,6.809283256530762,1.330776333808899,6.930590629577637
1766401980513898200,7.647898193359375,6.780925273895264,1.2667828798294067,6.970273494720459
1766401980523938600,7.6579384765625,6.754337787628174,1.2137030363082886,7.005443572998047
1766401980574048500,7.708048583984375,6.674224376678467,1.005358338356018,7.114377498626709
1766401980604047400,7.73804736328125,6.602864742279053,0.8253598213195801,7.2035651206970215
1766401980614087700,7.748087646484375,6.589761257171631,0.7946788668632507,7.218997478485107
1766401980624127700,7.758127685546875,6.568462371826172,0.7425301671028137,7.243917465209961
1766401980634137600,7.7681376953125,6.538576126098633,0.6686670184135437,7.278069019317627
1766401980644117000,7.778116943359375,6.530276298522949,0.6077867746353149,7.290848255157471
1766401980664197400,7.798197265625,6.463273525238037,0.36374884843826294,7.366421222686768
1766401980674176800,7.8081767578125,6.443104267120361,0.29848405718803406,7.386995315551758
1766401980684186400,7.818186279296875,6.430232048034668,0.2529594600200653,7.399899959564209
1766401980694196200,7.8281962890625,6.421858787536621,0.20565935969352722,7.408632278442383
1766401980704206000,7.8382060546875,6.415187835693359,0.15134119987487793,7.415716171264648
1766401980714215700,7.848215576171875,6.4077372550964355,0.1120595708489418,7.422852516174316
1766401980724225500,7.8582255859375,6.4004998207092285,0.038811083883047104,7.42983865737915
1766401980734265900,7.868265869140625,6.41003942489624,-0.04339461401104927,7.421584129333496
1766401980744275500,7.878275390625,6.416074752807617,-0.09065555036067963,7.415939807891846
1766401980784314600,7.918314697265625,6.550964832305908,-0.06615268439054489,7.2973198890686035
1766401980794293800,7.928293701171875,6.595475196838379,-0.02887742780148983,7.257359504699707
1766401980804303600,7.9383037109375,6.652876377105713,-0.003995791543275118,7.204832553863525
1766401980814313500,7.9483134765625,6.687955856323242,0.003279752330854535,7.1722822189331055
1766401980824323000,7.958322998046875,6.716977119445801,-0.0785711407661438,7.144677639007568
1766401980834333000,7.9683330078125,6.730811595916748,-0.14452742040157318,7.130615234375
1766401980844342800,7.9783427734375,6.744822978973389,-0.19548135995864868,7.116146564483643
1766401980874341400,8.00834130859375,6.786011695861816,-0.03552490472793579,7.0794901847839355
1766401980884381700,8.018381591796874,6.806280136108398,0.0919455885887146,7.05949592590332
1766401980894391600,8.0283916015625,6.817635536193848,0.191064715385437,7.046540260314941
1766401980904431900,8.038431884765625,6.861558437347412,0.236703023314476,7.002384185791016
1766401980914411000,8.048410888671874,6.906404495239258,0.21943916380405426,6.95872163772583
1766401980924451300,8.058451416015625,6.9460320472717285,0.197367325425148,6.919832229614258
1766401980934461200,8.068461181640625,6.9849982261657715,0.09985797107219696,6.882602691650391
1766401980954450200,8.0884501953125,7.046242713928223,-0.1548442393541336,6.818861961364746
1766401980994458600,8.128458740234375,7.074696063995361,-0.3425450325012207,6.78245735168457
1766401981004468500,8.138468505859375,7.075043678283691,-0.3806038498878479,6.780066013336182
1766401981014447600,8.148447509765624,7.076115608215332,-0.39979368448257446,6.7778425216674805
1766401981024457500,8.15845751953125,7.083075523376465,-0.4164186716079712,6.769566059112549
1766401981034436600,8.1684365234375,7.092796802520752,-0.4645043611526489,6.7562456130981445
1766401981044446500,8.178446533203125,7.105546474456787,-0.5277031660079956,6.738183975219727
1766401981054425600,8.188425537109374,7.124205589294434,-0.5157899856567383,6.719378471374512
1766401981084546600,8.218546630859375,7.12088680267334,-0.4774181842803955,6.725729465484619
1766401981094525700,8.228525634765624,7.102847576141357,-0.5307561159133911,6.740789413452148
1766401981104535600,8.23853564453125,7.0890069007873535,-0.5843810439109802,6.750916004180908
1766401981114545400,8.24854541015625,7.061007022857666,-0.7049132585525513,6.7687273025512695
1766401981124555000,8.258554931640624,7.054790496826172,-0.7628753185272217,6.768923759460449
1766401981134564900,8.26856494140625,7.047171592712402,-0.8216142058372498,6.769987106323242
1766401981144605200,8.278605224609375,7.041107654571533,-0.865161120891571,6.770870208740234
1766401981154615000,8.288614990234375,7.0381083488464355,-0.9010840654373169,6.769303798675537
1766401981164624600,8.298624755859375,7.037450790405273,-0.8986200094223022,6.770313739776611
1766401981174604000,8.30860400390625,7.037437438964844,-0.8734467029571533,6.773621559143066
1766401981184613600,8.318613525390624,7.035575866699219,-0.8662684559822083,6.776476860046387
1766401981214643000,8.348642822265624,7.032254219055176,-0.9085203409194946,6.774391174316406
1766401981234662400,8.368662353515624,7.033126354217529,-1.1048659086227417,6.744241714477539
1766401981244672300,8.37867236328125,7.0278191566467285,-1.1751965284347534,6.737882614135742
1766401981254651600,8.388651611328125,6.98124885559082,-1.3701567649841309,6.749460220336914
1766401981264691700,8.398691650390624,6.945743560791016,-1.5012022256851196,6.758211612701416
1766401981274701600,8.40870166015625,6.904897689819336,-1.6408839225769043,6.767590522766113
1766401981294721000,8.428720947265624,6.834178447723389,-1.8792935609817505,6.77736234664917
1766401981314710000,8.4487099609375,6.746366024017334,-2.1456024646759033,6.786260604858398
1766401981324719900,8.458719970703125,6.734598159790039,-2.192866563796997,6.782840251922607
1766401981334729700,8.468729736328125,6.7337751388549805,-2.2145907878875732,6.7765960693359375
1766401981344739300,8.4787392578125,6.728000164031982,-2.2502260208129883,6.770589828491211
1766401981354749200,8.488749267578125,6.733072757720947,-2.2508602142333984,6.765334606170654
1766401981364789500,8.49878955078125,6.738766670227051,-2.237074136734009,6.764238357543945
1766401981414838300,8.54883837890625,6.951059818267822,-1.6658371686935425,6.714025497436523
1766401981424848100,8.55884814453125,6.975546836853027,-1.5928020477294922,6.706348419189453
1766401981434857700,8.568857666015624,7.003344535827637,-1.5051660537719727,6.697613716125488
1766401981444867600,8.57886767578125,7.0180463790893555,-1.4600141048431396,6.692216873168945
1766401981454847000,8.588846923828125,7.064049243927002,-1.3045307397842407,6.675911903381348
1766401981464887000,8.598886962890624,7.07564115524292,-1.2397525310516357,6.675980091094971
1766401981474897000,8.60889697265625,7.095555305480957,-1.0475655794143677,6.6877570152282715
1766401981514936000,8.64893603515625,7.2043657302856445,-0.3172033727169037,6.645816326141357
1766401981524915200,8.658915283203125,7.213080883026123,-0.2706710398197174,6.638418197631836
1766401981534925000,8.668925048828125,7.22516393661499,-0.21957390010356903,6.62715482711792
1766401981544965400,8.67896533203125,7.239577770233154,-0.1561225801706314,6.613208293914795
1766401981554944500,8.688944580078125,7.240001201629639,-0.12003274261951447,6.613499164581299
1766401981564984800,8.69898486328125,7.226688385009766,-0.0949023887515068,6.628450870513916
1766401981584973800,8.718973876953125,7.17912483215332,-0.0863952562212944,6.680051803588867
1766401981615033600,8.74903369140625,7.062109470367432,-0.16380934417247772,6.802217960357666
1766401981625043500,8.75904345703125,7.040829658508301,-0.20630759000778198,6.823089122772217
1766401981635053000,8.769052978515624,7.008836269378662,-0.2346004992723465,6.855040073394775
1766401981645093400,8.77909326171875,6.966403484344482,-0.26469868421554565,6.897068500518799
1766401981655103200,8.789103271484375,6.912943363189697,-0.2835635542869568,6.949905872344971
1766401981665113000,8.799113037109375,6.852435111999512,-0.2548515498638153,7.010676383972168
1766401981675122700,8.809122802734375,6.801642417907715,-0.21760639548301697,7.061211585998535
1766401981705182500,8.839182373046874,6.747738361358643,-0.1336202472448349,7.11481237411499
1766401981745252000,8.879252197265625,6.706571102142334,-0.22341829538345337,7.151390075683594
1766401981755262000,8.889261962890625,6.709418773651123,-0.22016192972660065,7.148819923400879
1766401981765271600,8.899271484375,6.728618144989014,-0.07356295734643936,7.13377046585083
1766401981775281400,8.909281494140625,6.733033657073975,0.05697451904416084,7.129755020141602
1766401981785291300,8.919291259765625,6.731110095977783,0.17401129007339478,7.12967586517334
1766401981805310700,8.939310791015625,6.712765693664551,0.30901217460632324,7.142385959625244
1766401981845410800,8.979410888671875,6.704402446746826,0.4336594343185425,7.143761157989502
1766401981855420700,8.989420654296875,6.719000339508057,0.4706374406814575,7.127687931060791
1766401981865430300,8.99943017578125,6.735771656036377,0.537061333656311,7.107132911682129
1766401981875440000,9.009440185546875,6.744081497192383,0.575319766998291,7.096250057220459
1766401981885450000,9.019449951171875,6.766941070556641,0.6735235452651978,7.0657806396484375
1766401981925489000,9.059489013671875,6.8677825927734375,1.0613064765930176,6.9193620681762695
1766401981935498800,9.069498779296875,6.884802341461182,1.043823480606079,6.905094146728516
1766401981945508400,9.07950830078125,6.906947612762451,0.9939566850662231,6.890321254730225
1766401981955518200,9.089518310546875,6.934192657470703,0.9360267519950867,6.871042251586914
1766401981965528000,9.099528076171875,6.948953628540039,0.9071008563041687,6.8600006103515625
1766401981975537700,9.10953759765625,6.996123313903809,0.8343062400817871,6.821186065673828
1766401981985578000,9.119577880859374,7.03592586517334,0.8073709011077881,6.783383846282959
1766401981995587800,9.129587890625,7.0923542976379395,0.802647054195404,6.72492790222168
1766401982045728300,9.179728271484375,7.131888389587402,0.6193532943725586,6.702458381652832
1766401982055737900,9.18973779296875,7.125746726989746,0.41133126616477966,6.724947929382324
1766401982065747700,9.199747802734375,7.130493640899658,0.3426876664161682,6.7237653732299805
1766401982075757600,9.209757568359375,7.134309768676758,0.28467705845832825,6.722424030303955
1766401982085798000,9.2197978515625,7.121421813964844,0.2815592288970947,6.736205577850342
1766401982095807500,9.229807373046874,7.112884521484375,0.29050213098526,6.744840145111084
1766401982105817300,9.2398173828125,7.081307888031006,0.28791940212249756,6.77809476852417
1766401982125867300,9.2598671875,7.007574558258057,0.2639671564102173,6.855262279510498
1766401982135877000,9.269877197265625,6.971688747406006,0.2198784351348877,6.893301010131836
1766401982145917400,9.27991748046875,6.946073055267334,0.14654986560344696,6.921053886413574
1766401982155896600,9.289896484375,6.925641059875488,0.07383417338132858,6.942653179168701
1766401982165906400,9.299906494140625,6.919949054718018,0.04730331152677536,6.948558330535889
1766401982175916300,9.309916259765625,6.922616958618164,0.03768880292773247,6.945959091186523
1766401982185926000,9.31992578125,6.9217119216918945,0.058443713933229446,6.946717739105225
1766401982195935700,9.329935791015625,6.920590877532959,0.07167845964431763,6.9477105140686035
1766401982205945600,9.339945556640625,6.898106098175049,0.09676467627286911,6.96973180770874
1766401982215955200,9.349955078125,6.88643741607666,0.10176321864128113,6.981189727783203
1766401982266004000,9.40000390625,6.814748287200928,0.05278437212109566,7.051723003387451
1766401982286054100,9.42005419921875,6.824984550476074,0.1618751585483551,7.040153503417969
1766401982296064000,9.43006396484375,6.792590618133545,0.19616058468818665,7.070546627044678
1766401982306104000,9.44010400390625,6.76778507232666,0.20974516868591309,7.0939040184021
1766401982316114000,9.450114013671875,6.752671718597412,0.22514526546001434,7.107821464538574
1766401982346143200,9.480143310546875,6.65116024017334,0.20666444301605225,7.20345401763916
1766401982356153000,9.490153076171875,6.642417907714844,0.1797352284193039,7.2122368812561035
1766401982366193400,9.500193359375,6.632072925567627,0.10031389445066452,7.223291397094727
1766401982376172500,9.510172607421875,6.6443352699279785,-0.0675342008471489,7.212394714355469
1766401982386182400,9.520182373046875,6.665112018585205,-0.10219372063875198,7.1927900314331055
1766401982406232300,9.540232421875,6.674786567687988,-0.009411679580807686,7.184533596038818
1766401982416242200,9.5502421875,6.664464950561523,0.06566548347473145,7.193816184997559
1766401982426251800,9.560251708984374,6.632923126220703,0.09529022127389908,7.222578048706055
1766401982436261600,9.57026171875,6.600529193878174,0.06867343187332153,7.252495288848877
1766401982456250600,9.590250732421875,6.573408126831055,-0.0092827919870615,7.277403831481934
1766401982466291000,9.600291015625,6.581462860107422,-0.04887391999363899,7.269961833953857
1766401982476300800,9.61030078125,6.596837997436523,-0.06921908259391785,7.255847930908203
1766401982486310400,9.620310302734374,6.603736877441406,-0.04254910349845886,7.249775409698486
1766401982496320300,9.6303203125,6.603804588317871,0.005120996385812759,7.249837398529053
1766401982506330000,9.640330078125,6.598114967346191,0.060103755444288254,7.254768371582031
1766401982516339700,9.650339599609374,6.588196754455566,0.11205431073904037,7.263160228729248
1766401982566327600,9.70032763671875,6.5694146156311035,0.2631695866584778,7.276257038116455
1766401982576337400,9.71033740234375,6.584427833557129,0.2760387063026428,7.2621965408325195
1766401982586347000,9.720346923828124,6.59620475769043,0.26748424768447876,7.251821994781494
1766401982596356900,9.73035693359375,6.620630741119385,0.310019314289093,7.227829933166504
1766401982606366700,9.74036669921875,6.630659580230713,0.35305503010749817,7.216654300689697
1766401982616376300,9.750376220703124,6.6341047286987305,0.3830801546573639,7.2119550704956055
1766401982626386200,9.76038623046875,6.627115249633789,0.5087906718254089,7.210608005523682
1766401982646405600,9.780405517578124,6.585241794586182,0.6709458231925964,7.23566198348999
1766401982666425300,9.80042529296875,6.552103042602539,0.9286065697669983,7.237267017364502
1766401982676404500,9.810404541015625,6.540729999542236,1.0006120204925537,7.23795747756958
1766401982686475300,9.820475341796875,6.5035624504089355,1.2094157934188843,7.239570140838623
1766401982696454400,9.830454345703124,6.5004048347473145,1.273897647857666,7.23134183883667
1766401982706464300,9.84046435546875,6.504486083984375,1.3226491212844849,7.21890926361084
1766401982716443600,9.850443603515625,6.503114223480225,1.3641595840454102,7.212416648864746
1766401982726453200,9.860453369140625,6.527481555938721,1.4013711214065552,7.183211803436279
1766401982776563200,9.910563232421875,6.759456157684326,1.2730677127838135,6.989952564239502
1766401982786603500,9.920603515625,6.805196762084961,1.2499223947525024,6.949631690979004
1766401982796613000,9.930613037109374,6.841450214385986,1.1850731372833252,6.925354480743408
1766401982806653400,9.9406533203125,6.8678178787231445,1.1537389755249023,6.904517650604248
1766401982816632800,9.9506328125,6.905073642730713,1.1339008808135986,6.870561599731445
1766401982826642400,9.960642333984374,6.941926002502441,1.1021612882614136,6.838515758514404
1766401982836682800,9.970682861328125,6.977960586547852,1.0298537015914917,6.813065528869629
1766401982856702200,9.9907021484375,7.002783298492432,0.8314443826675415,6.814698696136475
1766401982866712000,10.000712158203125,7.002347469329834,0.7582917809486389,6.823673725128174
1766401982876722000,10.010721923828125,7.008640766143799,0.5522726774215698,6.836983680725098
1766401982886762200,10.02076220703125,7.013684272766113,0.45070263743400574,6.839261531829834
1766401982896771800,10.030771728515624,7.014784336090088,0.3945762515068054,6.841601371765137
1766401982906842600,10.040842529296874,7.015455722808838,0.3843953311443329,6.841492176055908
1766401982926892800,10.060892822265625,6.996671676635742,0.39570319652557373,6.860058307647705
1766401982936902400,10.07090234375,6.965958118438721,0.3712789714336395,6.892602920532227
1766401982966962400,10.10096240234375,6.9342875480651855,0.21555501222610474,6.931059837341309
1766401982976972000,10.110971923828124,6.932199478149414,0.1808393895626068,6.934140205383301
1766401982987012400,10.121012451171875,6.9388861656188965,0.17299042642116547,6.927648544311523
1766401982996991700,10.13099169921875,6.9395551681518555,0.19428865611553192,6.926414966583252
1766401983007001300,10.14100146484375,6.93102502822876,0.2316986322402954,6.933801174163818
1766401983017011200,10.15101123046875,6.914597034454346,0.2735626697540283,6.948661804199219
1766401983027020800,10.161020751953124,6.898981094360352,0.31670331954956055,6.962337493896484
1766401983037030700,10.17103076171875,6.888084411621094,0.3894377052783966,6.96943473815918
1766401983047040500,10.18104052734375,6.886599540710449,0.41689532995224,6.969313144683838
1766401983077100300,10.211100341796875,6.893579006195068,0.5625134706497192,6.952160835266113
1766401983087110100,10.221110107421875,6.8958001136779785,0.5562182068824768,6.950463771820068
1766401983097119700,10.23111962890625,6.902701377868652,0.506413996219635,6.947420597076416
1766401983107129600,10.241129638671875,6.908249855041504,0.5066384673118591,6.941885948181152
1766401983117139500,10.251139404296875,6.916750907897949,0.5983426570892334,6.92610502243042
1766401983127179500,10.261179443359374,6.919053554534912,0.6659481525421143,6.917629718780518
1766401983137219800,10.2712197265625,6.9217963218688965,0.7414660453796387,6.907196044921875
1766401983147229700,10.281229736328125,6.92537260055542,0.7932923436164856,6.8978471755981445
1766401983157239600,10.291239501953125,6.932631015777588,0.8235381841659546,6.887002944946289
1766401983187268600,10.3212685546875,7.020111560821533,0.7586386799812317,6.805356979370117
1766401983197278500,10.331278564453125,7.042609214782715,0.7671294808387756,6.781117916107178
1766401983207288300,10.341288330078125,7.065639972686768,0.8201847672462463,6.750883102416992
1766401983217298000,10.3512978515625,7.073501110076904,0.8447068929672241,6.739616870880127
1766401983227307800,10.361307861328125,7.082718849182129,0.876813530921936,6.725822448730469
1766401983237317600,10.371317626953125,7.089757919311523,0.8671493530273438,6.719655990600586
1766401983247388400,10.381388427734375,7.097601413726807,0.8486348986625671,6.713736534118652
1766401983257367600,10.391367431640624,7.104427814483643,0.8694666624069214,6.70384407043457
1766401983267408000,10.401407958984375,7.117354393005371,0.910716712474823,6.684627532958984
1766401983287396900,10.42139697265625,7.126010894775391,0.894533634185791,6.677587032318115
1766401983297406700,10.43140673828125,7.139850616455078,0.8596233129501343,6.6673808097839355
1766401983307416300,10.441416259765624,7.152523994445801,0.8323659300804138,6.657249450683594
1766401983317426200,10.45142626953125,7.163876533508301,0.8062912821769714,6.648244380950928
1766401983327436000,10.46143603515625,7.175020217895508,0.7250853776931763,6.6455793380737305
1766401983337445600,10.471445556640624,7.189377307891846,0.6291431188583374,6.639835834503174
1766401983347486000,10.48148583984375,7.197315216064453,0.6100587844848633,6.6330132484436035
1766401983357526300,10.4915263671875,7.193909645080566,0.682717502117157,6.629626274108887
1766401983377576400,10.511576416015625,7.172505855560303,0.8184165954589844,6.637450695037842
1766401983397565400,10.5315654296875,7.161988258361816,0.863460123538971,6.643097877502441
1766401983407605800,10.541605712890625,7.164584159851074,0.8672893643379211,6.63979959487915
1766401983417615400,10.551615478515625,7.169600486755371,0.8806754946708679,6.632617950439453
1766401983427655700,10.56165576171875,7.1764116287231445,0.9450897574424744,6.616366863250732
1766401983437665500,10.57166552734375,7.1884942054748535,1.0125374794006348,6.593232154846191
1766401983447675100,10.581675048828124,7.198024749755859,1.0481979846954346,6.577242851257324
1766401983457685000,10.59168505859375,7.211038589477539,1.050016164779663,6.562681198120117
1766401983467725300,10.601725341796875,7.226271152496338,1.0267390012741089,6.549594879150391
1766401983497754600,10.631754638671875,7.305810451507568,0.8091694712638855,6.491591453552246
1766401983507764200,10.64176416015625,7.309145450592041,0.7777283191680908,6.491681098937988
1766401983517774000,10.651774169921875,7.301703929901123,0.7117992043495178,6.507599353790283
1766401983527814400,10.661814453125,7.285825252532959,0.640548586845398,6.532751083374023
1766401983537793500,10.67179345703125,7.262782573699951,0.5378454923629761,6.56757926940918
1766401983547833900,10.681833740234374,7.241595268249512,0.37609219551086426,6.602138996124268
1766401983557843700,10.69184375,7.18939208984375,0.10488047450780869,6.668735027313232
1766401983567884000,10.701884033203125,7.145663261413574,-0.0478895865380764,6.716217994689941
1766401983597913300,10.731913330078125,7.078742504119873,-0.08558277040719986,6.786343574523926
1766401983607923000,10.7419228515625,7.0589704513549805,-0.057975511997938156,6.807199954986572
1766401983617932800,10.751932861328125,7.027438640594482,-0.07355301827192307,6.839597225189209
1766401983627942700,10.761942626953125,6.991667747497559,-0.1127849593758583,6.8756279945373535
1766401983637952300,10.7719521484375,6.975685119628906,-0.1322641521692276,6.891495704650879
1766401983647962000,10.781962158203125,6.976175308227539,-0.13532529771327972,6.890940189361572
1766401983657972000,10.791971923828125,6.977601528167725,-0.15370412170886993,6.889111042022705
1766401983667981600,10.801981689453125,6.981090068817139,-0.17853929102420807,6.884975910186768
1766401983698011000,10.832010986328125,6.996128559112549,-0.1812836229801178,6.869621753692627
1766401983708020700,10.842020751953125,7.013235092163086,-0.14971330761909485,6.852920055389404
1766401983717999900,10.851999755859374,7.032102584838867,-0.11107727885246277,6.834294319152832
1766401983728040200,10.862040283203125,7.046257019042969,-0.09831979870796204,6.819896221160889
1766401983738050000,10.872050048828125,7.0620598793029785,-0.15250205993652344,6.80253267288208
1766401983768079400,10.902079345703125,7.075944423675537,-0.29070350527763367,6.78357458114624
1766401983808179500,10.942179443359375,6.917067527770996,-0.5822548270225525,6.927160739898682
1766401983818219800,10.9522197265625,6.887994289398193,-0.6529585719108582,6.949789524078369
1766401983828229400,10.9622294921875,6.831554889678955,-0.7781073451042175,6.992481231689453
1766401983838239200,10.9722392578125,6.77705192565918,-0.8856400847434998,7.032609939575195
1766401983848248800,10.982248779296874,6.708595275878906,-1.0224480628967285,7.079529285430908
1766401983858258700,10.9922587890625,6.6877055168151855,-1.0597823858261108,7.093790531158447
1766401983868268500,11.0022685546875,6.6501593589782715,-1.15174400806427,7.114721298217773
1766401983878278100,11.012278076171874,6.609403133392334,-1.2489848136901855,7.136261940002441
1766401983898328300,11.032328369140625,6.495614051818848,-1.4899325370788574,7.194267272949219
1766401983908399000,11.042399169921875,6.466127872467041,-1.5570552349090576,7.206604957580566
1766401983918439400,11.052439453125,6.406700134277344,-1.732783317565918,7.219559669494629
1766401983928449000,11.062448974609374,6.337294101715088,-1.9019948244094849,7.2381978034973145
1766401983938459000,11.072458984375,6.295422554016113,-1.9876482486724854,7.251709461212158
1766401983948468700,11.08246875,6.256908416748047,-2.049701690673828,7.267751216888428
1766401983958478300,11.092478271484374,6.237558364868164,-2.0750925540924072,7.277172565460205
1766401983968488200,11.10248828125,6.197437763214111,-2.1171722412109375,7.299297332763672
1766401983978498000,11.112498046875,6.1688313484191895,-2.1409571170806885,7.3165717124938965
1766401984008557800,11.142557861328125,6.099402904510498,-2.180638074874878,7.362912654876709
1766401984018537000,11.152536865234374,6.079806804656982,-2.22145414352417,7.366917610168457
1766401984028546800,11.162546875,6.077814102172852,-2.1975793838500977,7.375718116760254
1766401984038556700,11.172556640625,6.092503547668457,-2.150578498840332,7.3774518966674805
1766401984048596700,11.1825966796875,6.110483646392822,-2.1067590713500977,7.375225067138672
1766401984058606600,11.192606689453125,6.117176532745361,-2.092078924179077,7.373856067657471
1766401984068616400,11.202616455078125,6.139974117279053,-2.0800118446350098,7.358304977416992
1766401984078626000,11.2126259765625,6.155587196350098,-2.0727128982543945,7.3473124504089355
1766401984118726100,11.25272607421875,6.353448867797852,-1.8102225065231323,7.24756383895874
1766401984128736000,11.262736083984375,6.394366264343262,-1.7435767650604248,7.227891445159912
1766401984138715100,11.272715087890624,6.416724681854248,-1.7124696969985962,7.215503215789795
1766401984148725000,11.28272509765625,6.451505184173584,-1.679959774017334,7.192094326019287
1766401984158734800,11.29273486328125,6.472898006439209,-1.6738752126693726,7.17426872253418
1766401984168744400,11.302744384765624,6.4788899421691895,-1.6853233575820923,7.166175365447998
1766401984178723800,11.312723876953125,6.477731227874756,-1.7049446105957031,7.162579536437988
1766401984188733700,11.322733642578125,6.475347518920898,-1.7161922454833984,7.162048816680908
1766401984238782500,11.372782470703125,6.523852825164795,-1.832953691482544,7.088723659515381
1766401984248822800,11.38282275390625,6.538851737976074,-1.8331843614578247,7.074831485748291
1766401984258802000,11.392802001953125,6.543274879455566,-1.8338950872421265,7.070557594299316
1766401984268811800,11.402811767578125,6.556645393371582,-1.8556073904037476,7.0524821281433105
1766401984278821400,11.4128212890625,6.55906343460083,-1.8706886768341064,7.046247959136963
1766401984288831200,11.422831298828125,6.57997465133667,-1.9126362800598145,7.015422344207764
1766401984318830000,11.452830078125,6.640704154968262,-1.9276976585388184,6.953805923461914
1766401984338849500,11.472849609375,6.668140411376953,-1.946324348449707,6.922290802001953
1766401984348889900,11.482889892578125,6.6696248054504395,-1.9720474481582642,6.913575172424316
1766401984358899700,11.492899658203125,6.682028770446777,-1.9919278621673584,6.895875930786133
1766401984368909300,11.502909423828125,6.703505992889404,-2.0003437995910645,6.872556209564209
1766401984378919200,11.512919189453125,6.726370334625244,-2.003903865814209,6.849137783050537
1766401984388959500,11.52295947265625,6.7414231300354,-1.998810887336731,6.835813999176025
1766401984398969000,11.532968994140624,6.7654948234558105,-1.9989557266235352,6.811948299407959
1766401984418958000,11.5529580078125,6.786178112030029,-2.052403211593628,6.7753825187683105
1766401984448987400,11.5829873046875,6.802656650543213,-2.0968732833862305,6.745173454284668
1766401984458997200,11.592997314453125,6.813286781311035,-2.088583469390869,6.7370123863220215
1766401984469007000,11.603007080078125,6.813508033752441,-2.0937259197235107,6.73519229888916
1766401984478986200,11.612986328125,6.8076171875,-2.100954294204712,6.73889684677124
1766401984488996000,11.62299609375,6.789634704589844,-2.1159579753875732,6.7523298263549805
1766401984499005700,11.633005615234374,6.774727821350098,-2.134995937347412,6.761305332183838
1766401984519025400,11.653025390625,6.7557902336120605,-2.1576757431030273,6.773044586181641
1766401984529065700,11.663065673828125,6.740897178649902,-2.169557571411133,6.784078598022461
1766401984539075300,11.673075439453125,6.726371765136719,-2.1744823455810547,6.7969069480896
1766401984549085200,11.683085205078125,6.710292816162109,-2.1737003326416016,6.813031196594238
1766401984559094800,11.6930947265625,6.69257116317749,-2.1696338653564453,6.831732273101807
1766401984569135000,11.703135009765624,6.676349639892578,-2.1645548343658447,6.849193572998047
1766401984579145000,11.71314501953125,6.653013229370117,-2.1641154289245605,6.872001647949219
1766401984589154800,11.72315478515625,6.643088340759277,-2.155597448348999,6.884269714355469
1766401984599164400,11.733164306640624,6.638760089874268,-2.142228364944458,6.892613410949707
1766401984629255000,11.7632548828125,6.619072437286377,-2.1028330326080322,6.923609256744385
1766401984649274400,11.7832744140625,6.623004913330078,-2.070568561553955,6.929570198059082
1766401984659284200,11.7932841796875,6.623380661010742,-2.06398344039917,6.931175231933594
1766401984669293800,11.8032939453125,6.620295524597168,-2.054541826248169,6.936925411224365
1766401984679303700,11.8133037109375,6.617447853088379,-2.0380966663360596,6.944489479064941
1766401984689313300,11.823313232421874,6.612628936767578,-2.0242977142333984,6.953110218048096
1766401984699292700,11.833292724609375,6.607045650482178,-2.01436185836792,6.961299419403076
1766401984729322000,11.863322021484375,6.58042573928833,-1.986464023590088,6.994451999664307
1766401984739331800,11.873331787109375,6.564867973327637,-1.9839423894882202,7.009770393371582
1766401984749372000,11.883371826171874,6.546041965484619,-1.9956095218658447,7.024048805236816
1766401984759381800,11.8933818359375,6.5233154296875,-2.0202388763427734,7.038138389587402
1766401984769391600,11.9033916015625,6.512439250946045,-2.0317294597625732,7.0448994636535645
1766401984779401200,11.913401123046874,6.503384113311768,-2.0226783752441406,7.055859565734863
1766401984799421000,11.9334208984375,6.510705471038818,-1.9731121063232422,7.06313943862915
1766401984809461000,11.9434609375,6.51267147064209,-1.9539564847946167,7.066651344299316
1766401984849469700,11.9834697265625,6.516033172607422,-1.9513509273529053,7.064270496368408
1766401984859448800,11.99344873046875,6.518172740936279,-1.969639778137207,7.057219505310059
1766401984869458700,12.003458740234375,6.5417890548706055,-1.9524457454681396,7.040122985839844
1766401984879468500,12.013468505859375,6.553409576416016,-1.9389210939407349,7.033050537109375
1766401984889478100,12.02347802734375,6.5630316734313965,-1.9339911937713623,7.025430679321289
1766401984899488000,12.033488037109375,6.5726470947265625,-1.9563924074172974,7.010223388671875
1766401984909497900,12.043497802734375,6.57951545715332,-1.9799609184265137,6.9971513748168945
1766401984939527000,12.07352685546875,6.618149280548096,-2.019834041595459,6.949155330657959
1766401984959546600,12.093546630859375,6.628546714782715,-2.1062135696411133,6.913509845733643
1766401984969556200,12.10355615234375,6.626183032989502,-2.153146266937256,6.901308059692383
1766401984979566000,12.113566162109375,6.627843379974365,-2.17698073387146,6.892230033874512
1766401984989576000,12.123575927734375,6.625274181365967,-2.2037785053253174,6.886181354522705
1766401984999585500,12.13358544921875,6.614978313446045,-2.226907968521118,6.888638496398926
1766401985009595400,12.143595458984375,6.601705074310303,-2.2542521953582764,6.892476558685303
1766401985019574500,12.153574462890624,6.593690872192383,-2.2668533325195312,6.896014213562012
1766401985039594200,12.17359423828125,6.570748805999756,-2.293222427368164,6.909182071685791
1766401985049603800,12.183603759765624,6.5498046875,-2.3111822605133057,6.923069000244141
1766401985059613700,12.19361376953125,6.532544136047363,-2.3276314735412598,6.933858394622803
1766401985069623600,12.20362353515625,6.507075309753418,-2.3534977436065674,6.9490580558776855
1766401985079633200,12.213633056640624,6.474356174468994,-2.3888721466064453,6.967524528503418
1766401985089643000,12.22364306640625,6.457302093505859,-2.399251699447632,6.97977352142334
1766401985099652900,12.23365283203125,6.450020790100098,-2.4043984413146973,6.9847331047058105
1766401985119672300,12.25367236328125,6.4021735191345215,-2.478487014770508,7.002832412719727
1766401985149701600,12.28370166015625,6.307876110076904,-2.632342576980591,7.032201766967773
1766401985159711200,12.293711181640624,6.302134990692139,-2.6409289836883545,7.034129619598389
1766401985169721000,12.30372119140625,6.297464847564697,-2.638054609298706,7.039388656616211
1766401985179731000,12.31373095703125,6.297154426574707,-2.635852336883545,7.040491580963135
1766401985189740500,12.323740478515624,6.29852294921875,-2.6384575366973877,7.038290500640869
1766401985199750400,12.33375048828125,6.305286407470703,-2.647797107696533,7.028722286224365
1766401985209760300,12.34376025390625,6.302350997924805,-2.675474166870117,7.020869255065918
1766401985219739400,12.353739501953125,6.308505058288574,-2.6794960498809814,7.0138044357299805
1766401985259778600,12.393778564453125,6.370899200439453,-2.6367735862731934,6.97348165512085
1766401985269819000,12.40381884765625,6.363009452819824,-2.6417105197906494,6.97881555557251
1766401985279828500,12.413828369140624,6.351113319396973,-2.6433908939361572,6.98900842666626
1766401985289868800,12.423868896484375,6.345361232757568,-2.641291856765747,6.995023727416992
1766401985299878700,12.433878662109375,6.3309173583984375,-2.6311042308807373,7.011930465698242
1766401985309888300,12.44388818359375,6.3226776123046875,-2.6279449462890625,7.020544528961182
1766401985319898000,12.453898193359375,6.318710803985596,-2.626915693283081,7.024499416351318
1766401985339917600,12.47391748046875,6.32167387008667,-2.6051504611968994,7.029937744140625
1766401985370008000,12.504008056640625,6.357039451599121,-2.571701765060425,7.01033353805542
1766401985380017700,12.514017578125,6.37584924697876,-2.5628490447998047,6.996480464935303
1766401985390058000,12.52405810546875,6.386323928833008,-2.557403802871704,6.988916873931885
1766401985400037400,12.534037353515625,6.416234970092773,-2.5514919757843018,6.963634967803955
1766401985410047000,12.544046875,6.434540748596191,-2.5541672706604004,6.94573974609375
1766401985420056800,12.554056884765625,6.451119422912598,-2.5665910243988037,6.925754070281982
1766401985430066700,12.564066650390625,6.467346668243408,-2.585379123687744,6.903595447540283
1766401985460096000,12.594095947265625,6.525572299957275,-2.628471851348877,6.832161903381348
1766401985490094600,12.624094482421874,6.589075565338135,-2.692091703414917,6.74589729309082
1766401985500104400,12.6341044921875,6.610396385192871,-2.7073967456817627,6.718857765197754
1766401985510114300,12.6441142578125,6.651697158813477,-2.7331864833831787,6.667459011077881
1766401985520124000,12.6541240234375,6.678050518035889,-2.7413947582244873,6.637679100036621
1766401985530133800,12.6641337890625,6.702991962432861,-2.747652769088745,6.609892845153809
1766401985540143400,12.674143310546874,6.715386390686035,-2.7504663467407227,6.596128940582275
1766401985580152000,12.714152099609375,6.81752347946167,-2.7805824279785156,6.477664470672607
1766401985590162000,12.724161865234375,6.834376335144043,-2.79761004447937,6.452524185180664
1766401985600141000,12.73414111328125,6.841365814208984,-2.802259922027588,6.443092346191406
1766401985610181400,12.744181396484375,6.853127479553223,-2.8291616439819336,6.418790340423584
1766401985620191000,12.75419091796875,6.863148212432861,-2.846728563308716,6.4002909660339355
1766401985630200800,12.764200927734375,6.873749732971191,-2.8609652519226074,6.382542133331299
1766401985670270500,12.8042705078125,6.89036226272583,-2.8926682472229004,6.35025691986084
1766401985680249600,12.81424951171875,6.886169910430908,-2.907050371170044,6.348236560821533
1766401985690290000,12.8242900390625,6.881791591644287,-2.922529458999634,6.345876693725586
1766401985700299800,12.8342998046875,6.879227638244629,-2.941293239593506,6.339985370635986
1766401985710309400,12.844309326171874,6.87856388092041,-2.95407772064209,6.3347601890563965
1766401985720288800,12.854288818359375,6.878200054168701,-2.961198568344116,6.331828594207764
1766401985730329000,12.8643291015625,6.8850555419921875,-2.9845046997070312,6.313409328460693
1766401985740338700,12.874338623046874,6.888369560241699,-2.990976333618164,6.306726932525635
1766401985750348500,12.8843486328125,6.902555465698242,-2.995307683944702,6.289137840270996
1766401985770398700,12.904398681640625,6.950211048126221,-2.9707679748535156,6.248159885406494
1766401985780408300,12.914408203125,6.978982448577881,-2.9523231983184814,6.224787712097168
1766401985790418200,12.924418212890625,7.018712520599365,-2.931511163711548,6.189854621887207
1766401985800428000,12.934427978515625,7.044894218444824,-2.914606809616089,6.168057441711426
1766401985810437600,12.944437744140625,7.0697340965271,-2.894925355911255,6.148874759674072
1766401985820447500,12.954447509765625,7.090632438659668,-2.8761165142059326,6.133618354797363
1766401985830457000,12.96445703125,7.10789155960083,-2.858869791030884,6.121694564819336
1766401985840497400,12.974497314453124,7.12451696395874,-2.839157819747925,6.111532211303711
1766401985850446300,12.9844462890625,7.140622615814209,-2.817396402359009,6.102801322937012
1766401985860425500,12.994425537109375,7.157475471496582,-2.7875328063964844,6.0967698097229
1766401985900495000,13.0344951171875,7.203817367553711,-2.6563377380371094,6.100759506225586
1766401985910535400,13.044535400390625,7.210081577301025,-2.624901294708252,6.106963634490967
1766401985920545000,13.054544921875,7.212052345275879,-2.6012325286865234,6.1147589683532715
1766401985930615800,13.06461572265625,7.2091498374938965,-2.5584511756896973,6.136192798614502
1766401985940625700,13.074625732421875,7.195858001708984,-2.5465404987335205,6.1567158699035645
1766401985960614700,13.09461474609375,7.167407512664795,-2.4926369190216064,6.211716651916504
1766401985990705000,13.124704833984374,7.155028343200684,-2.428363561630249,6.2513203620910645
1766401986000684300,13.134684326171875,7.148416996002197,-2.4096994400024414,6.266089916229248
1766401986010724600,13.144724609375,7.142967700958252,-2.3939647674560547,6.278322696685791
1766401986020734200,13.154734130859374,7.140594482421875,-2.3865864276885986,6.283829212188721
1766401986030744000,13.164744140625,7.145257472991943,-2.364624500274658,6.286830425262451
1766401986040754000,13.17475390625,7.150570869445801,-2.3475139141082764,6.287201881408691
1766401986050794200,13.184794189453125,7.156236171722412,-2.332106113433838,6.286489963531494
1766401986060773400,13.1947734375,7.156940937042236,-2.32318115234375,6.288991451263428
1766401986110822100,13.244822265625,7.184172630310059,-2.315734624862671,6.260624885559082
1766401986120770800,13.254770751953124,7.192861557006836,-2.312365770339966,6.251887321472168
1766401986130811100,13.26481103515625,7.2008256912231445,-2.3114240169525146,6.243061065673828
1766401986140821000,13.274821044921875,7.209482669830322,-2.3104381561279297,6.233428001403809
1766401986150830800,13.284830810546875,7.218845367431641,-2.3082942962646484,6.223377704620361
1766401986160779500,13.294779541015625,7.222315788269043,-2.308100700378418,6.219422340393066
1766401986190839300,13.32483935546875,7.254507541656494,-2.3219847679138184,6.176641941070557
1766401986200849200,13.33484912109375,7.25547981262207,-2.328754425048828,6.17294979095459
1766401986210889200,13.34488916015625,7.266341209411621,-2.34306263923645,6.154732704162598
1766401986220868600,13.35486865234375,7.267195701599121,-2.350338935852051,6.1509480476379395
1766401986230939400,13.364939453125,7.277209758758545,-2.3609120845794678,6.135039329528809
1766401986240918500,13.37491845703125,7.278626918792725,-2.3662517070770264,6.131300449371338
1766401986250958800,13.384958740234374,7.281399250030518,-2.377959966659546,6.123473644256592
1766401986260968700,13.39496875,7.2785115242004395,-2.4067142009735107,6.11566686630249
1766401986271009000,13.405009033203125,7.270933151245117,-2.43576717376709,6.1131792068481445
1766401986291028500,13.425028564453125,7.250010967254639,-2.512178659439087,6.107100963592529
1766401986311048000,13.4450478515625,7.235963821411133,-2.5763115882873535,6.097035884857178
1766401986321057800,13.455057861328125,7.229974746704102,-2.6316380500793457,6.080489158630371
1766401986331037000,13.465036865234374,7.227663993835449,-2.6738014221191406,6.064820289611816
1766401986341046800,13.475046875,7.227816581726074,-2.720036029815674,6.04404354095459
1766401986351056600,13.485056640625,7.230630397796631,-2.7659385204315186,6.019796371459961
1766401986361066200,13.495066162109374,7.233231544494629,-2.7941367626190186,6.003627777099609
1766401986371076000,13.505076171875,7.240763187408447,-2.841449499130249,5.972261905670166
1766401986381086000,13.5150859375,7.243719577789307,-2.904892921447754,5.938056945800781
1766401986421124900,13.555124755859374,7.223270416259766,-3.205763578414917,5.806705474853516
1766401986431134700,13.565134765625,7.212987422943115,-3.260702133178711,5.7888712882995605
1766401986441113900,13.57511376953125,7.202885627746582,-3.3125932216644287,5.771963119506836
1766401986451154200,13.585154296875,7.193526744842529,-3.3602375984191895,5.7560715675354
1766401986461164000,13.5951640625,7.186307430267334,-3.4040229320526123,5.7393388748168945
1766401986471173600,13.605173583984374,7.181341171264648,-3.446829080581665,5.719973564147949
1766401986481183500,13.61518359375,7.17804479598999,-3.489527940750122,5.698180198669434
1766401986491193300,13.625193359375,7.175992965698242,-3.5474300384521484,5.664913654327393
1766401986511182300,13.645182373046875,7.172715187072754,-3.624305248260498,5.620227336883545
1766401986521161500,13.655161376953124,7.1720194816589355,-3.645098924636841,5.607654094696045
1766401986531201800,13.665201904296875,7.170510292053223,-3.68053936958313,5.586395263671875
1766401986541211600,13.675211669921875,7.1705217361450195,-3.7114198207855225,5.565911769866943
1766401986551221200,13.68522119140625,7.171442031860352,-3.7383110523223877,5.546696662902832
1766401986561200600,13.69520068359375,7.171384811401367,-3.763188123703003,5.5299224853515625
1766401986571271400,13.705271484375,7.169061660766602,-3.788602590560913,5.515562534332275
1766401986581281300,13.71528125,7.1640625,-3.8146798610687256,5.5040740966796875
1766401986591321300,13.7253212890625,7.1568403244018555,-3.8414995670318604,5.494805812835693
1766401986601331200,13.735331298828125,7.146796703338623,-3.868053913116455,5.489248752593994
1766401986621381400,13.75538134765625,7.120180606842041,-3.9197845458984375,5.487140655517578
1766401986631391000,13.765390869140624,7.104104042053223,-3.9435853958129883,5.490922927856445
1766401986641400800,13.77540087890625,7.097352027893066,-3.9559543132781982,5.490756511688232
1766401986651441200,13.785441162109375,7.0884785652160645,-3.9690091609954834,5.492799282073975
1766401986661450800,13.79545068359375,7.082643032073975,-3.9790878295898438,5.493033409118652
1766401986671460600,13.805460693359375,7.079135417938232,-3.9853196144104004,5.493038177490234
1766401986681409300,13.8154091796875,7.084925651550293,-3.982832908630371,5.487373352050781
1766401986691449600,13.82544970703125,7.087133884429932,-3.9840526580810547,5.483633518218994
1766401986701459500,13.83545947265625,7.104581832885742,-3.9717800617218018,5.469942092895508
1766401986721448400,13.855448486328125,7.134080410003662,-3.9531478881835938,5.4449896812438965
1766401986731519200,13.865519287109375,7.1504902839660645,-3.941990852355957,5.431535243988037
1766401986741529000,13.875529052734375,7.16505241394043,-3.933933973312378,5.418170928955078
1766401986751538700,13.88553857421875,7.172076225280762,-3.930704116821289,5.41121768951416
1766401986761548500,13.895548583984375,7.187264919281006,-3.923002004623413,5.396635055541992
1766401986771558400,13.905558349609375,7.201394081115723,-3.9160172939300537,5.382853984832764
1766401986781568000,13.915568115234375,7.216418743133545,-3.9076709747314453,5.368779182434082
1766401986791577900,13.925577880859375,7.232795238494873,-3.895967960357666,5.355231761932373
1766401986801587500,13.93558740234375,7.251081466674805,-3.8832218647003174,5.339737892150879
1766401986811627800,13.945627685546874,7.2849860191345215,-3.854560375213623,5.314295291900635
1766401986831616800,13.96561669921875,7.333128452301025,-3.7910563945770264,5.293723106384277
1766401986841626600,13.975626708984375,7.359269142150879,-3.7526063919067383,5.284836292266846
1766401986851667000,13.9856669921875,7.386666297912598,-3.7091941833496094,5.277255535125732
1766401986861676800,13.9956767578125,7.41513204574585,-3.6691012382507324,5.265350341796875
1766401986871686400,14.005686279296874,7.426755905151367,-3.656127691268921,5.257986068725586
1766401986881665800,14.015665771484375,7.450347900390625,-3.627080202102661,5.244710922241211
1766401986891736600,14.025736572265625,7.463210582733154,-3.611693859100342,5.237036228179932
1766401986901746200,14.03574609375,7.489317893981934,-3.575606346130371,5.224514007568359
1766401986911756000,14.045756103515625,7.528432846069336,-3.5047810077667236,5.216282844543457
1766401986931775500,14.065775390625,7.5744194984436035,-3.3986563682556152,5.219932556152344
1766401986941785300,14.075785400390625,7.592379570007324,-3.3533740043640137,5.2231268882751465
1766401986981824500,14.115824462890625,7.609762191772461,-3.1483840942382812,5.324432849884033
1766401987001844000,14.135843994140625,7.569545745849609,-3.1324028968811035,5.390771865844727
1766401987011884300,14.14588427734375,7.55820369720459,-3.1315059661865234,5.4071831703186035
1766401987021894000,14.155893798828124,7.545510768890381,-3.1296143531799316,5.425971984863281
1766401987031934200,14.165934326171875,7.541776180267334,-3.115574836730957,5.439227104187012
1766401987041913600,14.17591357421875,7.54435396194458,-3.1007046699523926,5.444147109985352
1766401987061933000,14.19593310546875,7.561257362365723,-3.051950693130493,5.448245525360107
1766401987071943000,14.20594287109375,7.563817501068115,-3.030813217163086,5.456485271453857
1766401987081952500,14.215952392578124,7.585147380828857,-2.9881784915924072,5.4503865242004395
1766401987091992800,14.225992919921875,7.587329387664795,-2.9706337451934814,5.456936359405518
1766401987101972000,14.235971923828124,7.5991950035095215,-2.9466309547424316,5.4534382820129395
1766401987111981800,14.24598193359375,7.618269920349121,-2.915895700454712,5.443335056304932
1766401987121991700,14.25599169921875,7.6178460121154785,-2.897578001022339,5.453700542449951
1766401987132032000,14.266031982421875,7.620059490203857,-2.864250421524048,5.468194007873535
1766401987142041600,14.27604150390625,7.629281520843506,-2.8230092525482178,5.476776123046875
1766401987152051500,14.286051513671875,7.633437633514404,-2.7941596508026123,5.485772609710693
1766401987162030600,14.296030517578124,7.639316082000732,-2.760730504989624,5.494508266448975
1766401987172101400,14.306101318359374,7.6413798332214355,-2.7369892597198486,5.503507614135742
1766401987182111200,14.316111328125,7.653027057647705,-2.7006325721740723,5.505283832550049
1766401987192151600,14.326151611328125,7.665799617767334,-2.6626205444335938,5.506028175354004
1766401987202161400,14.336161376953125,7.683705806732178,-2.6066017150878906,5.507874011993408
1766401987212171000,14.3461708984375,7.6884613037109375,-2.5859851837158203,5.510956287384033
1766401987222180900,14.356180908203125,7.69671630859375,-2.5509026050567627,5.515781402587891
1766401987232221200,14.36622119140625,7.704070568084717,-2.5048511028289795,5.526608943939209
1766401987272260000,14.406260009765624,7.665652275085449,-2.4185867309570312,5.617704391479492
1766401987282270000,14.41627001953125,7.645935535430908,-2.4098317623138428,5.64825439453125
1766401987292340700,14.4263408203125,7.629427433013916,-2.4267070293426514,5.663331031799316
1766401987302350600,14.4363505859375,7.6089301109313965,-2.492952585220337,5.662134647369385
1766401987312391000,14.446390869140625,7.600111961364746,-2.517589569091797,5.663075923919678
1766401987322431000,14.456430908203124,7.587612628936768,-2.580334424972534,5.651583671569824
1766401987332440800,14.46644091796875,7.577812194824219,-2.647162437438965,5.633798599243164
1766401987352460300,14.486460205078124,7.571397304534912,-2.7845585346221924,5.575891017913818
1766401987372510500,14.506510498046875,7.589131832122803,-2.9114508628845215,5.48624849319458
1766401987382520000,14.51652001953125,7.60460901260376,-2.9723458290100098,5.431893825531006
1766401987392560400,14.526560302734374,7.625702857971191,-3.0287742614746094,5.370807647705078
1766401987402570200,14.5365703125,7.65349006652832,-3.0741398334503174,5.305105686187744
1766401987412580000,14.546580078125,7.688317775726318,-3.107764959335327,5.2346882820129395
1766401987422559200,14.556559326171875,7.726056098937988,-3.1326475143432617,5.16381311416626
1766401987432569000,14.566569091796875,7.76585578918457,-3.1489384174346924,5.093728542327881
1766401987442578700,14.57657861328125,7.80821418762207,-3.15322208404541,5.025869369506836
1766401987462628900,14.59662890625,7.893843173980713,-3.1462810039520264,4.894747257232666
1766401987472638700,14.606638671875,7.90645694732666,-3.148465871810913,4.872934818267822
1766401987482648300,14.6166484375,7.91398286819458,-3.175629138946533,4.84299898147583
1766401987492658200,14.626658203125,7.912010669708252,-3.1914491653442383,4.835817337036133
1766401987502667800,14.636667724609374,7.900140762329102,-3.2228376865386963,4.83440637588501
1766401987512708000,14.6467080078125,7.884395599365234,-3.251244068145752,4.841085910797119
1766401987522718000,14.656718017578125,7.864960193634033,-3.276136636734009,4.855894565582275
1766401987532727800,14.666727783203125,7.840324401855469,-3.304609537124634,4.87639856338501
1766401987542737400,14.6767373046875,7.799276351928711,-3.349025011062622,4.9117937088012695
1766401987562726400,14.696726318359374,7.752689361572266,-3.393981695175171,4.954501152038574
1766401987572766700,14.7067666015625,7.742734909057617,-3.406371593475342,4.961560249328613
1766401987582776600,14.716776611328125,7.726112365722656,-3.4002206325531006,4.991600036621094
1766401987592786400,14.726786376953125,7.720312595367432,-3.405691146850586,4.996842384338379
1766401987602796000,14.736796142578125,7.707779407501221,-3.4032700061798096,5.017797470092773
1766401987612806000,14.746805908203125,7.701817035675049,-3.4129607677459717,5.020368576049805
1766401987622815500,14.7568154296875,7.693700313568115,-3.4051144123077393,5.03810977935791
1766401987632825300,14.766825439453125,7.6857757568359375,-3.3922879695892334,5.058815956115723
1766401987642804700,14.7768046875,7.67805290222168,-3.376211643218994,5.081249237060547
1766401987652844800,14.7868447265625,7.670283317565918,-3.359872817993164,5.103763580322266
1766401987682874000,14.8168740234375,7.639185905456543,-3.31120228767395,5.181618690490723
1766401987692884000,14.826884033203125,7.635108470916748,-3.3032093048095703,5.1927170753479
1766401987702863000,14.836863037109374,7.630472660064697,-3.2844064235687256,5.211424827575684
1766401987712873000,14.846873046875,7.626960277557373,-3.2665305137634277,5.227776050567627
1766401987722882800,14.8568828125,7.623237133026123,-3.2530250549316406,5.241610050201416
1766401987732892400,14.866892333984374,7.618654727935791,-3.244229316711426,5.2537102699279785
1766401987742871800,14.876871826171875,7.614750862121582,-3.2366416454315186,5.264039039611816
1766401987752881400,14.88688134765625,7.612679481506348,-3.2279036045074463,5.272393226623535
1766401987782910700,14.91691064453125,7.614536285400391,-3.1921775341033936,5.29142951965332
1766401987792920600,14.926920654296875,7.614879608154297,-3.180917978286743,5.297712326049805
1766401987802930400,14.936930419921875,7.612915515899658,-3.1729445457458496,5.3053107261657715
1766401987813001200,14.947001220703125,7.605599403381348,-3.1694648265838623,5.317868232727051
1766401987823010800,14.9570107421875,7.6015400886535645,-3.170142889022827,5.323266506195068
1766401987833020700,14.967020751953125,7.591546535491943,-3.1741371154785156,5.335134983062744
1766401987843030500,14.977030517578125,7.58604097366333,-3.177295684814453,5.34108304977417
1766401987853040000,14.9870400390625,7.58321475982666,-3.179521083831787,5.3437700271606445
1766401987863050000,14.997050048828125,7.584089756011963,-3.176478385925293,5.344338893890381
1766401987883069400,15.0170693359375,7.5854644775390625,-3.1783108711242676,5.3412981033325195
1766401987893079300,15.027079345703125,7.58848762512207,-3.186826229095459,5.331921100616455
1766401987913068300,15.047068359375,7.593858242034912,-3.2086830139160156,5.311125755310059
1766401987923078100,15.057078125,7.5948100090026855,-3.2171740531921387,5.304624080657959
1766401987933087700,15.067087646484374,7.605207920074463,-3.2176194190979004,5.289434432983398
1766401987943097600,15.07709765625,7.607813358306885,-3.218323230743408,5.28525972366333
1766401987953107500,15.087107421875,7.615836143493652,-3.2167532444000244,5.274648666381836
1766401987963117000,15.097116943359374,7.617881774902344,-3.2197585105895996,5.26986026763916
1766401987993146400,15.127146484375,7.603079319000244,-3.241746187210083,5.2777509689331055
1766401988003156200,15.13715625,7.587793827056885,-3.2665750980377197,5.284435749053955
1766401988013196500,15.147196533203125,7.566806793212891,-3.294726848602295,5.297036170959473
1766401988023206100,15.1572060546875,7.543985843658447,-3.331562042236328,5.306539535522461
1766401988033216000,15.167216064453125,7.521790504455566,-3.376767873764038,5.309473037719727
1766401988043225900,15.177225830078125,7.509110450744629,-3.4094619750976562,5.3065266609191895
1766401988053235500,15.1872353515625,7.485469818115234,-3.451801061630249,5.312551021575928
1766401988063214800,15.19721484375,7.475427150726318,-3.468489170074463,5.315822124481201
1766401988113263600,15.247263671875,7.470067501068115,-3.4830753803253174,5.313818454742432
1766401988123242800,15.25724267578125,7.464881896972656,-3.4768519401550293,5.325169086456299
1766401988133252600,15.267252685546875,7.453388214111328,-3.476256847381592,5.341631889343262
1766401988143262500,15.277262451171875,7.434350490570068,-3.485706329345703,5.361966609954834
1766401988153272000,15.28727197265625,7.408379077911377,-3.5082056522369385,5.3831963539123535
1766401988163282000,15.297281982421875,7.391978740692139,-3.524824857711792,5.394871711730957
1766401988173291800,15.307291748046875,7.362945079803467,-3.5532636642456055,5.4158782958984375
1766401988193280800,15.32728076171875,7.331847667694092,-3.575481653213501,5.4433746337890625
1766401988203290400,15.337290283203124,7.339564323425293,-3.5581042766571045,5.444362163543701
1766401988213300200,15.34730029296875,7.351680278778076,-3.5405988693237305,5.439424991607666
1766401988223279400,15.357279296875,7.367650508880615,-3.5201926231384277,5.431055068969727
1766401988233289200,15.367289306640625,7.377326488494873,-3.5115177631378174,5.4235310554504395
1766401988243329500,15.37732958984375,7.395573139190674,-3.495213031768799,5.4091925621032715
1766401988253369900,15.387369873046875,7.412765979766846,-3.481494903564453,5.3944854736328125
1766401988263379500,15.39737939453125,7.434321403503418,-3.464428186416626,5.375777721405029
1766401988273419800,15.407419677734374,7.447392463684082,-3.452564239501953,5.36530876159668
1766401988323468800,15.45746875,7.494446277618408,-3.379540205001831,5.346247673034668
1766401988333508900,15.4675087890625,7.501636981964111,-3.360689401626587,5.348045825958252
1766401988343518700,15.477518798828125,7.509369373321533,-3.342594861984253,5.34853458404541
1766401988353528600,15.487528564453125,7.521587371826172,-3.3057103157043457,5.354287147521973
1766401988363507700,15.4975078125,7.530488967895508,-3.276745319366455,5.359576225280762
1766401988373517600,15.507517578125,7.53880500793457,-3.2477331161499023,5.365542411804199
1766401988413617700,15.54761767578125,7.586442947387695,-3.053699016571045,5.41213321685791
1766401988423596800,15.5575966796875,7.601258754730225,-2.983191728591919,5.430637836456299
1766401988433637000,15.56763720703125,7.607537746429443,-2.9372622966766357,5.44685697555542
1766401988443647000,15.57764697265625,7.6096954345703125,-2.9022881984710693,5.4625678062438965
1766401988453656600,15.587656494140624,7.612174987792969,-2.8652007579803467,5.478668212890625
1766401988463636000,15.597635986328125,7.614305019378662,-2.8291804790496826,5.494405269622803
1766401988473676300,15.60767626953125,7.615199089050293,-2.7998459339141846,5.508174896240234
1766401988483686000,15.617685791015624,7.615804672241211,-2.7837913036346436,5.515469551086426
1766401988503705600,15.63770556640625,7.615128993988037,-2.720186710357666,5.5480427742004395
1766401988543805700,15.6778056640625,7.6150078773498535,-2.597188949584961,5.606839179992676
1766401988553876500,15.68787646484375,7.626923561096191,-2.5499954223632812,5.612303256988525
1766401988563886000,15.697885986328124,7.6365966796875,-2.5117080211639404,5.616413593292236
1766401988573896000,15.70789599609375,7.647911071777344,-2.469130039215088,5.619897365570068
1766401988583905800,15.71790576171875,7.659632205963135,-2.429630994796753,5.621149063110352
1766401988613935000,15.74793505859375,7.675029277801514,-2.3480947017669678,5.634782314300537
1766401988623944700,15.75794482421875,7.673070430755615,-2.3308706283569336,5.64459228515625
1766401988633954600,15.76795458984375,7.670899391174316,-2.3168649673461914,5.653303146362305
1766401988643964200,15.777964111328124,7.665655612945557,-2.3046388626098633,5.665398597717285
1766401988653974000,15.78797412109375,7.663459300994873,-2.306192636489868,5.667739391326904
1766401988663983900,15.79798388671875,7.670427322387695,-2.3108022212982178,5.656423091888428
1766401988673993500,15.807993408203124,7.68308162689209,-2.308509588241577,5.640161514282227
1766401988684003300,15.81800341796875,7.6935625076293945,-2.30012845993042,5.629288196563721
1766401988724011800,15.85801171875,7.768620014190674,-2.296623468399048,5.52670431137085
1766401988734021600,15.868021728515625,7.776584148406982,-2.3014612197875977,5.5134758949279785
1766401988743970300,15.87797021484375,7.78343391418457,-2.3034510612487793,5.502968788146973
1766401988753980200,15.887980224609375,7.791093349456787,-2.3032937049865723,5.492184638977051
1766401988763990000,15.897989990234375,7.812349319458008,-2.2867958545684814,5.46883487701416
1766401988773999600,15.90799951171875,7.834663391113281,-2.257437229156494,5.449075222015381
1766401988783979000,15.91797900390625,7.862211227416992,-2.2184112071990967,5.42537260055542
1766401988814008300,15.94800830078125,7.926175594329834,-2.168090581893921,5.3521504402160645
1766401988844037600,15.97803759765625,8.005918502807617,-2.0656731128692627,5.273391246795654
1766401988854077700,15.98807763671875,8.02552318572998,-2.0289106369018555,5.257840156555176
1766401988864087600,15.998087646484375,8.067499160766602,-1.9404642581939697,5.2268967628479
1766401988874097400,16.008097412109375,8.110621452331543,-1.8508390188217163,5.1925530433654785
1766401988884107000,16.01810693359375,8.178719520568848,-1.7251694202423096,5.1286187171936035
1766401988894116900,16.028116943359375,8.202961921691895,-1.6800272464752197,5.104832172393799
1766401988904126700,16.038126708984375,8.279860496520996,-1.5499327182769775,5.021155834197998
1766401988934156000,16.068156005859375,8.461880683898926,-1.2570308446884155,4.794460296630859
1766401988944165600,16.07816552734375,8.492898941040039,-1.216086983680725,4.749967098236084
1766401988954236400,16.088236328125,8.582551002502441,-1.1141726970672607,4.611814022064209
