time,seconds_elapsed,z,y,x
1766148802914391300,-0.694608642578125,9.84256362915039,-1.0989385843276978,-2.0183119773864746
1766148802934411000,-0.674589111328125,9.835380554199219,-0.608127236366272,-1.742978811264038
1766148802944420600,-0.664579345703125,9.732429504394531,-1.0031704902648926,-1.968033790588379
1766148802954430500,-0.654569580078125,9.775525093078613,-1.0654197931289673,-2.164358377456665
1766148802964440300,-0.6445595703125,9.856928825378418,-0.7661445140838623,-1.8818424940109253
1766148802974450000,-0.634550048828125,9.892841339111328,-0.7972691655158997,-1.9153614044189453
1766148803014458600,-0.594541259765625,9.646238327026367,-0.8140285611152649,-2.0470423698425293
1766148803044426800,-0.5645732421875,9.677363395690918,-0.8810662031173706,-1.9273324012756348
1766148803114434000,-0.49456591796875,9.75637149810791,-0.9457096457481384,-1.9800047874450684
1766148803124413400,-0.484586669921875,9.691728591918945,-1.048660397529602,-1.9488801956176758
1766148803144433000,-0.464567138671875,9.75637149810791,-0.8212111592292786,-1.965639591217041
1766148803174431700,-0.434568359375,9.749189376831055,-0.9768342971801758,-1.9752163887023926
1766148803184441300,-0.42455859375,9.773131370544434,-0.9983820915222168,-1.9105730056762695
1766148803194420700,-0.414579345703125,9.746794700622559,-0.993593692779541,-1.98958158493042
1766148803204430600,-0.4045693359375,9.758766174316406,-1.0055646896362305,-2.032677173614502
1766148803214409700,-0.39459033203125,9.823410034179688,-0.9720458984375,-1.9823989868164062
1766148803224450000,-0.384550048828125,9.921571731567383,-0.7589619159698486,-1.9704279899597168
1766148803234459600,-0.374540283203125,9.880870819091797,-0.8834604024887085,-1.9177556037902832
1766148803254479400,-0.354520751953125,9.80904483795166,-0.9145850539207458,-1.8818424940109253
1766148803264489000,-0.344510986328125,9.770736694335938,-0.9074024558067322,-1.9632453918457031
1766148803274498800,-0.334501220703125,9.710882186889648,-0.9481038451194763,-1.9488801956176758
1766148803284478000,-0.32452197265625,9.746794700622559,-0.8978256583213806,-1.9345149993896484
1766148803294487800,-0.31451220703125,9.732429504394531,-0.8810662031173706,-1.9823989868164062
1766148803304497700,-0.30450244140625,9.825803756713867,-0.9576807022094727,-1.946485996246338
1766148803324486700,-0.284513427734375,9.847352027893066,-1.0462661981582642,-1.9943699836730957
1766148803334465800,-0.2745341796875,9.835380554199219,-1.0749965906143188,-1.9512743949890137
1766148803404503800,-0.20449609375,9.730035781860352,-0.7924807667732239,-1.8986018896102905
1766148803424523300,-0.184476806640625,9.667786598205566,-0.8355764150619507,-1.920149803161621
1766148803434502400,-0.17449755859375,9.684545516967773,-0.871489405632019,-1.8986018896102905
1766148803444512300,-0.16448779296875,9.617507934570312,-1.0342950820922852,-2.032677173614502
1766148803464531700,-0.14446826171875,9.713275909423828,-0.9361328482627869,-2.027888774871826
1766148803494500000,-0.1145,9.672574996948242,-0.8786720037460327,-1.8531121015548706
1766148803514489000,-0.094510986328125,9.72285270690918,-0.9097966551780701,-1.9153614044189453
1766148803524499000,-0.0845009765625,9.720458984375,-1.01753568649292,-2.011129379272461
1766148803534508500,-0.074491455078125,9.75397777557373,-1.0462661981582642,-1.9177556037902832
1766148803544518400,-0.064481689453125,9.758766174316406,-0.9409212470054626,-1.9033904075622559
1766148803564568300,-0.044431640625,9.725247383117676,-1.0007762908935547,-1.9488801956176758
1766148803594567200,-0.014432861328125,9.787496566772461,-0.9840168952941895,-1.8626888990402222
1766148803659600100,0.05060009765625,9.718064308166504,-0.9864110946655273,-1.9536685943603516
1766148803709679600,0.1006796875,9.75637149810791,-0.9313444495201111,-2.008735179901123
1766148803719628300,0.110628173828125,9.720458984375,-0.828393816947937,-1.965639591217041
1766148803729668600,0.120668701171875,9.744400978088379,-0.8978256583213806,-1.9823989868164062
1766148803739617300,0.1306171875,9.713275909423828,-0.9074024558067322,-1.9752163887023926
1766148803749627000,0.140626953125,9.763554573059082,-1.0199298858642578,-2.0231003761291504
1766148803759636700,0.15063671875,9.732429504394531,-0.9481038451194763,-2.0015525817871094
1766148803769646600,0.160646484375,9.667786598205566,-1.0223240852355957,-2.0159177780151367
1766148803779656200,0.17065625,9.660603523254395,-0.9145850539207458,-1.9776105880737305
1766148803789666000,0.180666015625,9.674968719482422,-0.912190854549408,-1.9393033981323242
1766148803809685500,0.200685546875,9.727641105651855,-0.8834604024887085,-1.8363527059555054
1766148803829705200,0.220705322265625,9.770736694335938,-0.9648633003234863,-1.9536685943603516
1766148803839684400,0.230684326171875,9.708487510681152,-0.9768342971801758,-1.9393033981323242
1766148803849724700,0.240724609375,9.77791976928711,-1.0271124839782715,-1.9512743949890137
1766148803859734500,0.250734619140625,9.765948295593262,-0.933738648891449,-1.9560627937316895
1766148803869774600,0.260774658203125,9.780313491821289,-0.9792284965515137,-1.8531121015548706
1766148803879784400,0.270784423828125,9.780313491821289,-0.9313444495201111,-1.9632453918457031
1766148803889794300,0.280794189453125,9.801861763000488,-0.8906430602073669,-1.9488801956176758
1766148803909783300,0.300783203125,9.78989028930664,-0.8858546018600464,-1.9632453918457031
1766148803919762400,0.310762451171875,9.775525093078613,-0.9672574996948242,-1.9536685943603516
1766148803929802800,0.320802734375,9.725247383117676,-0.9385270476341248,-1.944091796875
1766148803939812600,0.3308125,9.739612579345703,-0.9097966551780701,-2.0422539710998535
1766148803949822200,0.340822265625,9.725247383117676,-0.9169792532920837,-1.9369091987609863
1766148803959832000,0.35083203125,9.6989107131958,-0.8092401623725891,-1.968033790588379
1766148803969842000,0.360842041015625,9.706093788146973,-0.8020575642585754,-1.9369091987609863
1766148803979821000,0.370821044921875,9.59596061706543,-0.8906430602073669,-1.9488801956176758
1766148803989831000,0.380830810546875,9.514557838439941,-0.8690952062606812,-1.9728221893310547
1766148803999810000,0.39081005859375,9.564835548400879,-0.7948749661445618,-1.9512743949890137
1766148804009820000,0.40081982421875,9.454702377319336,-0.828393816947937,-1.98958158493042
1766148804029839400,0.42083935546875,9.346963882446289,-0.8834604024887085,-2.1523873805999756
1766148804039818800,0.43081884765625,9.263166427612305,-0.6967126727104187,-2.3295583724975586
1766148804049828400,0.440828369140625,9.409213066101074,-0.1604115068912506,-2.695871114730835
1766148804059807700,0.450807861328125,8.944737434387207,-0.2322375625371933,-2.676717519760132
1766148804069787000,0.460786865234375,8.765172004699707,-0.0071826050989329815,-3.6774938106536865
1766148804079766300,0.470766357421875,8.49941635131836,0.6105214357376099,-4.714183330535889
1766148804089745400,0.480745361328125,8.286332130432129,0.7661445140838623,-4.613626480102539
1766148804099724500,0.490724609375,7.718906402587891,0.44771572947502136,-3.7924153804779053
1766148804119744300,0.510744140625,7.390900611877441,1.1755530834197998,-3.9695863723754883
1766148804129723400,0.520723388671875,7.479485988616943,0.3232172429561615,-4.28322696685791
1766148804139702800,0.530702880859375,7.29034423828125,-0.07900865375995636,-4.086902141571045
1766148804149712400,0.54071240234375,7.501033782958984,0.047884032130241394,-4.469974517822266
1766148804159691800,0.55069189453125,7.706935405731201,0.3902548849582672,-4.441244125366211
1766148804169671000,0.5606708984375,7.812280178070068,0.45250412821769714,-4.41969633102417
1766148804179680800,0.5706806640625,7.936778545379639,0.5099649429321289,-4.786009311676025
1766148804189690400,0.5806904296875,8.106766700744629,0.7876923680305481,-4.879383087158203
1766148804199669800,0.590669677734375,8.305485725402832,1.0342950820922852,-4.934449672698975
1766148804209679600,0.6006796875,8.221688270568848,1.1037269830703735,-5.0014872550964355
1766148804219658800,0.61065869140625,7.8745293617248535,0.48602294921875,-5.037400245666504
1766148804229699000,0.620698974609375,7.378929615020752,-0.5123591423034668,-5.104437828063965
1766148804239678200,0.63067822265625,6.782773494720459,-1.920149803161621,-5.315127849578857
1766148804249718500,0.640718505859375,6.258443355560303,-3.3494882583618164,-5.125985622406006
1766148804259698000,0.650697998046875,6.035782337188721,-4.565742492675781,-5.109226226806641
1766148804269707500,0.66070751953125,6.145915985107422,-5.559336185455322,-5.049371242523193
1766148804279717400,0.67071728515625,5.853823184967041,-6.399701118469238,-4.721365928649902
1766148804289727000,0.68072705078125,5.027823448181152,-7.297526836395264,-4.331110954284668
1766148804299706400,0.690706298828125,4.0294413566589355,-8.271966934204102,-3.708618402481079
1766148804309716200,0.70071630859375,3.1890766620635986,-9.533711433410645,-2.896984100341797
1766148804319725800,0.710725830078125,2.5330653190612793,-10.462661743164062,-2.0614075660705566
1766148804329735700,0.720735595703125,1.7884687185287476,-11.420342445373535,-1.4772224426269531
1766148804349694200,0.740694091796875,0.3519476354122162,-12.107478141784668,-0.7398083209991455
1766148804359673300,0.75067333984375,-0.40222588181495667,-11.896788597106934,-0.5434837937355042
1766148804369683200,0.76068310546875,-0.9768342971801758,-12.105083465576172,-0.05267243832349777
1766148804379662300,0.770662353515625,-1.766920804977417,-12.00452709197998,0.5578489899635315
1766148804389672200,0.780672119140625,-2.38462495803833,-12.069170951843262,1.314416766166687
1766148804399651300,0.7906513671875,-2.786850690841675,-12.24394702911377,1.659181833267212
1766148804409661200,0.8006611328125,-2.9735984802246094,-12.389993667602539,1.5849615335464478
1766148804419640300,0.810640380859375,-3.383007049560547,-12.6150484085083,1.403002142906189
1766148804429680600,0.8206806640625,-3.751713991165161,-13.043610572814941,1.1420341730117798
1766148804449700400,0.840700439453125,-4.424484729766846,-14.013262748718262,1.2234370708465576
1766148804459710000,0.8507099609375,-3.974374771118164,-13.886369705200195,1.173158884048462
1766148804469719800,0.8607197265625,-3.466804027557373,-13.232752799987793,0.9624691009521484
1766148804479699000,0.870698974609375,-2.978386878967285,-12.33253288269043,0.6799532771110535
1766148804489708800,0.880708740234375,-2.964021682739258,-11.824962615966797,0.47884035110473633
1766148804499718700,0.89071875,-3.1675288677215576,-11.379640579223633,0.4189853072166443
1766148804509728300,0.900728271484375,-3.603273630142212,-11.125855445861816,0.5817909836769104
1766148804519738000,0.910738037109375,-3.5865142345428467,-11.520898818969727,0.9097966551780701
1766148804529717200,0.92071728515625,-3.6343982219696045,-10.90798282623291,0.8020575642585754
1766148804539727000,0.93072705078125,-3.514688014984131,-10.536881446838379,0.5793967843055725
1766148804579735600,0.970735595703125,-3.627215623855591,-11.049241065979004,0.3998316824436188
1766148804589745400,0.980745361328125,-3.8714241981506348,-10.723628997802734,0.3974374830722809
1766148804599755300,0.99075537109375,-3.818751811981201,-10.326191902160645,0.4572925269603729
1766148804609764900,1.000764892578125,-3.732560396194458,-9.804255485534668,0.4620809257030487
1766148804619713800,1.0107138671875,-3.687070608139038,-10.002974510192871,0.6033388376235962
1766149067137329700,263.52832958984374,11.08994197845459,-1.9273324012756348,1.9273324012756348
1766149067147309000,263.5383090820313,10.831368446350098,-1.577778935432434,3.2369606494903564
1766149067186356500,263.5773564453125,11.446678161621094,-5.3342814445495605,5.037400245666504
1766149067196335600,263.58733569335936,11.836933135986328,-4.757278919219971,5.8203043937683105
1766149067246262500,263.63726245117186,10.493785858154297,-4.525041103363037,5.9735331535339355
1766149067326027000,263.71702709960937,9.959878921508789,-2.6192567348480225,1.2306196689605713
1766149067385994000,263.7769938964844,11.487380027770996,-6.900089263916016,0.6727706789970398
1766149067396003800,263.78700390625,10.323798179626465,-4.733336925506592,2.300827741622925
1766149067405922000,263.7969221191406,9.897629737854004,-0.9864110946655273,2.229001760482788
1766149067415962400,263.80696240234374,9.279925346374512,1.8938134908676147,0.17956513166427612
1766149067425941500,263.81694140625,9.952696800231934,-0.15801730751991272,-1.3192051649093628
1766149067465919500,263.85691943359376,11.54005241394043,-11.255142211914062,0.545877993106842
1766149067525856000,263.91685595703126,12.222399711608887,-5.837063789367676,-0.3471592366695404
1766149067575783000,263.96678295898437,9.066842079162598,-0.40701428055763245,-0.9145850539207458
1766149067585792500,263.97679248046876,10.611102104187012,-2.33913516998291,-0.40222588181495667
1766149067595802400,263.98680224609376,11.446678161621094,-4.486733913421631,-0.8571242094039917
1766149067605781500,263.99678149414063,10.6709566116333,-6.40927791595459,-1.4891934394836426
1766149067615791400,264.00679125976563,9.253589630126953,-6.694188117980957,-1.1827356815338135
1766149067625831700,264.01683178710937,9.227252960205078,-5.635950565338135,-1.0127472877502441
1766149067635841500,264.02684155273437,9.57441234588623,-4.520252704620361,-1.659181833267212
1766149067645851100,264.03685107421876,8.877699851989746,-3.5745432376861572,-1.8531121015548706
1766149067655861000,264.04686108398437,9.07641887664795,-3.713406801223755,-1.5514427423477173
1766149067665840000,264.05684008789063,9.373299598693848,-5.200206279754639,-2.1715409755706787
1766149067685859800,264.07685986328124,7.3885064125061035,-7.204153060913086,-3.512293815612793
1766149067695839000,264.0868388671875,7.184999465942383,-6.854599475860596,-2.564189910888672
1766149067705848800,264.0968488769531,7.575253963470459,-6.114790916442871,-1.8124107122421265
1766149067715828000,264.1068278808594,8.674192428588867,-5.839457988739014,-1.5753847360610962
1766149067725837800,264.116837890625,9.715670585632324,-5.832275390625,-2.315192937850952
1766149067735817000,264.12681689453126,9.368511199951172,-5.489904403686523,-3.3854012489318848
1766149067745796400,264.13679638671874,9.097966194152832,-5.547365188598633,-3.272873640060425
1766149067755806000,264.14680590820313,9.418789863586426,-5.4875102043151855,-2.0015525817871094
1766149067765785300,264.1567854003906,9.521739959716797,-5.837063789367676,-1.0797849893569946
1766149067775825700,264.16682568359374,9.265560150146484,-6.155492782592773,-1.170764684677124
1766149067795784000,264.1867839355469,8.135497093200684,-5.353435039520264,-1.235408067703247
1766149067805732900,264.19673291015624,8.655038833618164,-4.819528102874756,-0.7230489253997803
1766149067815773000,264.20677294921876,8.619126319885254,-4.364629745483398,0.363918662071228
1766149067825752300,264.21675244140624,8.56884765625,-4.553771495819092,0.9026140570640564
1766149067835762200,264.22676220703124,7.915230751037598,-4.687847137451172,0.8930372595787048
1766149067845741300,264.2367412109375,7.623138427734375,-4.927267074584961,0.5506663918495178
1766149067855751200,264.2467512207031,7.663839817047119,-5.372588634490967,0.44771572947502136
1766149067865730300,264.2567302246094,7.400477409362793,-5.717353820800781,0.6009446382522583
1766149067875709700,264.26670971679687,7.632715225219727,-6.1315507888793945,0.07182604819536209
1766149067885658400,264.2766584472656,7.462726593017578,-5.8657941818237305,-0.48602294921875
1766149067915687700,264.3066877441406,8.233659744262695,-5.370194435119629,0.19153612852096558
1766149067925666800,264.3166667480469,8.101978302001953,-5.34625244140625,0.38546648621559143
1766149067945655800,264.33665576171876,7.888894557952881,-5.339069843292236,-0.14604631066322327
1766149067955635200,264.34663525390624,7.613561630249023,-5.082890033721924,-0.10055647045373917
1766149067965614300,264.3566142578125,8.29590892791748,-4.891354084014893,0.20111294090747833
1766149067975624200,264.3666242675781,8.1139497756958,-4.405331134796143,0.5386953949928284
1766149067985603300,264.3766032714844,8.078036308288574,-4.122815132141113,0.30885201692581177
1766149067995582700,264.38658276367187,7.661445617675781,-3.885789394378662,-0.2082955539226532
1766149068005561900,264.39656176757813,7.627926826477051,-7.043741226196289,-1.821987509727478
1766149068015541200,264.4065412597656,7.007828235626221,-6.794744491577148,-7.594407558441162
1766149068025550800,264.41655078125,5.185841083526611,-5.245696067810059,-12.7946138381958
1766149068035530200,264.4265302734375,4.285621166229248,-4.5609540939331055,-15.076288223266602
1766149068045479000,264.43647900390624,3.5889084339141846,-2.9328970909118652,-12.995726585388184
1766149068055519200,264.44651928710937,2.940079689025879,-1.2330138683319092,-8.683769226074219
1766149068065498400,264.45649829101563,2.8874073028564453,-1.8602946996688843,-4.19224739074707
1766149068075477800,264.4664777832031,2.8874073028564453,-1.8602946996688843,-4.19224739074707
1766149068085487400,264.4764873046875,3.689464807510376,-2.1284453868865967,0.43335050344467163
1766149068095466800,264.486466796875,4.58968448638916,-3.4955344200134277,5.4013190269470215
1766149068105476400,264.4964763183594,6.943184852600098,-5.901707172393799,9.586383819580078
1766149068145454300,264.53645434570313,8.075642585754395,-7.6351094245910645,-4.525041103363037
1766149068155464200,264.54646411132813,7.450755596160889,-5.652710437774658,-7.338228225708008
1766149068165443600,264.5564436035156,7.189787864685059,-4.027047157287598,-7.884106159210205
1766149068175453200,264.566453125,6.3973069190979,-2.7317841053009033,-5.805939197540283
1766149068185432600,264.5764326171875,5.4659624099731445,-2.3127987384796143,-2.920926094055176
1766149068195411700,264.58641162109376,4.920084476470947,-2.315192937850952,-0.6033388376235962
1766149068205421600,264.59642163085937,4.927267074584961,-2.6024973392486572,0.6224924325942993
1766149068215400700,264.60640063476563,6.200982570648193,-3.2154128551483154,1.2617442607879639
1766149068225380000,264.6163801269531,6.145915985107422,-4.477157115936279,2.1140801906585693
1766149068235359200,264.6263591308594,6.509834289550781,-6.907271862030029,2.8586769104003906
1766149068245308000,264.63630786132813,5.659893035888672,-7.232883453369141,3.1914708614349365
1766149068255317800,264.64631787109374,4.972756862640381,-6.871358871459961,2.2170307636260986
1766149068265297000,264.656296875,5.0685248374938965,-6.806715488433838,0.6105214357376099
1766149068275276300,264.6662763671875,5.128379821777344,-6.205770969390869,-0.9385270476341248
1766149068295234800,264.68623486328124,5.940014362335205,-5.473145008087158,-2.5546131134033203
1766149068305214000,264.6962138671875,6.3063273429870605,-6.3949127197265625,-3.004723072052002
1766149068335212800,264.726212890625,7.833827972412109,-9.193734169006348,-3.663128614425659
1766149068345192000,264.73619189453126,7.908048152923584,-10.488997459411621,-3.488351821899414
1766149068355232300,264.7462321777344,7.862558364868164,-11.30063247680664,-3.203441858291626
1766149068365211600,264.75621166992187,7.891288757324219,-11.834539413452148,-2.9759926795959473
1766149068375221200,264.76622119140626,8.094796180725098,-12.109871864318848,-2.9041666984558105
1766149068385200600,264.77620068359374,7.972691535949707,-11.84650993347168,-3.0765492916107178
1766149068395179800,264.7861796875,7.948749542236328,-10.900800704956055,-3.3925838470458984
1766149068405189600,264.7961896972656,7.862558364868164,-9.873687744140625,-3.5721490383148193
1766149068415168800,264.8061687011719,7.860164165496826,-9.05247688293457,-3.823540210723877
1766149068445137200,264.83613720703124,7.424419403076172,-7.570465564727783,-4.357447147369385
1766149068455146800,264.84614672851563,7.16584587097168,-6.813898086547852,-4.608838081359863
1766149068465126100,264.8561262207031,6.48828649520874,-5.959167957305908,-5.094861030578613
1766149068475105300,264.8661052246094,5.918466567993164,-5.640739440917969,-5.451597213745117
1766149068485115100,264.876115234375,5.485116004943848,-5.679046630859375,-5.592854976654053
1766149068495094300,264.88609423828126,5.305551052093506,-5.614402770996094,-5.51624059677124
1766149068505104100,264.89610424804687,5.394136428833008,-6.821080684661865,-5.370194435119629
1766149068515114000,264.90611401367187,5.295974254608154,-7.711723804473877,-5.4252610206604
1766149170127968000,366.5189680175781,6.72531270980835,3.4835634231567383,4.817133903503418
1766149170137777700,366.5287775878906,7.3023152351379395,3.1028854846954346,4.2760443687438965
1766149170177325300,366.5683251953125,7.132327079772949,3.450044631958008,5.506663799285889
1766149170207263000,366.59826293945315,8.11634349822998,3.40216064453125,5.595249176025391
1766149170257220400,366.6482204589844,7.5632829666137695,3.7038300037384033,6.165069580078125
1766149170327075000,366.7180749511719,7.3023152351379395,3.0142998695373535,6.186617374420166
1766149170337084700,366.7280847167969,7.1921820640563965,2.9233202934265137,6.229712963104248
1766149170377063000,366.76806298828126,7.33583402633667,2.341529369354248,6.375759124755859
1766149170426989600,366.81798950195315,6.40927791595459,3.5721490383148193,6.145915985107422
1766149170436968700,366.82796875,6.200982570648193,3.4404678344726562,5.882553577423096
1766149170456957700,366.8479577636719,6.138733386993408,3.976768970489502,6.155492782592773
1766149170506915000,366.8979150390625,6.981492042541504,3.8714241981506348,6.311115741729736
1766149170516925000,366.90792504882813,7.2352776527404785,3.557783842086792,6.203376770019531
1766149170526904000,366.9179040527344,7.33583402633667,3.1052796840667725,6.196194171905518
1766149170536883500,366.9278835449219,7.254431247711182,2.8586769104003906,6.157886981964111
1766149170546832100,366.93783203125,7.161057472229004,2.6216509342193604,6.086060523986816
1766149170556841700,366.947841796875,7.089231014251709,2.31758713722229,6.01423454284668
1766149170566821000,366.9578210449219,7.144298076629639,2.118868589401245,6.064512729644775
1766149170606768600,366.9977685546875,6.670246124267578,3.19865345954895,5.540182590484619
1766149170656725800,367.04772583007815,6.44279670715332,4.548983097076416,5.0876784324646
1766149170666644200,367.0576442871094,6.428431510925293,4.908113479614258,4.8937482833862305
1766149170726550000,367.11755004882815,4.060565948486328,4.350264549255371,2.1571757793426514
1766149170736529400,367.127529296875,3.531447410583496,3.9887399673461914,1.659181833267212
1766149170746478000,367.1374780273438,3.1004912853240967,3.5051112174987793,1.2976573705673218
1766149170756457200,367.14745727539065,2.736572504043579,3.0597896575927734,1.1994950771331787
1766149170766436600,367.1574365234375,2.410961151123047,2.980781078338623,0.8834604024887085
1766149170776446500,367.16744653320313,2.1763293743133545,3.737348794937134,0.5985504388809204
1766149170786456000,367.1774560546875,2.006340980529785,4.19224739074707,0.15083470940589905
1766149170796466000,367.1874658203125,1.7860745191574097,4.288015365600586,-0.38546648621559143
1766149170806414600,367.1974145507813,1.2713210582733154,3.936067581176758,-0.7398083209991455
1766149170816424400,367.2074245605469,0.9050082564353943,3.5051112174987793,-0.8619126081466675
1766149170826373000,367.217373046875,0.3734954595565796,3.1196448802948,-0.8259995579719543
1766149170836352300,367.2273522949219,-0.05027823522686958,2.6192567348480225,-0.6584054827690125
1766149170846362000,367.2373620605469,-0.090979665517807,2.006340980529785,-0.3758896589279175
1766149170856341200,367.2473413085938,-0.009576806798577309,1.0582371950149536,-0.16759411990642548
1766149170866259500,367.2572595214844,0.019153613597154617,-0.016759412363171577,-0.4908113479614258
1766149170876238800,367.2672387695313,0.038307227194309235,-1.05105459690094,-1.0462661981582642
1766149170886218000,367.27721801757815,-0.19153612852096558,-2.1763293743133545,-1.5753847360610962
1766149170906207000,367.29720703125,-1.256955862045288,-4.51067590713501,-1.4245500564575195
1766149170926165500,367.3171655273438,-1.6543933153152466,-7.4555439949035645,-0.12210428714752197
1766149170936205800,367.3272058105469,-1.3000515699386597,-8.432378768920898,0.29209262132644653
1766149170946185200,367.3371853027344,-0.7805097699165344,-8.827422142028809,0.3423708379268646
1766149170956164400,367.34716430664065,-0.2537853717803955,-8.808267593383789,0.08619125932455063
1766149170966113000,367.3571130371094,0.13168109953403473,-7.922413349151611,-0.2968810200691223
1766149170976153300,367.3671533203125,0.35434186458587646,-7.618350028991699,-0.4596867263317108
1766149170986102000,367.3771020507813,0.9385270476341248,-11.959037780761719,-0.8547300100326538
1766149170996081400,367.38708129882815,1.742978811264038,-14.85362720489502,-1.721431016921997
1766149171016100900,367.40710083007815,2.5234885215759277,-15.421052932739258,-3.5218706130981445
1766149171026110700,367.41711083984376,2.5929205417633057,-13.783419609069824,-4.003105163574219
1766149171036120300,367.42712036132815,3.2585084438323975,-10.730812072753906,-4.240131378173828
1766149171046130200,367.43713012695315,4.14915132522583,-8.935160636901855,-5.054159641265869
1766149171056109300,367.447109375,4.697423934936523,-10.433931350708008,-6.337451934814453
1766149171066058200,367.4570583496094,4.900930881500244,-15.229516983032227,-8.238448143005371
1766149171076037400,367.46703735351565,3.7014358043670654,-17.216705322265625,-10.096348762512207
1766149171086016800,367.47701684570313,3.3423056602478027,-16.22071647644043,-11.808202743530273
1766149171096026400,367.4870263671875,2.9065608978271484,-13.201627731323242,-12.938265800476074
1766149171125994800,367.5169948730469,1.9345149993896484,-7.826645374298096,-14.259865760803223
1766149171135974000,367.52697387695315,2.5330653190612793,-7.553706169128418,-16.002843856811523
1766149171145953300,367.53695336914063,3.7876269817352295,-7.493851184844971,-18.126501083374023
1766149171155932400,367.5469323730469,5.200206279754639,-8.525752067565918,-20.12087059020996
1766149171165911600,367.5569116210938,7.053318023681641,-10.92953109741211,-22.00989532470703
1766149171175891000,367.56689086914065,8.583212852478027,-14.633360862731934,-23.0322208404541
1766149171185900800,367.57690087890626,9.813833236694336,-18.368314743041992,-22.883779525756836
1766149171195880000,367.5868798828125,9.816226959228516,-21.45204734802246,-21.32036590576172
1766149186140672500,382.53167260742185,1.115697979927063,-11.099518775939941,-2.8227639198303223
1766149186150682400,382.54168237304685,0.6536170840263367,-12.337321281433105,-3.294421434402466
1766149186170471200,382.56147119140627,0.6153098344802856,-9.160215377807617,-1.9177556037902832
1766149186189960200,382.5809602050781,1.1085153818130493,-5.834669589996338,-2.80361008644104
1766149186199770000,382.59077001953125,1.338358759880066,-7.254431247711182,-5.003881454467773
1766149186209749200,382.6007492675781,1.8267759084701538,-8.844181060791016,-7.73087739944458
1766149186219759000,382.6107590332031,2.734178304672241,-12.157755851745605,-10.347740173339844
1766149186239687200,382.63068725585936,2.8778305053710938,-13.663708686828613,-11.707646369934082
1766149186269685800,382.6606857910156,2.892195701599121,-8.671798706054688,-11.461043357849121
1766149186309694500,382.7006945800781,3.466804027557373,-7.920019149780273,-19.488801956176758
1766149186329683500,382.7206833496094,4.920084476470947,-11.154585838317871,-22.572534561157227
1766149236161068300,432.552068359375,12.066776275634766,0.727837324142456,-1.8555063009262085
1766149236180757200,432.57175732421877,4.874594688415527,3.9169139862060547,-1.1420341730117798
1766149236190536400,432.5815363769531,5.774814605712891,3.6990416049957275,1.0438719987869263
1766149236210556000,432.6015559082031,12.265495300292969,1.7549498081207275,1.4460978507995605
1766149236220504800,432.6115048828125,11.410765647888184,1.7764976024627686,0.06224924325942993
1766149236280471800,432.6714719238281,8.743624687194824,2.8107926845550537,0.9265560507774353
1766149236330329000,432.7213291015625,10.426748275756836,0.2968810200691223,3.3734302520751953
1766149236430243600,432.82124365234375,10.730812072753906,0.3758896589279175,0.6416460275650024
1766149236450202000,432.8412021484375,10.5344877243042,-0.5937620401382446,0.7398083209991455
1766149236460181200,432.85118115234377,11.231200218200684,-0.5746083855628967,0.8882488012313843
1766149236470130200,432.8611301269531,11.882423400878906,-0.811634361743927,0.33758243918418884
1766149236480109300,432.871109375,11.858481407165527,-2.03507137298584,-0.5722141861915588
1766149236490088400,432.88108837890627,10.685321807861328,-3.184288263320923,-0.43335050344467163
1766149236500067800,432.89106787109375,10.400412559509277,-2.9975404739379883,1.0079588890075684
1766149236510077700,432.90107763671875,10.864887237548828,-3.361459255218506,1.6639702320098877
1766149236520056800,432.9110568847656,10.093954086303711,-2.2242133617401123,1.3407529592514038
1766149236530066700,432.9210666503906,11.528080940246582,-2.6815059185028076,0.33997663855552673
1766149236609931000,433.00093090820315,10.493785858154297,-3.179499864578247,-0.17956513166427612
1766149236619880000,433.0108798828125,10.493785858154297,-3.179499864578247,-0.17956513166427612
1766149236629889500,433.0208896484375,10.144232749938965,-1.1085153818130493,-0.1388636976480484
1766149236639869000,433.0308688964844,10.338163375854492,-0.9983820915222168,0.7493851184844971
1766149236649878500,433.04087841796877,10.503362655639648,-1.0007762908935547,2.52109432220459
1766149236669837000,433.0608371582031,10.20887565612793,-0.11013327538967133,0.6799532771110535
1766149236679755300,433.07075537109375,10.958261489868164,-0.09816227108240128,-0.08140286058187485
1766149236699713800,433.0907138671875,12.859257698059082,-6.904877662658691,0.4189853072166443
1766149236709693200,433.1006931152344,12.832921028137207,-10.307038307189941,0.8858546018600464
1766149236719641900,433.1106418457031,13.053187370300293,-11.310209274291992,0.181959331035614
1766149236729651500,433.1206513671875,12.689269065856934,-8.614337921142578,-0.5099649429321289
1766149236739600400,433.1306003417969,12.890381813049316,-6.404489517211914,-0.4668693244457245
1766149236749579500,433.14057958984375,13.864822387695312,-4.039018154144287,0.2106897532939911
1766149236759589400,433.15058935546875,14.317326545715332,-0.8571242094039917,-1.359906554222107
1766149236769568500,433.1605686035156,13.965378761291504,0.021547814831137657,-3.861847400665283
1766149236779548000,433.1705478515625,12.418724060058594,-1.091755986213684,-6.229712963104248
1766149236789527000,433.1805270996094,12.524068832397461,-4.1395745277404785,-9.208099365234375
1766149236799537000,433.1905368652344,13.582305908203125,-5.726930618286133,-9.93354320526123
1766149236809516000,433.20051611328125,11.966219902038574,-2.9903578758239746,-8.008605003356934
1766149236819464700,433.2104645996094,10.512939453125,1.5203180313110352,-5.822698593139648
1766149236829474600,433.220474609375,10.089165687561035,5.03021764755249,-3.5721490383148193
1766149236839453700,433.23045361328127,10.012551307678223,4.711789131164551,-2.2840683460235596
1766149236849463600,433.2404636230469,7.922413349151611,2.801215887069702,-2.846705913543701
1766149236869483000,433.26048291015627,4.163516521453857,-3.818751811981201,-3.6343982219696045
1766149236889441500,433.2804416503906,4.218583583831787,-6.086060523986816,-1.7741034030914307
1766149236899390200,433.29039013671877,4.972756862640381,-6.344634532928467,-1.1037269830703735
1766149236909369600,433.30036962890625,5.099649429321289,-6.696582317352295,-1.1013327836990356
1766149236919318300,433.310318359375,5.504269599914551,-7.671022415161133,-0.6991068720817566
1766149236929328000,433.320328125,5.959167957305908,-8.520963668823242,-0.181959331035614
1766149236939337700,433.3303376464844,7.299921035766602,-8.889671325683594,-0.2059013396501541
1766149236949317000,433.3403171386719,8.49941635131836,-9.47146224975586,-0.28969839215278625
1766149236969306000,433.36030615234375,9.883264541625977,-9.478644371032715,0.6631938815116882
1766149236989264600,433.3802646484375,9.890447616577148,-6.672640323638916,1.0845733880996704
1766149236999274200,433.3902741699219,10.062829971313477,-5.791574001312256,1.256955862045288
1766149237009253600,433.4002536621094,10.45547866821289,-5.190629482269287,0.33518823981285095
1766149237019232800,433.41023266601565,10.524910926818848,-4.467580318450928,-0.5913678407669067
1766149237029242600,433.42024267578125,10.512939453125,-4.000710964202881,0.7350199222564697
1766149237039221800,433.4302216796875,11.441889762878418,-4.369418144226074,2.7724854946136475
1766149237049201200,433.440201171875,11.597513198852539,-4.924872875213623,3.112462282180786
1766149237059180300,433.45018017578127,11.980585098266602,-5.552153587341309,1.6759412288665771
1766149237079169300,433.47016918945315,10.608707427978516,-6.074089527130127,-1.1109095811843872
1766149237089179100,433.48017919921875,8.995016098022461,-7.484274387359619,-0.6847416758537292
1766149237099189000,433.49018896484375,10.010157585144043,-9.437943458557129,-6.655880928039551
1766149237109198600,433.50019848632815,4.383783340454102,-3.6750996112823486,-12.935872077941895
1766149237119208400,433.51020849609375,4.55616569519043,-3.818751811981201,-17.420211791992188
1766149237129187600,433.5201875,2.7006595134735107,-0.7637503147125244,-15.887922286987305
1766149237139167000,433.5301669921875,2.454056739807129,0.42377370595932007,-10.793061256408691
1766149237149207300,433.5402072753906,1.3024457693099976,0.5746083855628967,-5.96874475479126
1766149237159186400,433.5501865234375,2.0661959648132324,0.2082955539226532,-2.3750481605529785
1766149237169196300,433.5601962890625,2.5043349266052246,0.7230489253997803,1.98958158493042
1766149237199164400,433.59016430664065,5.396530628204346,-2.7988216876983643,15.004462242126465
1766149237209143800,433.6001437988281,8.655038833618164,-7.137115478515625,9.272743225097656
1766149237219123000,433.610123046875,10.680533409118652,-11.927912712097168,1.1061211824417114
1766149237229132800,433.6201328125,10.680533409118652,-11.927912712097168,1.1061211824417114
1766149237239112000,433.63011181640627,8.611943244934082,-12.284648895263672,-4.568136692047119
1766149237249121800,433.6401218261719,6.033388137817383,-9.315838813781738,-7.7643961906433105
1766149237259101000,433.65010083007815,6.189011573791504,-6.6127848625183105,-8.884882926940918
1766149237269141200,433.6601413574219,6.979097843170166,-2.3511061668395996,-7.2783732414245605
1766149237309150000,433.70014990234375,5.1810526847839355,-5.252878665924072,0.36152446269989014
1766149237329139000,433.7201389160156,5.671864032745361,-6.8162922859191895,-3.050212860107422
1766149237339148500,433.7301484375,6.756437301635742,-6.344634532928467,-4.508281707763672
1766149237349158400,433.7401584472656,7.898471355438232,-6.426037311553955,-5.279214859008789
1766149237359137500,433.7501374511719,8.360552787780762,-6.691793918609619,-5.458779811859131
1766149237369147400,433.7601474609375,8.561665534973145,-7.105990409851074,-5.3797712326049805
1766149237379126500,433.77012646484377,8.944737434387207,-8.772355079650879,-5.523423194885254
1766149237399115800,433.79011572265625,7.24485445022583,-8.920795440673828,-6.493074893951416
1766149237409125400,433.80012548828125,6.763619899749756,-7.8529815673828125,-6.66785192489624
1766149237419104800,433.8101047363281,6.557718276977539,-6.912060260772705,-6.497863292694092
1766149237429084000,433.820083984375,5.8203043937683105,-5.8442463874816895,-6.110002517700195
1766149237439093800,433.83009375,5.25527286529541,-5.901707172393799,-5.837063789367676
1766149237449103400,433.8401032714844,4.7189717292785645,-6.337451934814453,-5.774814605712891
1766149237459113200,433.85011328125,4.577713489532471,-6.7492547035217285,-5.8657941818237305
1766149237469092400,433.86009228515627,4.908113479614258,-7.249642848968506,-6.19379997253418
1766149237479071700,433.87007177734375,4.843470096588135,-7.338228225708008,-6.279991149902344
1766149237489081600,433.88008154296875,5.0685248374938965,-7.043741226196289,-6.418854713439941
1766149237499060700,433.8900607910156,5.547365188598633,-6.720524311065674,-6.54574728012085
1766149237549048600,433.9400485839844,6.038176536560059,-7.924807548522949,-7.726089000701904
1766149237569068000,433.9600681152344,5.935225963592529,-6.119579315185547,-7.508216381072998
1766149237579078000,433.9700778808594,5.688623428344727,-5.942408561706543,-7.259219646453857
1766149237589087500,433.98008740234377,5.0876784324646,-6.268020153045654,-6.88332986831665
1766149237609076500,434.00007641601565,5.22175407409668,-6.538564682006836,-7.041347026824951
1766149349138939100,545.5299392089844,-0.9816226959228516,3.3710360527038574,1.2473790645599365
1766149349148818400,545.539818359375,-15.172056198120117,-7.955932140350342,1.7286136150360107
1766149349198214700,545.5892145996094,-0.19871874153614044,0.31603461503982544,6.296750545501709
1766149349208255000,545.5992548828125,1.6328455209732056,2.8131868839263916,6.5481414794921875
1766149349228244000,545.6192438964844,2.3582887649536133,8.789113998413086,6.356605529785156
1766149349238223000,545.6292231445312,1.259350061416626,9.720458984375,7.2568254470825195
1766149349248202500,545.6392023925781,0.3280056416988373,10.20887565612793,8.425195693969727
1766149349258181600,545.649181640625,0.2537853717803955,8.913613319396973,9.210494041442871
1766149349308169500,545.6991694335937,5.506663799285889,7.201758861541748,6.572083473205566
1766149349348056000,545.7390561523438,4.436455726623535,4.967968463897705,6.074089527130127
1766149349398013200,545.7890131835937,3.1435868740081787,5.566518783569336,7.307103633880615
1766149349408023000,545.7990229492187,2.5091233253479004,5.9519853591918945,7.615955829620361
1766149349457919200,545.8489191894531,3.0765492916107178,3.7253777980804443,8.908824920654297
1766149349467898400,545.8588984375,3.0813376903533936,4.659116744995117,8.719682693481445
1766149349537814300,545.9288142089844,4.153939723968506,1.115697979927063,8.925583839416504
1766149349587741000,545.9787409667969,7.0988078117370605,1.4652514457702637,6.277596950531006
1766149349597720300,545.9887202148437,6.095637321472168,2.410961151123047,6.332663536071777
1766149349607699500,545.9986994628906,5.032611846923828,3.8139634132385254,6.912060260772705
1766149349617648000,546.0086481933594,4.041412353515625,4.371812343597412,7.548917770385742
1766149349627627500,546.0186274414062,2.6886885166168213,4.436455726623535,7.967903137207031
1766149349637637400,546.0286374511719,1.4963760375976562,3.6176388263702393,8.121131896972656
1766149349647677400,546.0386774902344,1.644816517829895,2.1811177730560303,8.429984092712402
1766149349657656800,546.0486567382812,2.126051187515259,2.099714994430542,8.324639320373535
1766149349667636000,546.0586359863281,2.4588451385498047,3.1028854846954346,7.888894557952881
1766149349677645800,546.0686457519531,2.7509377002716064,3.7229835987091064,7.7763671875
1766149349687655700,546.0786557617188,2.7509377002716064,3.7229835987091064,7.7763671875
1766149349697634800,546.088634765625,3.265691041946411,3.5458126068115234,7.910442352294922
1766149349707614000,546.0986140136719,3.5003228187561035,2.8586769104003906,7.994239330291748
1766149349717563000,546.1085629882813,4.065354347229004,2.006340980529785,7.594407558441162
1766149349727542000,546.1185419921875,4.699818134307861,1.41257905960083,7.15387487411499
1766149349737521400,546.128521484375,4.697423934936523,1.3886369466781616,7.01979923248291
1766149349747531000,546.1385310058594,3.971980571746826,0.4381389021873474,7.287950038909912
1766149349757510400,546.1485104980469,2.717418909072876,-0.5363011956214905,8.10437297821045
1766149349767489500,546.1584895019531,1.601720929145813,-0.6512228846549988,8.757989883422852
1766149349777438200,546.1684382324219,1.4197616577148438,0.4908113479614258,8.983044624328613
1766149349787448000,546.1784479980469,2.145204782485962,1.6663644313812256,8.923190116882324
1766149349797427200,546.1884272460937,2.4133553504943848,2.252943754196167,8.980650901794434
1766149349807437000,546.1984370117187,2.6408045291900635,2.454056739807129,9.208099365234375
1766149349817447000,546.2084470214844,3.179499864578247,2.250549554824829,9.502586364746094
1766149349827456500,546.2184565429687,3.818751811981201,1.6184803247451782,9.406818389892578
1766149349837436000,546.2284357910156,4.862623691558838,1.173158884048462,9.461885452270508
1766149349847445500,546.2384455566406,5.91128396987915,1.1013327836990356,9.730035781860352
1766149349857425000,546.2484248046875,6.3518171310424805,0.8834604024887085,9.854534149169922
1766149349867404000,546.2584040527344,6.229712963104248,0.6224924325942993,9.761159896850586
1766149349877383400,546.2683835449219,5.822698593139648,0.8643068075180054,9.643844604492188
1766149349887423700,546.278423828125,4.733336925506592,1.778891921043396,9.600749015808105
1766149349897403000,546.2884028320312,2.786850690841675,1.6711528301239014,9.653421401977539
1766149349907412700,546.2984128417969,1.1228805780410767,0.6105214357376099,9.655815124511719
1766149349917361400,546.308361328125,0.5650315880775452,-0.040701430290937424,9.423578262329102
1766149349927401700,546.3184016113281,1.403002142906189,-1.625662922859192,8.96149730682373
1766149349937380900,546.328380859375,2.980781078338623,-3.799597978591919,8.707711219787598
1766149349947329500,546.3383295898437,3.406949043273926,-5.243301868438721,8.470685958862305
1766149349957339400,546.3483393554687,3.3686418533325195,-5.336675643920898,8.683769226074219
1766149349967318800,546.3583188476563,3.579331636428833,-4.620809078216553,9.02135181427002
1766149349977328400,546.3683283691406,3.998316764831543,-3.045424461364746,9.167398452758789
1766149349987277000,546.3782770996094,4.5394062995910645,-1.2473790645599365,9.346963882446289
1766149349997256400,546.3882563476562,5.341464042663574,0.24420857429504395,9.138668060302734
1766149350007266000,546.3982661132812,5.12119722366333,1.1803414821624756,8.944737434387207
1766149350017245400,546.4082453613281,3.423708438873291,1.113303780555725,8.899248123168945
1766149350027224600,546.418224609375,3.7277719974517822,-0.031124621629714966,8.473079681396484
1766149350037234400,546.428234375,4.247313976287842,-1.5322890281677246,7.848193168640137
1766149350057193000,546.4481928710937,5.451597213745117,-1.9536685943603516,7.283161640167236
1766149350067172000,546.4581721191406,4.177882194519043,-0.47165772318840027,8.214506149291992
1766149350077121000,546.46812109375,4.817133903503418,0.42377370595932007,8.882488250732422
1766149350087130600,546.4781306152344,5.489904403686523,0.028730420395731926,8.89685344696045
1766149350097110000,546.4881101074219,4.960785865783691,-0.2585737705230713,8.121131896972656
1766149350107089200,546.4980891113281,4.738125324249268,-0.5003881454467773,7.271190643310547
1766149350117068300,546.508068359375,5.499481201171875,-0.7493851184844971,6.916848659515381
1766149350127078100,546.518078125,5.980715751647949,-0.8906430602073669,7.68538761138916
1766149350167025700,546.5580256347656,5.360617637634277,-4.742913722991943,9.749189376831055
1766149350177005000,546.5680051269532,5.717353820800781,-5.145139217376709,10.067618370056152
1766149350187014700,546.5780146484375,5.442020416259766,-4.8482584953308105,10.335768699645996
1766149350196963300,546.5879633789062,4.955997467041016,-3.8307228088378906,10.565611839294434
1766149350206973200,546.5979731445312,4.046200752258301,-2.719813108444214,10.76193618774414
1766149350226931700,546.617931640625,4.036623954772949,-0.8092401623725891,11.075576782226562
1766149350236910800,546.6279108886719,4.833893299102783,-0.2968810200691223,10.702081680297852
1766149361128979700,557.5199797363281,0.3423708379268646,3.3710360527038574,3.799597978591919
1766149361148699400,557.5396994628907,-2.049436569213867,-5.48272180557251,4.000710964202881
1766149361198356500,557.5893564453125,2.604891538619995,2.2361843585968018,5.568912982940674
1766149361228355300,557.6193552246094,-3.6511576175689697,10.644620895385742,6.473921298980713
1766149361238334700,557.6293347167968,-5.664681434631348,10.093954086303711,6.301538944244385
1766149361278312700,557.6693127441406,-3.4548330307006836,6.50025749206543,6.943184852600098
1766149361288291800,557.6792917480469,-1.944091796875,5.370194435119629,7.264008045196533
1766149361298240500,557.6892404785157,-0.7493851184844971,4.031835556030273,7.230489253997803
1766149361308280800,557.6992807617188,-0.2059013396501541,3.4165258407592773,7.287950038909912
1766149361318229800,557.7092297363281,-0.5171475410461426,4.02465295791626,7.623138427734375
1766149361328209000,557.719208984375,-1.2114660739898682,5.054159641265869,8.164227485656738
1766149361338249200,557.7292492675781,-1.0893617868423462,5.5976433753967285,8.904036521911621
1766149361348258800,557.7392587890625,-0.3711012601852417,4.527435302734375,10.256759643554688
1766149361358238200,557.74923828125,0.6703764796257019,2.5977089405059814,11.839327812194824
1766149361368217300,557.7592172851563,0.5267243981361389,2.097320795059204,12.342109680175781
1766149361398185700,557.7891857910156,0.1412578970193863,5.319916248321533,11.027692794799805
1766149361418174700,557.8091748046875,-0.7565677165985107,6.287173748016357,11.12106704711914
1766149361438163700,557.8291638183593,-1.5203180313110352,6.299144744873047,10.022128105163574
1766149361448142800,557.8391428222657,-1.1444283723831177,6.107608318328857,8.987833023071289
1766149361458152700,557.8491525878907,-1.45806884765625,6.203376770019531,8.497021675109863
1766149361508171000,557.8991708984375,1.2689268589019775,6.916848659515381,6.356605529785156
1766149361528129500,557.9191296386718,0.6153098344802856,6.952761650085449,6.572083473205566
1766149361538108700,557.9291086425782,-0.24420857429504395,6.054935932159424,6.766014099121094
1766149361548149000,557.9391489257813,-0.8044517636299133,4.230554580688477,6.909666061401367
1766149361558158800,557.9491589355468,-1.2234370708465576,2.650381326675415,7.163451671600342
1766149361568168700,557.9591687011718,-1.889025092124939,1.965639591217041,7.649474620819092
1766149361578178300,557.9691782226563,-2.6408045291900635,1.7405846118927002,8.286332130432129
1766149361588157700,557.9791577148437,-3.4811692237854004,1.2282254695892334,8.583212852478027
1766149361598136800,557.98913671875,-5.1116204261779785,-0.8044517636299133,8.635885238647461
1766149361608116200,557.9991162109375,-3.9863457679748535,-7.292738437652588,7.668628215789795
1766149361618125800,558.0091257324219,-2.7461493015289307,-14.54956340789795,6.552929878234863
1766149361628166100,558.0191662597656,-3.7469255924224854,-18.370710372924805,6.445190906524658
1766149361638145500,558.0291455078125,-3.9001545906066895,-18.10734748840332,7.350199222564697
1766149361648124700,558.0391247558593,-3.7469255924224854,-16.395492553710938,9.643844604492188
1766149361658134500,558.0491345214843,-1.4700398445129395,-14.470555305480957,11.473014831542969
1766149361668113700,558.0591137695312,1.5275006294250488,-8.453926086425781,11.267112731933594
1766149361678092800,558.0690927734375,4.113238334655762,-2.293645143508911,10.735600471496582
1766149361698051300,558.0890512695313,5.477933406829834,4.07014274597168,11.039664268493652
1766149361708091600,558.0990915527344,5.145139217376709,2.3702597618103027,11.463438034057617
1766149361718040300,558.1090402832032,3.4811692237854004,-1.161187767982483,12.495338439941406
1766149361728050200,558.1190502929687,3.4811692237854004,-1.161187767982483,12.495338439941406
1766149361738060000,558.1290600585937,1.5322890281677246,-3.9001545906066895,13.417106628417969
1766149361748069600,558.1390695800782,0.7469909191131592,-5.140350818634033,13.421895027160645
1766149361758018600,558.1490185546875,1.6208745241165161,-3.6080620288848877,12.883199691772461
1766149361767997700,558.1589978027343,2.118868589401245,-0.629675030708313,12.138602256774902
1766149361778007600,558.1690075683593,2.734178304672241,2.7892448902130127,11.094730377197266
1766149361788048000,558.1790478515625,3.3686418533325195,5.032611846923828,9.945513725280762
1766149361808067300,558.1990673828125,5.207388877868652,5.2265424728393555,7.850587368011475
1766149361818046500,558.2090463867188,5.609614372253418,3.9671921730041504,7.599195957183838
1766149361828056300,558.2190563964843,5.348646640777588,1.8626888990402222,7.469909191131592
1766149361838035500,558.2290354003907,5.166687488555908,1.5442601442337036,6.63433313369751
1766149361848014800,558.2390148925781,4.0964789390563965,2.47560453414917,5.70777702331543
1766149361857994000,558.2489938964844,2.7293899059295654,3.7900211811065674,4.817133903503418
1766149361868003800,558.25900390625,2.75812029838562,3.6750996112823486,4.048594951629639
1766149361877983000,558.2689829101563,1.556231141090393,1.6687586307525635,4.771644115447998
1766149361887962400,558.2789624023437,2.142810583114624,-1.4772224426269531,6.543353080749512
1766149361907951400,558.2989514160156,1.9632453918457031,-3.361459255218506,8.303091049194336
1766149361917900000,558.3089001464843,2.736572504043579,-1.9823989868164062,8.090007781982422
1766149361927879400,558.3188793945312,2.5115175247192383,-0.1388636976480484,7.864952564239502
1766149361937858600,558.3288586425781,1.8722656965255737,0.4884171485900879,7.089231014251709
1766149361947899000,558.3388989257812,1.7908629179000854,0.1628057211637497,6.689399719238281
1766149361967826700,558.3588266601563,2.6791117191314697,1.558625340461731,5.7341132164001465
1766149361977806000,558.3688061523437,3.5003228187561035,2.7485435009002686,6.584054470062256
1766149361987785200,558.37878515625,4.37420654296875,2.2457611560821533,7.496245384216309
1766149361997764600,558.3887646484375,2.8874073028564453,1.9584569931030273,8.360552787780762
1766149362017723100,558.4087231445312,2.1092917919158936,2.8586769104003906,6.574477672576904
1766149362027763500,558.4187634277343,5.525817394256592,6.339846134185791,6.567295074462891
1766149362037712100,558.4287121582031,7.1921820640563965,2.9089550971984863,7.333439826965332
1766149362047721700,558.4387216796875,3.5745432376861572,2.03507137298584,9.346963882446289
1766149362057731600,558.4487316894531,4.223371982574463,1.0893617868423462,10.627861022949219
1766149362067741400,558.4587414550781,3.181894063949585,1.4532804489135742,10.702081680297852
1766149362077720600,558.4687204589844,5.796362400054932,1.1851298809051514,9.682151794433594
1766149362087730400,558.47873046875,4.929661273956299,1.9728221893310547,9.315838813781738
1766149362097679000,558.4886791992187,5.288791656494141,1.6280571222305298,9.41400146484375
1766149362107689000,558.4986889648437,10.828974723815918,-0.1843535304069519,9.287108421325684
1766149362127678000,558.5186779785156,7.886500358581543,0.028730420395731926,10.050858497619629
1766149362157646000,558.5486459960938,8.669404029846191,1.137245774269104,7.560888767242432
1766149362167625500,558.5586254882812,7.977479934692383,1.381454348564148,7.15387487411499
1766149362177604600,558.5686044921875,10.393229484558105,0.9959878921508789,7.527369976043701
1766149362187614500,558.5786145019531,12.42351245880127,-0.8667010068893433,7.740454196929932
1766149362197593600,558.5885935058594,14.319720268249512,-1.1300631761550903,7.3454108238220215
1766149362207603500,558.598603515625,11.599906921386719,-1.0989385843276978,9.172186851501465
1766149362217613300,558.60861328125,8.966285705566406,0.608127236366272,11.046846389770508
1766149362247520500,558.6385205078125,1.161187767982483,0.16998831927776337,15.672444343566895
1766149362257499600,558.6484997558593,-0.7565677165985107,-0.7972691655158997,13.986926078796387
1766149362267509500,558.6585095214843,-4.141968727111816,-0.1364694982767105,12.550405502319336
1766149362277488600,558.6684885253907,-4.182670593261719,-0.993593692779541,10.639832496643066
1766149362287498500,558.6784985351562,-4.448426723480225,-3.0334534645080566,9.701305389404297
1766149362297508000,558.6885080566407,-3.8738183975219727,-4.73573112487793,10.002974510192871
1766149362307518000,558.6985180664062,-2.6168625354766846,-4.630385875701904,9.313444137573242
1766149362317466600,558.7084665527344,-1.0558429956436157,-2.609679937362671,7.836222171783447
1766149362357475300,558.7484753417968,1.1420341730117798,-0.30885201692581177,4.434061527252197
1766149362367454500,558.7584543457032,2.4803929328918457,-0.3878606855869293,3.9480385780334473
1766149362377464300,558.7684643554687,2.2697031497955322,0.45489832758903503,4.331110954284668
1766149441119415800,637.5104157714844,6.864176273345947,2.410961151123047,5.274426460266113
1766149441129456000,637.5204560546875,7.007828235626221,2.8179752826690674,5.647922039031982
1766149441158424300,637.5494243164062,7.137115478515625,2.564189910888672,6.742072105407715
1766149441188062200,637.5790622558594,8.1139497756958,1.766920804977417,7.3238630294799805
1766149441207990000,637.5989899902344,7.979874134063721,1.8842366933822632,7.084442615509033
1766149441237958400,637.6289584960938,7.096413612365723,2.5785553455352783,7.398083209991455
1766149441297864400,637.6888645019532,7.386112213134766,1.9800047874450684,7.223306655883789
1766149441347852000,637.7388520507812,6.648698329925537,2.4803929328918457,7.620744228363037
1766149441397779000,637.7887790527344,6.7923502922058105,2.387019157409668,6.9910688400268555
1766149441407758000,637.7987580566406,6.98628044128418,2.341529369354248,6.871358871459961
1766149441447736000,637.8387360839844,5.408501625061035,2.647987127304077,6.289567947387695
1766149441457715500,637.8487155761719,5.319916248321533,2.9688100814819336,6.086060523986816
1766149441467725300,637.8587253417969,5.48272180557251,3.1914708614349365,5.633556365966797
1766149441497663000,637.8886630859375,4.680664539337158,3.3423056602478027,5.602431774139404
1766149441527631000,637.9186311035156,4.922478675842285,5.451597213745117,4.977545261383057
1766149441537610500,637.9286105957032,4.98472785949707,5.157110691070557,4.81473970413208
1766149441547620000,637.9386201171875,4.99669885635376,4.436455726623535,4.76924991607666
1766149441557630000,637.9486298828125,4.862623691558838,4.240131378173828,5.070919036865234
1766149441567609300,637.958609375,4.197035789489746,4.077325344085693,5.169081687927246
1766149441587598300,637.9785983886719,4.244919776916504,4.331110954284668,4.8482584953308105
1766149441597608000,637.9886079101562,4.015076160430908,4.259284973144531,4.697423934936523
1766149441607617800,637.9986176757812,3.9432501792907715,4.661510944366455,4.654327869415283
1766149441617627600,638.0086276855469,3.4955344200134277,5.1595048904418945,4.431667327880859
1766149441627637200,638.0186372070312,3.0837318897247314,5.166687488555908,3.8522706031799316
1766149441637616600,638.0286166992188,2.4612393379211426,4.929661273956299,3.335123062133789
1766149441647595800,638.038595703125,1.8746598958969116,4.821922302246094,2.8874073028564453
1766149441657575200,638.0485751953125,1.4053963422775269,4.850652694702148,2.7988216876983643
1766149441667554300,638.0585541992187,1.1468225717544556,4.771644115447998,3.021482467651367
1766149441677533400,638.0685334472656,1.0821791887283325,4.2760443687438965,3.294421434402466
1766149441697522700,638.0885227050782,0.8906430602073669,3.1531636714935303,3.0406360626220703
1766149441717511700,638.10851171875,0.7493851184844971,2.5689783096313477,2.8371291160583496
1766149441727521300,638.1185212402344,0.5626373887062073,2.4660277366638184,2.5905263423919678
1766149441737500700,638.1285007324219,0.4620809257030487,2.322375535964966,2.4588451385498047
1766149441747571500,638.1385715332032,0.3974374830722809,2.0422539710998535,2.650381326675415
1766149441757550600,638.1485505371094,0.26336219906806946,1.6280571222305298,2.937685489654541
1766149441767530000,638.1585300292969,0.019153613597154617,0.912190854549408,2.806004285812378
1766149441777539600,638.1685395507812,-0.22505496442317963,0.38546648621559143,2.5522189140319824
1766149441817487000,638.2084870605469,-1.2401964664459229,-3.6511576175689697,3.514688014984131
1766149441827497000,638.2184970703125,-1.3958195447921753,-4.41969633102417,3.8714241981506348
1766149441837476000,638.2284760742187,-1.4963760375976562,-4.666299343109131,3.5721490383148193
1766149441847486000,638.2384858398437,-1.5610195398330688,-5.317522048950195,3.0573954582214355
1766149441857465000,638.2484650878906,-1.7884687185287476,-6.038176536560059,2.4899697303771973
1766149441867444500,638.2584445800782,-2.406172752380371,-6.5912370681762695,2.123656988143921
1766149441877423600,638.2684235839844,-2.7246015071868896,-8.061277389526367,2.674323320388794
1766149441887403000,638.2784030761719,-2.9257144927978516,-9.368511199951172,3.6559460163116455
1766149441897382100,638.2883820800781,-2.9448680877685547,-11.255142211914062,3.6846764087677
1766149441907392000,638.2983920898438,-2.698265314102173,-12.212822914123535,2.293645143508911
1766149441917371100,638.30837109375,-2.3367409706115723,-11.690886497497559,0.6751648783683777
1766149441927381000,638.3183811035157,-1.8986018896102905,-10.812214851379395,-0.7134721279144287
1766149441937360100,638.3283601074219,-1.6280571222305298,-11.35809326171875,-1.7501614093780518
1766149441947339500,638.3383395996094,-1.6280571222305298,-11.35809326171875,-1.7501614093780518
1766149441957318700,638.3483186035156,-1.5322890281677246,-13.230358123779297,-2.5330653190612793
1766149441967328500,638.3583286132813,-1.1061211824417114,-13.608642578125,-3.224989652633667
1766149441977307600,638.3683076171875,-0.7326257228851318,-12.820950508117676,-3.9911341667175293
1766149441987317500,638.3783173828125,-0.07900865375995636,-11.724405288696289,-5.145139217376709
1766149441997296600,638.3882966308594,0.08379705995321274,-10.079588890075684,-6.349422931671143
1766149442017316400,638.40831640625,-1.1659762859344482,-9.725247383117676,-8.98543930053711
1766149442047284500,638.4382844238281,-0.9720458984375,-13.75708293914795,-14.264654159545898
1766149442057294300,638.4482944335938,0.1867477297782898,-14.030021667480469,-15.708357810974121
1766149442067304000,638.4583039550781,1.2066776752471924,-13.55357551574707,-16.572664260864258
1766149442097302800,638.488302734375,2.7126305103302,-15.301342964172363,-18.84236717224121
1766149442107312600,638.4983127441407,3.2609026432037354,-17.221492767333984,-19.225439071655273
1766149442197248000,638.588248046875,5.523423194885254,-0.9457096457481384,-15.006855964660645
1766150073151916300,1269.5429162597657,8.712499618530273,4.946420669555664,4.405331134796143
1766150073161926100,1269.5529260253907,9.064447402954102,4.019864559173584,4.2975921630859375
1766150073231464000,1269.6224638671874,8.271966934204102,3.268085241317749,3.907337188720703
1766150073241473800,1269.632473876953,9.418789863586426,3.8498764038085938,3.8594532012939453
1766150073251483400,1269.6424833984374,10.287884712219238,4.218583583831787,3.5410242080688477
1766150073261462800,1269.652462890625,10.582371711730957,4.290409564971924,3.1244332790374756
1766150073291492000,1269.6824921875,8.111555099487305,3.471592426300049,3.670311212539673
1766150073301471200,1269.6924711914062,7.970297336578369,3.3925838470458984,3.514688014984131
1766150073361529900,1269.7525297851562,7.575253963470459,4.989516258239746,4.367023944854736
1766150073381549300,1269.7725493164062,8.398859977722168,4.546588897705078,4.261679172515869
1766150073451526100,1269.8425261230468,8.106766700744629,3.9264907836914062,4.043806552886963
1766150073491473700,1269.8824736328124,7.16584587097168,3.9217023849487305,3.8307228088378906
1766150073511432200,1269.9024321289062,7.374141216278076,3.663128614425659,3.1028854846954346
1766150073541492000,1269.9324919433593,7.168240070343018,4.355052947998047,2.6671407222747803
1766150073621509000,1270.012509033203,7.587224960327148,5.154716491699219,4.017470359802246
1766150073641528600,1270.032528564453,8.662221908569336,5.56173038482666,4.146757125854492
1766150073651538400,1270.042538330078,8.978256225585938,5.595249176025391,3.8810009956359863
1766150073661487000,1270.0524870605468,9.045293807983398,5.3797712326049805,3.7828385829925537
1766150073711475000,1270.1024748535156,7.5417351722717285,5.008669853210449,5.145139217376709
1766150073721484800,1270.1124848632812,7.422025203704834,4.754884719848633,5.418078422546387
1766150073731464000,1270.1224638671874,7.666234016418457,4.371812343597412,5.461174011230469
1766150073801440800,1270.192440673828,6.098031520843506,4.218583583831787,6.785167694091797
1766150073831439600,1270.2224396972656,5.657498836517334,5.035006046295166,6.256049156188965
1766150073841449200,1270.23244921875,5.920860767364502,5.480327606201172,6.234501361846924
1766150073881458000,1270.2724580078125,8.257601737976074,4.311957359313965,5.279214859008789
1766150073911426000,1270.3024260253906,7.838616371154785,2.9759926795959473,4.9152960777282715
1766150073981372400,1270.372372314453,8.106766700744629,5.837063789367676,3.847482204437256
1766150074001391900,1270.392391845703,8.528146743774414,4.527435302734375,3.754108190536499
1766150074051379700,1270.4423796386718,7.702147006988525,4.2544965744018555,3.976768970489502
1766150074061359000,1270.4523591308593,7.105990409851074,4.285621166229248,4.146757125854492
1766150074071338200,1270.4623381347656,6.751648902893066,4.6040496826171875,4.235342979431152
1766150074111377400,1270.5023774414062,7.137115478515625,4.0294413566589355,4.398148536682129
1766150074121387000,1270.5123869628906,7.350199222564697,4.1395745277404785,4.2975921630859375
1766150074131366400,1270.522366455078,7.647080421447754,4.46518611907959,4.3406877517700195
1766150074141345500,1270.5323454589843,7.893682956695557,4.577713489532471,4.32871675491333
1766150074151355400,1270.54235546875,7.951143741607666,4.697423934936523,4.4292731285095215
1766150074171344400,1270.5623444824218,7.587224960327148,4.199429988861084,4.273650169372559
1766150074181323500,1270.572323486328,7.3693528175354,3.9480385780334473,4.314351558685303
1766150074201343200,1270.5923432617187,7.16584587097168,4.288015365600586,4.5394062995910645
1766150074211322400,1270.602322265625,7.122750282287598,4.565742492675781,4.639962673187256
1766150074221301500,1270.6123015136718,6.92881965637207,4.434061527252197,4.704606533050537
1766150074231281000,1270.6222810058593,6.722918510437012,4.381389141082764,4.9152960777282715
1766150074241321200,1270.6323212890625,6.799532890319824,4.273650169372559,5.011064052581787
1766150074251330800,1270.6423308105468,7.015010833740234,4.405331134796143,4.903325080871582
1766150074261310200,1270.6523103027343,7.184999465942383,4.78122091293335,4.680664539337158
1766150074271319800,1270.6623198242187,7.405265808105469,5.1810526847839355,4.656722068786621
1766150074281329700,1270.6723295898437,7.644686222076416,5.16429328918457,4.797980308532715
1766150074291339500,1270.6823395996093,7.898471355438232,4.888959884643555,4.874594688415527
1766150074301349000,1270.6923491210937,7.714118003845215,4.4532151222229,4.809951305389404
1766150074311359000,1270.7023588867187,7.647080421447754,4.278438568115234,4.726154327392578
1766150074321399300,1270.7123994140625,7.50582218170166,4.072536945343018,4.7620673179626465
1766150074331409000,1270.7224089355468,7.515398979187012,4.098873138427734,4.752490520477295
1766150074341418800,1270.7324187011718,7.515398979187012,4.098873138427734,4.752490520477295
1766150074351428600,1270.7424287109375,7.41484260559082,4.1611223220825195,4.786009311676025
1766150074361469000,1270.7524689941406,7.484274387359619,4.4292731285095215,4.869806289672852
1766150074371478500,1270.762478515625,7.7643961906433105,4.4292731285095215,4.575319290161133
1766150074381458000,1270.7724580078125,7.481880187988281,4.381389141082764,4.558559894561768
1766150074391437000,1270.7824370117187,7.587224960327148,4.367023944854736,4.702212333679199
1766150074401447000,1270.7924470214843,7.800309181213379,4.261679172515869,4.821922302246094
1766150074421405400,1270.812405517578,7.261613845825195,4.5394062995910645,4.431667327880859
1766150074431415000,1270.8224150390624,7.615955829620361,4.501099109649658,4.201824188232422
1766150074441425000,1270.8324248046874,8.01339340209961,4.46518611907959,3.909731388092041
1766150074451434800,1270.842434814453,8.542511940002441,4.458003520965576,3.84269380569458
1766150074461444400,1270.8524443359374,8.650250434875488,4.412513732910156,4.173093795776367
1766150074471423700,1270.862423828125,8.49941635131836,4.259284973144531,4.299986362457275
1766150074481433300,1270.8724333496093,7.960720539093018,4.02465295791626,4.331110954284668
1766150074491412700,1270.8824128417968,7.486668586730957,4.101267337799072,4.376600742340088
1766150074551379700,1270.9423796386718,7.429207801818848,3.912125587463379,4.6255974769592285
1766150074591388200,1270.9823881835937,8.022970199584961,4.1180267333984375,4.807557106018066
1766150074601428500,1270.9924284667968,7.884106159210205,4.321534156799316,5.008669853210449
1766150074621417500,1271.0124174804687,7.615955829620361,4.197035789489746,4.876988887786865
1766150074641437200,1271.0324372558593,7.491456985473633,4.501099109649658,4.93923807144165
1766150074651446800,1271.0424467773437,7.280767440795898,4.668693542480469,4.929661273956299
1766150074681445600,1271.0724455566406,6.979097843170166,4.577713489532471,4.8267107009887695
1766150074691424800,1271.0824248046874,6.775590896606445,4.316745758056641,4.982333660125732
1766150074701434600,1271.0924345703124,7.074865818023682,4.551377296447754,4.829104900360107
1766150074711444500,1271.102444580078,6.8162922859191895,4.517858505249023,4.599261283874512
1766150074741473800,1271.132473876953,6.890512466430664,4.525041103363037,4.721365928649902
1766150074761493200,1271.1524931640624,6.98628044128418,4.752490520477295,4.867412090301514
1766150074781482200,1271.1724821777343,7.529764175415039,4.388571739196777,4.711789131164551
1766150074791522600,1271.1825224609374,7.910442352294922,4.151545524597168,4.671087741851807
1766150074801501700,1271.1925017089843,8.212111473083496,3.892971992492676,4.616020679473877
1766150074811511600,1271.2025114746093,8.032546997070312,3.751713991165161,4.534617900848389
1766150074821490700,1271.2124907226562,7.85537576675415,3.9815573692321777,4.572925090789795
1766150074831470000,1271.222469970703,7.661445617675781,4.003105163574219,4.637568473815918
1766150074841510400,1271.2325104980468,7.419631004333496,4.1156325340271,4.6950297355651855
1766150074851520000,1271.2425200195312,7.343016624450684,4.2951979637146,4.6950297355651855
1766150074861529900,1271.2525297851562,7.438784599304199,4.496310710906982,4.608838081359863
1766150074871539700,1271.2625397949218,7.417236804962158,4.520252704620361,4.41969633102417
1766150074881549300,1271.2725493164062,7.402871608734131,4.417302131652832,4.400542736053467
1766150074891559200,1271.2825590820312,7.589619159698486,4.398148536682129,4.6255974769592285
1766150074901569000,1271.2925690917968,7.762001991271973,4.347870349884033,4.709394931793213
1766150074911578600,1271.3025786132812,7.718906402587891,4.177882194519043,4.644751071929932
1766150074921619000,1271.3126188964843,7.752425193786621,4.383783340454102,4.78122091293335
1766150074931659300,1271.3226591796874,8.109161376953125,4.575319290161133,4.829104900360107
1766150074951678700,1271.3426787109374,8.02536392211914,3.9671921730041504,4.707000732421875
1766150074961688600,1271.3526884765624,7.769184589385986,3.9647979736328125,4.829104900360107
1766150074971698400,1271.362698486328,7.445967197418213,4.278438568115234,4.99669885635376
1766150074981708000,1271.3727080078124,7.220912456512451,4.548983097076416,4.965574264526367
1766150074991687400,1271.3826875,6.967126846313477,4.649539470672607,4.857835292816162
1766150075001727700,1271.392727783203,6.8162922859191895,4.367023944854736,5.037400245666504
1766150075011737300,1271.4027373046874,6.646304130554199,4.153939723968506,5.07570743560791
1766150075021716700,1271.412716796875,6.646304130554199,4.153939723968506,5.07570743560791
1766150075031726300,1271.4227263183593,6.797138690948486,4.23773717880249,5.106832027435303
1766150075051746000,1271.44274609375,7.371747016906738,4.271255970001221,4.8267107009887695
1766150075061725200,1271.4527250976562,7.539340972900391,4.357447147369385,4.7405195236206055
1766150075071704300,1271.462704345703,7.666234016418457,4.309563159942627,4.568136692047119
1766150075081744600,1271.4727446289062,7.783549785614014,4.570530891418457,4.6734819412231445
1766150075091724000,1271.4827241210937,7.879317760467529,4.656722068786621,4.575319290161133
1766150075101733600,1271.492733642578,7.740454196929932,4.6040496826171875,4.558559894561768
1766150075111743500,1271.502743408203,7.642292022705078,4.37420654296875,4.613626480102539
1766150075121753300,1271.5127534179687,7.599195957183838,4.015076160430908,4.599261283874512
1766150075131763000,1271.522762939453,7.433996200561523,3.883395195007324,4.67827033996582
1766150075161792300,1271.552792236328,6.9695210456848145,4.220977783203125,4.802768707275391
1766150075191821600,1271.582821533203,7.038952827453613,4.125209331512451,4.927267074584961
1766150075211841300,1271.6028413085937,7.046135425567627,4.326322555541992,5.097255229949951
1766150075221851000,1271.612850830078,7.058106422424316,4.491522312164307,5.224148273468018
1766150075231830300,1271.6228303222656,7.180211067199707,4.537012100219727,5.219359874725342
1766150075241870300,1271.632870361328,7.201758861541748,4.680664539337158,5.2049946784973145
1766150075251880200,1271.642880126953,7.252037048339844,4.613626480102539,5.2911858558654785
1766150075271869200,1271.662869140625,7.204153060913086,4.285621166229248,5.173870086669922
1766150075281848600,1271.6728486328125,7.29034423828125,4.357447147369385,5.0014872550964355
1766150075291888600,1271.682888671875,7.326257228851318,4.290409564971924,5.013458251953125
1766150075301868000,1271.6928679199218,7.402871608734131,4.390965938568115,5.03021764755249
1766150075311847200,1271.7028471679687,7.340622425079346,4.639962673187256,5.085284233093262
1766150075321887500,1271.7128874511718,7.3669586181640625,4.924872875213623,4.888959884643555
1766150075331897300,1271.7228974609375,7.1921820640563965,4.766855716705322,4.778826713562012
1766150075341876500,1271.7328764648437,7.156269073486328,4.63517427444458,4.702212333679199
1766150075361926700,1271.7529267578125,7.237671852111816,4.367023944854736,4.778826713562012
1766150075381915600,1271.7729155273437,7.354987621307373,4.455609321594238,5.0254292488098145
1766150075391925500,1271.7829255371093,7.292738437652588,4.393360137939453,5.114014625549316
1766150075401965600,1271.7929655761718,7.386112213134766,4.280832767486572,5.092466831207275
1766150075411945000,1271.8029450683593,7.196970462799072,4.101267337799072,5.173870086669922
1766150075421954600,1271.8129545898437,7.070077419281006,4.343081951141357,5.216965675354004
1766150075431964400,1271.8229643554687,6.904877662658691,4.417302131652832,5.286397457122803
1766150075441974300,1271.8329743652343,6.866570472717285,4.400542736053467,5.274426460266113
1766150075451984000,1271.8429838867187,6.94079065322876,4.309563159942627,5.274426460266113
1766150075471972900,1271.8629729003906,7.105990409851074,4.316745758056641,5.154716491699219
1766150075482013200,1271.8730131835937,7.266402244567871,4.343081951141357,5.082890033721924
1766150075492023000,1271.8830229492187,7.347805023193359,4.371812343597412,4.93923807144165
1766150075502033000,1271.8930329589843,7.378929615020752,4.458003520965576,4.922478675842285
1766150075512042500,1271.9030424804687,7.362170219421387,4.460397720336914,4.934449672698975
1766150075522052400,1271.9130522460937,7.42681360244751,4.537012100219727,4.888959884643555
1766150075532031500,1271.9230314941406,7.398083209991455,4.424484729766846,4.862623691558838
1766150075542041300,1271.9330412597656,7.364564418792725,4.393360137939453,4.639962673187256
1766150075552051200,1271.9430512695312,7.390900611877441,4.3861775398254395,4.659116744995117
1766150075562091500,1271.9530915527343,7.3885064125061035,4.616020679473877,4.812345504760742
1766150075572101000,1271.9631010742187,7.347805023193359,4.6040496826171875,4.812345504760742
1766150075592090000,1271.9830900878906,7.096413612365723,4.199429988861084,4.67827033996582
1766150075602130400,1271.9931303710937,7.15387487411499,4.0533833503723145,4.680664539337158
1766150075612140300,1272.0031403808593,7.01979923248291,4.194641590118408,4.750096321105957
1766150075622119400,1272.0131193847656,7.47230339050293,4.220977783203125,4.819528102874756
1766150075632129300,1272.0231293945312,7.465120792388916,4.120420932769775,4.833893299102783
1766150075642169600,1272.0331696777343,7.364564418792725,3.825934410095215,4.793191909790039
1766150075652179200,1272.0431791992187,7.3238630294799805,3.8163576126098633,4.7620673179626465
1766150075662189000,1272.0531889648437,7.2137298583984375,3.907337188720703,4.800374507904053
1766150075692218400,1272.0832182617187,7.443572998046875,4.3406877517700195,4.912901878356934
1766150075702197500,1272.0931975097656,7.443572998046875,4.3406877517700195,4.912901878356934
1766150075712237800,1272.1032377929687,7.467514991760254,4.376600742340088,4.948814868927002
1766150075722247700,1272.1132475585937,7.510610580444336,4.534617900848389,4.912901878356934
1766150075732226800,1272.1232268066406,7.51779317855835,4.642356872558594,4.972756862640381
1766150075742236700,1272.1332365722656,7.539340972900391,4.714183330535889,5.039794445037842
1766150075752215800,1272.1432158203124,7.376535415649414,4.4508209228515625,5.106832027435303
1766150075762256100,1272.1532561035156,7.350199222564697,4.189853191375732,5.082890033721924
1766150075772266000,1272.1632658691406,7.331045627593994,4.1180267333984375,5.054159641265869
1766150075792285400,1272.1832854003906,7.400477409362793,4.28322696685791,5.202600479125977
1766150075802295300,1272.1932954101562,7.419631004333496,4.072536945343018,5.137956619262695
1766150075812305000,1272.2033049316406,7.364564418792725,4.0078935623168945,5.142745018005371
1766150075822314800,1272.2133146972656,7.237671852111816,4.141968727111816,5.276820659637451
1766150075832294100,1272.223294189453,7.189787864685059,4.168305397033691,5.329493045806885
1766150075842334200,1272.2333342285156,7.220912456512451,4.199429988861084,5.250484466552734
1766150075852344000,1272.2433439941406,7.161057472229004,4.220977783203125,5.288791656494141
1766150075862323500,1272.253323486328,7.026981830596924,4.307168960571289,5.238513469696045
1766150075872363500,1272.2633635253906,7.058106422424316,4.489128112792969,5.169081687927246
1766150075882343000,1272.273343017578,7.0772600173950195,4.568136692047119,5.137956619262695
1766150075902332000,1272.2933317871093,7.218518257141113,4.292803764343262,5.154716491699219
1766150075912341800,1272.303341796875,7.285555839538574,4.046200752258301,5.097255229949951
1766150075922381800,1272.3133818359374,7.347805023193359,3.9240965843200684,4.972756862640381
1766150075932391700,1272.3233916015624,7.527369976043701,4.089296340942383,4.869806289672852
1766150075942401500,1272.333401611328,7.687781810760498,4.4077253341674805,4.620809078216553
1766150075952380700,1272.3433806152343,7.783549785614014,4.446032524108887,4.479551315307617
1766150075962421000,1272.3534208984374,7.740454196929932,4.443638324737549,4.4723687171936035
1766150075972430800,1272.363430908203,7.704541206359863,4.20421838760376,4.484339714050293
1766150075982440400,1272.3734404296874,7.603984832763672,4.2329487800598145,4.548983097076416
1766150075992450300,1272.3834501953124,7.383718013763428,4.323928356170654,4.659116744995117
1766150076012500200,1272.4035002441406,7.204153060913086,4.252102375030518,4.833893299102783
1766150076022510000,1272.4135100097656,7.074865818023682,4.141968727111816,4.9583916664123535
1766150076032489500,1272.423489501953,7.15387487411499,3.909731388092041,4.910507678985596
1766150076042529500,1272.4335295410156,7.053318023681641,3.780444383621216,4.884171485900879
1766150076052539400,1272.4435393066406,7.127538681030273,3.8283286094665527,4.924872875213623
1766150076062549200,1272.4535493164062,7.196970462799072,4.065354347229004,4.965574264526367
1766150076072558800,1272.4635588378906,7.261613845825195,4.1180267333984375,5.056553840637207
1766150076082599200,1272.4735991210937,7.357381820678711,4.060565948486328,5.054159641265869
1766150076092609000,1272.4836091308593,7.438784599304199,3.9217023849487305,5.037400245666504
1766150076102618600,1272.4936186523437,7.486668586730957,3.93367338180542,5.183446884155273
1766150076122638300,1272.5136384277343,7.589619159698486,4.000710964202881,4.960785865783691
1766150076132648000,1272.5236479492187,7.546523571014404,4.134786128997803,4.98472785949707
1766150076142657800,1272.5336577148437,7.489062786102295,4.082113742828369,5.130774021148682
1766150076152667600,1272.5436677246093,7.5201873779296875,4.194641590118408,5.17626428604126
1766150076162708000,1272.5537080078125,7.501033782958984,4.165910720825195,5.082890033721924
1766150076172717600,1272.5637175292968,7.548917770385742,4.048594951629639,5.104437828063965
1766150076182697000,1272.5736970214843,7.694964408874512,4.132391929626465,5.020640850067139
1766150076192676000,1272.5836760253906,7.740454196929932,4.2544965744018555,5.097255229949951
1766150076202716400,1272.5937163085937,7.663839817047119,4.252102375030518,5.056553840637207
1766150076222675000,1272.613675048828,7.398083209991455,3.9049429893493652,5.049371242523193
1766150076232684500,1272.6236845703124,7.47230339050293,3.8786067962646484,5.118803024291992
1766150076252734700,1272.6437346191406,7.663839817047119,4.0533833503723145,5.058948040008545
1766150076262713900,1272.6537138671874,7.747636795043945,3.9911341667175293,4.977545261383057
1766150076272693200,1272.663693359375,7.757213592529297,3.8522706031799316,4.876988887786865
1766150076282733600,1272.673733642578,7.659051418304443,3.8570590019226074,4.800374507904053
1766150076292743200,1272.6837431640624,7.60637903213501,3.9001545906066895,4.707000732421875
1766150076302753000,1272.6937529296874,7.479485988616943,4.077325344085693,4.81473970413208
1766150076312763000,1272.703762939453,7.565677165985107,4.242525577545166,4.95120906829834
1766150076332782300,1272.7237822265624,7.50582218170166,4.218583583831787,4.855441093444824
1766150076342792200,1272.733792236328,7.343016624450684,3.976768970489502,4.884171485900879
1766150076352801800,1272.7438017578124,7.417236804962158,3.9480385780334473,4.912901878356934
1766150076362903000,1272.7539030761718,7.24485445022583,3.976768970489502,4.99669885635376
1766150076372913000,1272.7639128417968,7.395689010620117,4.031835556030273,5.0685248374938965
1766150076382922800,1272.7739228515625,7.556100368499756,4.165910720825195,4.903325080871582
1766150076392932400,1272.7839323730468,7.556100368499756,4.165910720825195,4.903325080871582
1766150076402942200,1272.7939421386718,7.6351094245910645,4.137180328369141,4.651933670043945
1766150076422931200,1272.8139311523437,7.524975776672363,4.422090530395508,4.534617900848389
1766150076432971500,1272.8239714355468,7.493851184844971,4.412513732910156,4.577713489532471
1766150076442981400,1272.8339814453125,7.422025203704834,4.264073371887207,4.474762916564941
1766150076452991000,1272.8439909667968,7.184999465942383,4.359841346740723,4.522646903991699
1766150076463000800,1272.8540007324218,7.220912456512451,4.23773717880249,4.6255974769592285
1766150076472980000,1272.8639799804687,7.268796443939209,4.077325344085693,4.474762916564941
1766150076482989800,1272.8739897460937,7.311892032623291,3.88818359375,4.388571739196777
1766150076492999700,1272.8839997558593,7.424419403076172,4.0533833503723145,4.335899353027344
1766150076502978800,1272.8939787597656,7.510610580444336,4.350264549255371,4.426878929138184
1766150076512988700,1272.9039887695312,7.50582218170166,4.644751071929932,4.491522312164307
1766150076533008100,1272.9240080566406,7.402871608734131,4.371812343597412,4.69024133682251
1766150076542987500,1272.933987548828,7.4100542068481445,4.414907932281494,4.766855716705322
1766150076552997000,1272.9439970703124,7.465120792388916,4.644751071929932,4.575319290161133
1766150076563007000,1272.954007080078,7.47230339050293,4.501099109649658,4.558559894561768
1766150076573016600,1272.9640166015624,7.3238630294799805,4.125209331512451,4.577713489532471
1766150076582996000,1272.9739958496093,7.113173484802246,4.015076160430908,4.422090530395508
1766150076593005800,1272.984005859375,6.9695210456848145,4.24970817565918,4.333505153656006
1766150076603015400,1272.9940153808593,7.247248649597168,4.757278919219971,4.491522312164307
1766150076612994800,1273.0039948730468,7.534552574157715,5.066130638122559,4.51067590713501
1766150076623004400,1273.0140043945312,7.745242595672607,4.908113479614258,4.292803764343262
1766150076633014300,1273.0240141601562,7.812280178070068,4.501099109649658,4.194641590118408
1766150076643024100,1273.0340241699218,7.793126583099365,3.9695863723754883,4.182670593261719
1766150076653033700,1273.0440336914062,8.061277389526367,3.6152446269989014,3.9911341667175293
1766150076662982400,1273.053982421875,8.429984092712402,3.2417490482330322,3.7421371936798096
1766150076672992300,1273.0639921875,8.544905662536621,3.066972494125366,3.5960910320281982
1766150076683002000,1273.0740021972656,8.391676902770996,3.0765492916107178,3.641580820083618
1766150076693011700,1273.08401171875,8.250418663024902,3.222595453262329,3.49314022064209
1766150076702991000,1273.0939912109375,8.101978302001953,3.6990416049957275,3.0382418632507324
1766150076713000700,1273.1040007324218,8.087613105773926,4.458003520965576,2.6240451335906982
1766150076723041000,1273.114041015625,7.989450931549072,5.370194435119629,2.121262788772583
1766150076743060700,1273.1340607910156,7.65186882019043,6.301538944244385,1.1779472827911377
1766150076753070300,1273.1440703125,7.417236804962158,6.643909931182861,0.993593692779541
1766150076763080200,1273.154080078125,7.146692276000977,6.71334171295166,1.0606313943862915
1766150076773090000,1273.1640900878906,6.892906665802002,6.490680694580078,1.2497732639312744
1766150076783069200,1273.1740690917968,6.670246124267578,6.112396717071533,0.9959878921508789
1766150076793109500,1273.1841096191406,6.320692539215088,5.5545477867126465,0.7613561153411865
1766150076803119000,1273.194119140625,5.702988624572754,5.307945251464844,0.6847416758537292
1766150076813129000,1273.20412890625,5.080495834350586,5.212177276611328,0.727837324142456
1766150076823138800,1273.2141389160156,4.223371982574463,5.118803024291992,1.0606313943862915
1766150076843158300,1273.234158203125,2.8227639198303223,5.1595048904418945,1.6711528301239014
1766150076853137700,1273.2441376953125,2.231395959854126,4.697423934936523,1.6400281190872192
1766150076863116800,1273.2541166992187,1.6639702320098877,3.890577793121338,1.5658079385757446
1766150076873126700,1273.2641267089843,1.1420341730117798,3.308786630630493,1.6735470294952393
1766150076883136300,1273.2741362304687,0.8307880163192749,2.8658595085144043,2.008735179901123
1766150076893146000,1273.2841459960937,0.5937620401382446,2.518700122833252,2.343923568725586
1766150076903125200,1273.2941252441406,0.33997663855552673,2.0254945755004883,2.7317841053009033
1766150076913165600,1273.3041655273437,0.3902548849582672,1.235408067703247,3.1316158771514893
1766150076923175400,1273.3141755371093,0.5937620401382446,0.6129156351089478,2.9089550971984863
1766150076933154600,1273.3241545410156,0.6320692300796509,0.11971008777618408,2.5905263423919678
1766150076953143600,1273.3441435546874,-0.019153613597154617,-1.2976573705673218,1.920149803161621
1766150076963153400,1273.3541533203124,-0.5363011956214905,-1.644816517829895,2.03507137298584
1766150076973163300,1273.364163330078,-0.8092401623725891,-2.099714994430542,2.432508945465088
1766150076983142400,1273.3741423339843,-0.5985504388809204,-2.7006595134735107,2.964021682739258
1766150076993152300,1273.38415234375,-0.1388636976480484,-3.404554843902588,3.0358476638793945
1766150077003161900,1273.3941618652343,0.38307225704193115,-4.120420932769775,2.477998733520508
1766150077013141200,1273.4041413574218,0.6607996821403503,-4.807557106018066,1.4772224426269531
1766150077023150800,1273.4141508789062,0.5530605912208557,-5.78678560256958,0.7086837291717529
1766150077033160700,1273.4241606445312,-0.031124621629714966,-6.710947513580322,0.2801215946674347
1766150077043170600,1273.4341706542968,-0.6967126727104187,-7.568071365356445,0.2346317619085312
1766150077063159600,1273.4541596679687,-1.070208191871643,-8.147468566894531,0.4141969084739685
1766150077083179000,1273.474178955078,1.9919757843017578,-11.669339179992676,-0.27054479718208313
1766150077093188900,1273.4841889648437,3.885789394378662,-12.698845863342285,-0.9744400978088379
1766150077103198500,1273.494198486328,5.212177276611328,-12.770671844482422,-1.3694833517074585
1766150077113208300,1273.504208251953,5.631162166595459,-12.040440559387207,-1.7741034030914307
1766150077123218200,1273.5142182617187,5.073313236236572,-10.615890502929688,-2.0661959648132324
1766150077133227800,1273.524227783203,4.082113742828369,-9.876082420349121,-2.3319525718688965
1766150077143207200,1273.5342072753906,2.827552318572998,-10.6709566116333,-2.980781078338623
1766150077173206000,1273.5642060546875,3.555389642715454,-13.697227478027344,-6.715735912322998
1766150077193195000,1273.5841950683593,6.311115741729736,-13.66610336303711,-7.726089000701904
1766150077203204600,1273.5942045898437,6.722918510437012,-13.769054412841797,-7.790732383728027
1766150077213184000,1273.6041840820312,6.72531270980835,-14.305355072021484,-7.920019149780273
1766150077223163100,1273.6141630859374,6.236895561218262,-14.025233268737793,-8.135497093200684
1766150077233173000,1273.624173095703,5.829881191253662,-12.952630996704102,-8.49941635131836
1766150077243182600,1273.6341826171874,5.4659624099731445,-11.590330123901367,-8.619126319885254
1766150077253192400,1273.6441923828124,5.513846397399902,-11.535264015197754,-8.918401718139648
1766150154118140000,1350.509139892578,9.497797966003418,1.6879122257232666,-0.5386953949928284
1766150154137828900,1350.5288288574218,11.329362869262695,2.0590133666992188,-0.507570743560791
1766150154167566600,1350.5585666503907,9.619902610778809,0.10055647045373917,1.2210428714752197
1766150154197504300,1350.5885041503907,8.4108304977417,0.272938996553421,1.7405846118927002
1766150154217462800,1350.608462890625,7.94635534286499,0.7996633648872375,2.118868589401245
1766150154227442200,1350.618442138672,6.821080684661865,0.6224924325942993,2.008735179901123
1766150154267420200,1350.6584201660157,4.8482584953308105,2.1092917919158936,3.1052796840667725
1766150154307337000,1350.6983369140626,7.326257228851318,0.2849099934101105,-0.8667010068893433
1766150154317377300,1350.7083771972657,9.167398452758789,0.15083470940589905,-1.7405846118927002
1766150154337335800,1350.7283356933594,8.149862289428711,-1.1204863786697388,-2.142810583114624
1766150154357355500,1350.74835546875,8.437167167663574,-3.24414324760437,-2.8203697204589844
1766150154397333500,1350.7883334960939,6.7708024978637695,-4.347870349884033,-1.4724340438842773
1766150154447260200,1350.8382602539064,9.071630477905273,-5.099649429321289,2.671929121017456
1766150154487207700,1350.878207763672,2.123656988143921,-6.5265936851501465,2.1571757793426514
1766150154567072300,1350.958072265625,3.2824504375457764,-6.476315498352051,2.4229321479797363
1766150154577051400,1350.968051513672,2.808398485183716,-7.331045627593994,2.406172752380371
1766150154627008800,1351.0180087890626,1.9800047874450684,-12.255918502807617,8.549694061279297
1766150154636988000,1351.0279877929688,2.47560453414917,-9.5408935546875,8.24084186553955
1766150154656977000,1351.0479768066407,-0.950498104095459,-2.6647465229034424,6.691793918609619
1766150154666986800,1351.0579868164064,-1.9273324012756348,-6.129156112670898,3.7038300037384033
1766150154676996600,1351.0679965820314,-2.3989901542663574,-12.36605167388916,4.8267107009887695
1766150154696955000,1351.0879548339844,-1.0821791887283325,-14.767436027526855,8.62630844116211
1766150154706964700,1351.09796484375,-0.17717093229293823,-11.741165161132812,8.848969459533691
1766150154716944100,1351.107944091797,-0.07182604819536209,-9.66539192199707,9.011775016784668
1766150154726953700,1351.1179536132813,-1.0079588890075684,-9.47146224975586,9.3828763961792
1766150154736963600,1351.127963623047,-2.1978771686553955,-10.038887977600098,8.741230010986328
1766150154746942700,1351.1379426269532,-3.0310592651367188,-10.742782592773438,6.916848659515381
1766150154756952600,1351.1479526367189,-4.240131378173828,-12.02607536315918,5.631162166595459
1766150154766931700,1351.157931640625,-5.224148273468018,-12.78264331817627,5.9519853591918945
1766150154776911000,1351.1679111328126,-5.612008571624756,-12.210428237915039,6.88332986831665
1766150154786890200,1351.1778901367188,-4.774038314819336,-11.24795913696289,7.225700855255127
1766150154836817200,1351.227817138672,-2.47560453414917,-9.720458984375,4.99669885635376
1766150154846826800,1351.2378266601563,-2.03507137298584,-9.746794700622559,4.778826713562012
1766150154856806100,1351.2478061523439,-1.4460978507995605,-10.101137161254883,4.326322555541992
1766150154866815700,1351.2578156738282,0.5434837937355042,-9.715670585632324,3.6583402156829834
1766150154876795100,1351.2677951660157,1.9823989868164062,-9.255983352661133,3.3638534545898438
1766150154886774300,1351.277774169922,3.361459255218506,-9.2033109664917,3.1914708614349365
1766150154896784100,1351.2877841796876,4.153939723968506,-9.08838939666748,2.983175277709961
1766150154916803600,1351.307803466797,3.6822822093963623,-8.669404029846191,3.220201253890991
1766150154926813400,1351.3178134765626,3.488351821899414,-7.972691535949707,3.1435868740081787
1766150154936792600,1351.3277924804688,3.0526070594787598,-7.3454108238220215,3.40216064453125
1766150154946802400,1351.3378024902345,2.9233202934265137,-7.939172744750977,3.3901896476745605
1766150154956781600,1351.3477814941407,2.9759926795959473,-7.694964408874512,2.8562827110290527
1766150154966761000,1351.3577609863282,5.5329999923706055,-8.343792915344238,2.762908697128296
1766150154976770600,1351.3677705078126,6.1315507888793945,-5.789179801940918,2.5474305152893066
1766150154986780400,1351.3777805175782,4.912901878356934,-10.249577522277832,3.5889084339141846
1766150391840964600,1588.2319645996095,11.135432243347168,0.45250412821769714,1.2880805730819702
1766150391870202400,1588.261202392578,10.409989356994629,0.6512228846549988,1.381454348564148
1766150391879951000,1588.270951171875,10.15141487121582,0.7924807667732239,1.4628572463989258
1766150391889961000,1588.2809609375,9.99100399017334,0.7924807667732239,1.680729627609253
1766150391899909600,1588.2909096679687,9.916783332824707,0.8259995579719543,1.8100165128707886
1766150391909919500,1588.3009194335937,9.885659217834473,0.7589619159698486,1.946485996246338
1766150391919868200,1588.3108681640624,9.763554573059082,0.9241618514060974,2.0183119773864746
1766150391929878000,1588.3208779296874,9.44752025604248,0.9217676520347595,1.965639591217041
1766150391949867000,1588.3408669433593,9.3828763961792,0.9744400978088379,1.922544002532959
1766150391959846100,1588.3508461914062,9.102754592895508,0.9600749015808105,2.075772762298584
1766150391969856000,1588.3608559570312,8.80587387084961,0.8403648138046265,2.1068975925445557
1766150392069801000,1588.4608010253905,6.9455790519714355,-8.018181800842285,-3.6511576175689697
1766150392089759500,1588.4807595214843,7.103596210479736,-5.647922039031982,-4.584896087646484
1766150392109748500,1588.5007485351562,8.35336971282959,-2.9759926795959473,-3.9887399673461914
1766150392119727900,1588.510727783203,8.588001251220703,-2.6671407222747803,-2.2697031497955322
1766150392129707000,1588.52070703125,9.53849983215332,-2.6408045291900635,-0.304063618183136
1766150392139716900,1588.530716796875,10.766724586486816,-3.35667085647583,1.4532804489135742
1766150392169715700,1588.5607158203125,11.745953559875488,-6.3302693367004395,6.382941722869873
1766150392179694800,1588.5706948242187,11.745953559875488,-6.3302693367004395,6.382941722869873
1766150392199683800,1588.5906838378905,11.868058204650879,-8.38449478149414,8.439560890197754
1766150392219672800,1588.6106728515624,11.54005241394043,-7.91283655166626,9.873687744140625
1766150392229682700,1588.6206826171874,10.682928085327148,-7.036558628082275,10.369287490844727
1766150392239692300,1588.6306923828124,9.370905876159668,-6.366182327270508,10.781089782714844
1766150392279701000,1588.6707009277343,4.01268196105957,-8.597578048706055,15.0355863571167
1766150392329719300,1588.7207192382812,2.6599581241607666,-11.978191375732422,9.05487060546875
1766150392379707100,1588.77070703125,0.8236053586006165,-8.810662269592285,7.73087739944458
1766150392389716700,1588.780716796875,1.8483237028121948,-7.350199222564697,6.840234279632568
1766150392399696100,1588.7906960449218,2.655169725418091,-6.387730121612549,5.767632007598877
1766150392409705700,1588.8007058105468,3.8331170082092285,-5.762843608856201,4.699818134307861
1766150392419685000,1588.8106850585937,3.9217023849487305,-4.517858505249023,3.912125587463379
1766150392429664300,1588.8206643066405,4.417302131652832,-3.421314239501953,3.581725835800171
1766150392439643600,1588.8306435546874,4.412513732910156,-2.80361008644104,3.469198226928711
1766150392449622800,1588.8406228027343,5.0876784324646,-2.31758713722229,2.827552318572998
1766150392459632600,1588.8506325683593,5.825092792510986,-1.889025092124939,1.800439715385437
1766150392469642200,1588.8606423339843,6.210559368133545,-2.2625205516815186,0.7876923680305481
1766150392489631500,1588.8806315917968,7.137115478515625,-5.588066577911377,-0.8619126081466675
1766150392499580200,1588.890580078125,7.632715225219727,-6.624756336212158,-0.9600749015808105
1766150392509589800,1588.90058984375,8.655038833618164,-7.156269073486328,-1.501164436340332
1766150392519569200,1588.9105690917968,10.007762908935547,-7.096413612365723,-2.31758713722229
1766150392529548300,1588.9205483398437,10.38604736328125,-6.368576526641846,-3.251325845718384
1766150392549568000,1588.9405681152343,10.232817649841309,-6.476315498352051,-4.137180328369141
1766150392559577600,1588.9505776367187,10.474632263183594,-5.849034786224365,-4.278438568115234
1766150563147270000,1759.5382697753905,3.8283286094665527,-2.4372973442077637,4.594472885131836
1766150563157149200,1759.5481491699218,3.641580820083618,-2.070984363555908,4.699818134307861
1766150563176768800,1759.5677687988282,4.663905143737793,-1.5418659448623657,4.802768707275391
1766150563196727300,1759.587727294922,3.885789394378662,-1.647210717201233,5.329493045806885
1766150563226665000,1759.6176650390626,2.4013843536376953,-4.050989151000977,6.057330131530762
1766150563236674600,1759.627674560547,1.8267759084701538,-4.69024133682251,7.053318023681641
1766150563246654000,1759.6376540527344,2.557007312774658,-3.4739866256713867,7.881711959838867
1766150563256633000,1759.6476330566406,2.719813108444214,-2.612074136734009,8.17380428314209
1766150563266612500,1759.6576125488282,3.354276657104492,-2.3582887649536133,8.712499618530273
1766150563306621000,1759.6976208496094,4.580107688903809,-3.866635799407959,8.731653213500977
1766150563316630800,1759.707630859375,4.642356872558594,-4.28322696685791,9.2033109664917
1766150563346568400,1759.737568359375,3.4787750244140625,-5.228936672210693,9.016563415527344
1766150563376567300,1759.7675673828126,0.6153098344802856,-4.443638324737549,9.962273597717285
1766150563406505000,1759.7975048828125,-0.8978256583213806,-5.2265424728393555,8.813055992126465
1766150563416484400,1759.807484375,-1.1635819673538208,-3.885789394378662,8.937555313110352
1766150563456401200,1759.847401123047,1.7094600200653076,-3.5649664402008057,7.757213592529297
1766150563486278000,1759.8772778320313,0.4692635238170624,-3.9049429893493652,7.785943984985352
1766150563576182800,1759.9671828613282,-2.2409727573394775,-5.537788391113281,8.825027465820312
1766150563606120400,1759.9971203613281,3.2992098331451416,-1.9512743949890137,7.879317760467529
1766150563616130300,1760.0071303710938,3.098097085952759,-1.900996208190918,8.04691219329834
1766150563626170600,1760.017170654297,1.6687586307525635,-1.2713210582733154,8.734047889709473
1766150563636180200,1760.0271801757813,0.4213795065879822,-3.1866824626922607,8.62391471862793
1766150563666209500,1760.0572094726563,0.2849099934101105,-4.41969633102417,9.615114212036133
1766150563686229200,1760.077229248047,1.5131354331970215,-3.6990416049957275,9.174580574035645
1766150563716227800,1760.1072277832031,2.5546131134033203,-2.4181437492370605,8.877699851989746
1766150563726237700,1760.1172377929688,1.644816517829895,-3.1316158771514893,8.592789649963379
1766150563736247600,1760.1272475585938,0.5123591423034668,-3.354276657104492,8.971074104309082
1766150563746196200,1760.1371962890626,1.0654197931289673,-3.488351821899414,8.638279914855957
1766150563766185200,1760.1571853027344,3.3446998596191406,-3.0142998695373535,9.124302864074707
1766150563776095000,1760.1670949707031,3.0597896575927734,-2.9712042808532715,9.361329078674316
1766150563786043600,1760.177043701172,2.4181437492370605,-2.4444799423217773,9.071630477905273
1766150563796023000,1760.1870229492188,1.9345149993896484,-2.736572504043579,8.56645393371582
1766150563805971700,1760.1969716796875,1.8818424940109253,-2.6144683361053467,7.920019149780273
1766150563816012000,1760.2070119628906,1.2186486721038818,-3.028665065765381,7.666234016418457
1766150563825991200,1760.2169912109375,-1.6304513216018677,-4.862623691558838,7.9176249504089355
1766150563835970300,1760.2269702148437,4.0078935623168945,-4.666299343109131,8.588001251220703
1766150563845919200,1760.2369191894531,9.528923034667969,0.2777273952960968,9.84495735168457
1766150563855959600,1760.2469594726563,2.8371291160583496,-1.1683704853057861,10.802638053894043
1766150563885927700,1760.276927734375,2.695871114730835,-3.160346269607544,8.844181060791016
1766150563895968000,1760.2869680175781,2.9735984802246094,-1.6376339197158813,7.869740962982178
1766150563905977900,1760.2969777832031,2.0470423698425293,-1.599326729774475,8.401253700256348
1766150563915987500,1760.3069875488281,3.136404275894165,-2.63362193107605,9.174580574035645
1766150563925997300,1760.3169973144531,4.036623954772949,-3.00711727142334,9.567230224609375
1766150563936007200,1760.3270070800781,3.1531636714935303,-3.0406360626220703,9.437943458557129
1766150563946016800,1760.3370168457031,2.9328970909118652,-2.6001031398773193,8.425195693969727
1766150563955996200,1760.34699609375,2.9688100814819336,-2.1475989818573,7.603984832763672
1766150563965975300,1760.356975341797,3.442862033843994,-1.800439715385437,7.924807548522949
1766150563985994800,1760.376994873047,4.60165548324585,-3.469198226928711,9.50498104095459
1766150563995974100,1760.3869741210938,3.466804027557373,-4.714183330535889,10.160991668701172
1766150564005953300,1760.3969533691406,2.073378562927246,-5.604825973510742,10.278307914733887
1766150564015963100,1760.4069631347656,-0.5195417404174805,-5.779603004455566,9.301473617553711
1766150564025942300,1760.4169423828125,-0.7350199222564697,-4.244919776916504,8.899248123168945
1766150564035921700,1760.4269216308594,-3.890577793121338,-5.494692802429199,7.089231014251709
1766150564045900800,1760.4369008789063,-0.6200982332229614,-7.465120792388916,5.353435039520264
1766150564055910700,1760.4469106445313,12.507309913635254,0.1364694982767105,10.795455932617188
1766150564075838700,1760.466838623047,-0.950498104095459,-1.1971008777618408,5.5114521980285645
1766150564095827700,1760.4868276367188,3.162740468978882,-2.3247697353363037,5.664681434631348
1766150564105837300,1760.4968374023438,3.162740468978882,-2.3247697353363037,5.664681434631348
1766150564115847200,1760.5068471679688,6.655880928039551,4.285621166229248,-0.05027823522686958
1766150564125857000,1760.5168569335938,1.9488801956176758,3.6176388263702393,-1.278503656387329
1766150564145876500,1760.5368764648438,3.2632968425750732,-3.1507694721221924,3.734954595565796
1766150564155855600,1760.5468557128906,6.133944988250732,-1.1204863786697388,5.468356609344482
1766150564165835000,1760.5568349609375,3.9480385780334473,3.0119056701660156,4.764461517333984
1766150564175875300,1760.5668752441406,1.50355863571167,1.2976573705673218,3.8163576126098633
1766150564185885000,1760.5768850097656,2.738966703414917,-2.5019407272338867,3.423708438873291
1766150564195894800,1760.5868947753906,2.7916390895843506,-1.6543933153152466,4.2090067863464355
1766150564205843500,1760.5968435058594,3.423708438873291,-1.0319008827209473,4.649539470672607
1766150564215853300,1760.6068532714844,4.228160381317139,-2.4133553504943848,4.158728122711182
1766150564225832400,1760.6168325195313,1.0965443849563599,0.24660277366638184,6.382941722869873
1766150564235842300,1760.6268422851563,0.033518824726343155,-0.9026140570640564,6.038176536560059
1766150564245821400,1760.6368215332031,2.3726539611816406,-2.185906171798706,4.5825018882751465
1766150564255861800,1760.6468618164063,5.171475887298584,-2.296039342880249,5.853823184967041
1766150564265841200,1760.6568410644531,3.1507694721221924,-2.403778553009033,7.702147006988525
1766150564275850800,1760.6668508300781,2.051830768585205,-3.931279182434082,6.696582317352295
1766150564295870200,1760.6868701171875,3.00711727142334,-4.230554580688477,8.516175270080566
1766150564305849600,1760.696849609375,6.370970726013184,-2.894589900970459,8.731653213500977
1766150564315890000,1760.7068898925781,6.124367713928223,-3.2417490482330322,7.675810813903809
1766150564325899500,1760.7168994140625,3.974374771118164,-2.542642116546631,7.292738437652588
1766150564345919200,1760.7369191894531,4.0749311447143555,-5.590460777282715,7.795520782470703
1766150564355928800,1760.7469287109375,2.7509377002716064,-4.230554580688477,7.841010570526123
1766150564365908200,1760.756908203125,3.912125587463379,-2.276885747909546,7.86734676361084
1766150564385927700,1760.776927734375,6.294356346130371,-2.784456491470337,7.8314337730407715
1766150564395937500,1760.7869375,3.3518824577331543,-3.0789434909820557,8.343792915344238
1766150564405916700,1760.796916748047,3.043030261993408,-5.509057998657227,8.085219383239746
1766150564415957000,1760.80695703125,3.138798475265503,-6.1315507888793945,7.805097579956055
1766150564425905700,1760.8169057617188,3.9839515686035156,-3.450044631958008,6.449979305267334
1766150564435885000,1760.8268850097656,5.5760955810546875,-2.456450939178467,7.103596210479736
1766150564445864200,1760.8368642578125,6.785167694091797,-2.7006595134735107,6.914454460144043
1766150564455874000,1760.8468740234375,5.95677375793457,-3.804386615753174,7.29034423828125
1766150564465883600,1760.8568835449219,3.4141316413879395,-2.671929121017456,7.1251444816589355
1766150564485873000,1760.8768728027344,2.22660756111145,-5.640739440917969,7.249642848968506
1766150564495882500,1760.8868825683594,4.072536945343018,-4.525041103363037,8.530540466308594
1766150564505862000,1760.8968618164063,4.721365928649902,-3.758896589279175,7.592013359069824
1766150564515841000,1760.9068410644531,6.555324077606201,-3.0358476638793945,5.702988624572754
1766150564525851000,1760.9168508300781,6.744466304779053,-2.9161376953125,5.188235282897949
1766150564535860500,1760.9268605957031,3.162740468978882,-4.699818134307861,5.978321552276611
1766150564545839900,1760.93683984375,2.942473888397217,-6.22731876373291,5.6910176277160645
1766150564555819000,1760.946819091797,3.0597896575927734,-6.244078159332275,6.62236213684082
1766150564565798400,1760.9567983398438,6.440402507781982,-4.867412090301514,6.325480937957764
1766150564575808000,1760.9668081054688,6.356605529785156,-4.359841346740723,7.778761386871338
1766150564595766500,1760.9867666015625,4.220977783203125,-7.225700855255127,6.998251438140869
1766150564605715200,1760.9967150878906,0.14604631066322327,-7.694964408874512,7.42681360244751
1766150564615694600,1761.0066945800781,0.9265560507774353,-3.7205893993377686,7.630321025848389
1766150564625673700,1761.016673828125,4.920084476470947,-3.1004912853240967,5.147533416748047
1766150564635653000,1761.026653076172,5.746084213256836,-3.7828385829925537,3.4308910369873047
1766150564645601800,1761.0366018066406,5.765237808227539,-4.752490520477295,3.294421434402466
1766150564655672600,1761.046672607422,4.388571739196777,-7.843404769897461,4.946420669555664
1766150564665621200,1761.0566213378906,5.015852451324463,-9.289502143859863,6.557718276977539
1766150564675661600,1761.0666616210938,5.2911858558654785,-9.17936897277832,8.133103370666504
1766150564685671400,1761.0766713867188,4.580107688903809,-7.618350028991699,9.569623947143555
1766150564695650600,1761.0866506347656,2.3127987384796143,-7.378929615020752,9.114726066589355
1766150564705630000,1761.0966298828125,2.5019407272338867,-6.845022678375244,5.822698593139648
1766150564715639600,1761.1066396484375,3.4141316413879395,-7.994239330291748,2.4875755310058594
1766150564725619000,1761.1166188964844,5.96874475479126,-7.41484260559082,1.1635819673538208
1766150564735659300,1761.1266591796875,4.505887508392334,-7.4100542068481445,3.0837318897247314
1766150564745668900,1761.1366689453125,4.505887508392334,-7.4100542068481445,3.0837318897247314
1766150564755678700,1761.1466787109375,2.7892448902130127,-7.405265808105469,6.598419666290283
1766150564765688300,1761.1566882324219,3.909731388092041,-8.291120529174805,7.395689010620117
1766150564775667700,1761.1666677246094,4.4723687171936035,-9.806650161743164,4.987122058868408
1766150564785677600,1761.1766774902344,5.623979568481445,-10.66137981414795,3.555389642715454
1766150564805666600,1761.1966665039063,4.659116744995117,-8.348581314086914,4.72376012802124
1766150564815707000,1761.2067067871094,0.9696516990661621,-6.4380083084106445,6.0190229415893555
1766150564825716500,1761.2167165527344,4.015076160430908,-5.990292549133301,5.2911858558654785
1766150564835695900,1761.2266958007813,3.9647979736328125,-7.927201747894287,2.1739351749420166
1766150564845705500,1761.2367055664063,4.177882194519043,-9.979032516479492,1.2617442607879639
1766150564865633500,1761.256633544922,4.766855716705322,-10.99656867980957,4.455609321594238
1766150564875643400,1761.266643310547,4.663905143737793,-10.093954086303711,4.441244125366211
1766150564885592000,1761.2765920410156,3.220201253890991,-9.437943458557129,3.359065055847168
1766150564895632400,1761.2866323242188,0.9313444495201111,-7.740454196929932,3.375824451446533
1766150564905581000,1761.2965810546875,2.382230758666992,-8.068459510803223,2.7126305103302
1766150564915560200,1761.3065603027344,4.2090067863464355,-7.067683219909668,1.2186486721038818
1766150564925539600,1761.3165395507813,2.609679937362671,-8.516175270080566,-0.16519992053508759
1766150564945467400,1761.3364672851562,2.5282769203186035,-11.097125053405762,2.1739351749420166
1766150564965487000,1761.356487060547,2.293645143508911,-8.166622161865234,1.3120225667953491
1766150564975496700,1761.3664965820312,2.4827871322631836,-9.05247688293457,0.3663128614425659
1766150564985476000,1761.3764760742188,3.8953661918640137,-9.832986831665039,0.43335050344467163
1766150564995455200,1761.3864553222656,1.7597382068634033,-11.08754825592041,0.9193734526634216
1766150565005434600,1761.3964345703125,2.849100112915039,-8.573636054992676,1.4676456451416016
1766150565015444200,1761.4064443359375,2.1164743900299072,-9.026140213012695,1.479616641998291
1766150565025454000,1761.4164541015625,3.2178070545196533,-8.070854187011719,0.5961562395095825
1766150565035433200,1761.4264331054687,4.1395745277404785,-9.308655738830566,-1.0342950820922852
1766150565045412600,1761.4364125976563,4.218583583831787,-10.405200958251953,-2.0685901641845703
1766150565055453000,1761.4464528808594,3.246537446975708,-10.967838287353516,-1.7525556087493896
1766150565065432000,1761.4564321289063,1.5729905366897583,-10.807426452636719,-0.19393034279346466
1766150565075442000,1761.4664418945313,1.8076223134994507,-10.299856185913086,0.5195417404174805
1766150565085421000,1761.4764211425781,0.3064578175544739,-10.979808807373047,-0.023942016065120697
1766150565095431000,1761.4864309082031,-0.5841852426528931,-11.923124313354492,-0.1364694982767105
1766150565105349000,1761.4963491210938,1.2401964664459229,-11.068394660949707,-0.5650315880775452
1766150565125368600,1761.5163686523438,2.1475989818573,-10.81700325012207,-2.765302896499634
1766150565135378400,1761.5263784179688,2.322375535964966,-10.94150161743164,-2.4157495498657227
1766150565145357600,1761.5363576660156,1.0055646896362305,-12.29662036895752,-2.2409727573394775
1766150565155337000,1761.5463369140625,1.1180921792984009,-8.305485725402832,-1.558625340461731
1766150565165316000,1761.5563161621094,1.8076223134994507,-7.307103633880615,-1.0534487962722778
1766150565175326000,1761.5663259277344,2.6815059185028076,-7.046135425567627,-0.9624691009521484
1766150565185335600,1761.5763354492187,2.4205379486083984,-8.942343711853027,-2.008735179901123
1766150565195315000,1761.5863149414063,2.2697031497955322,-10.642226219177246,-2.2577321529388428
1766150565205294000,1761.5962941894531,-0.2513911724090576,-9.255983352661133,-0.9265560507774353
1766150565215304000,1761.6063039550781,1.821987509727478,-10.553641319274902,-0.3016694188117981
1766150565225283000,1761.6162829589844,1.6280571222305298,-11.370063781738281,-0.10295066982507706
1766150565255251500,1761.6462514648438,1.8339585065841675,-9.988609313964844,-2.7772738933563232
1766150565265200000,1761.6562001953125,2.0398597717285156,-9.205705642700195,-2.647987127304077
1766150565275179500,1761.6661794433594,1.2018892765045166,-9.461885452270508,-1.6208745241165161
1766151087116445000,2283.507444824219,10.096348762512207,-0.9313444495201111,0.2753331959247589
1766151087165632800,2283.5566328125,11.027692794799805,0.6416460275650024,-0.5434837937355042
1766151087185552400,2283.5765524902345,9.75637149810791,0.011971008032560349,-0.44771572947502136
1766151087195531500,2283.5865314941407,10.94150161743164,0.1843535304069519,-1.4077905416488647
1766151087205480200,2283.5964802246094,10.96544361114502,-0.7924807667732239,-2.250549554824829
1766151087235479000,2283.6264790039063,8.853757858276367,0.9050082564353943,-0.19393034279346466
1766151087285436400,2283.6764365234376,7.309497833251953,1.0223240852355957,-1.7525556087493896
1766151087295446000,2283.686446044922,5.427655220031738,1.5849615335464478,-2.190694570541382
1766151087315435300,2283.7064353027345,9.627084732055664,2.8874073028564453,-0.24181437492370605
1766151087335454700,2283.7264548339845,8.17141056060791,2.451662540435791,1.4628572463989258
1766151087345464300,2283.736464355469,8.892065048217773,1.6496049165725708,1.2018892765045166
1766151087435491300,2283.8264912109375,8.001421928405762,3.1459810733795166,0.38546648621559143
1766151087505529000,2283.8965290527344,10.029311180114746,1.7142484188079834,-3.3734302520751953
1766151087585576700,2283.9765766601563,10.63504409790039,-0.6153098344802856,-5.542576789855957
1766151087675634200,2284.066634277344,8.911218643188477,-3.28963303565979,-7.208941459655762
1766151087685613300,2284.07661328125,8.554482460021973,-3.821146011352539,-8.360552787780762
1766151087695653600,2284.086653564453,10.433931350708008,-2.0231003761291504,-8.968679428100586
1766151087705633000,2284.0966330566407,7.000645637512207,-1.1659762859344482,-8.38688850402832
1766151087715642600,2284.106642578125,7.632715225219727,-0.43335050344467163,-7.8745293617248535
1766151087725622000,2284.1166220703126,4.039018154144287,-2.4181437492370605,-7.405265808105469
1766151087735631600,2284.126631591797,6.847416877746582,-0.42856210470199585,-8.274360656738281
1766151087775640300,2284.1666403808595,5.365406036376953,-0.09816227108240128,-10.139444351196289
1766151087795598600,2284.1865986328125,8.101978302001953,-0.17477671802043915,-9.655815124511719
1766151087805578000,2284.1965778808594,6.845022678375244,-1.5466543436050415,-9.909601211547852
1766151087815618300,2284.206618408203,4.235342979431152,-0.7996633648872375,-9.880870819091797
1766151087825597400,2284.2165974121094,5.935225963592529,-1.3742717504501343,-10.213664054870605
1766151087835607300,2284.2266071777344,6.964732646942139,-1.2425906658172607,-10.599130630493164
1766151087845617200,2284.2366171875,4.967968463897705,0.395043283700943,-11.068394660949707
1766151087855596300,2284.2465961914063,4.513070106506348,1.1994950771331787,-10.867281913757324
1766151087865606100,2284.256606201172,4.2544965744018555,1.434126853942871,-10.579977035522461
1766151087895574300,2284.28657421875,7.026981830596924,-0.35434186458587646,-9.579200744628906
1766151087905553700,2284.2965537109376,3.3638534545898438,-0.5770025849342346,-8.947132110595703
1766151087915563300,2284.306563232422,4.730942726135254,-0.08619125932455063,-9.852140426635742
1766151087925542700,2284.3165427246095,1.4053963422775269,-2.4396915435791016,-10.500968933105469
1766151087935552300,2284.326552246094,5.142745018005371,-1.7980455160140991,-10.6709566116333
1766151088015599900,2284.4065998535157,4.6734819412231445,-1.3742717504501343,-9.720458984375
1766151088035588900,2284.4265888671875,1.2090718746185303,-2.7102363109588623,-10.034099578857422
1766151092778985200,2289.169985107422,7.46033239364624,-0.20350714027881622,2.9712042808532715
1766151092788995000,2289.1799951171874,6.868964672088623,1.0869675874710083,2.892195701599121
1766151092798713300,2289.189713378906,4.54419469833374,0.2585737705230713,2.276885747909546
1766151092848331500,2289.2393315429686,9.102754592895508,-7.29034423828125,-1.9488801956176758
1766151092888309500,2289.2793095703123,6.586448669433594,3.840299606323242,2.205059766769409
1766151092898258400,2289.2892585449217,1.8722656965255737,0.950498104095459,1.292868971824646
1766151092908298800,2289.299298828125,0.2106897532939911,0.15322890877723694,0.4213795065879822
1766151092918278000,2289.309277832031,1.2066776752471924,1.7525556087493896,3.1483752727508545
1766151092938236400,2289.329236328125,5.137956619262695,1.5155296325683594,2.346317768096924
1766151092948246300,2289.3392463378905,7.2113356590271,0.4668693244457245,-0.9864110946655273
1766151092958225400,2289.3492253417967,6.320692539215088,-0.08858546614646912,-3.4093432426452637
1766151092978214400,2289.3692143554686,5.061342239379883,-0.6248866319656372,0.47405192255973816
1766151092988224300,2289.379224365234,5.4875102043151855,0.3758896589279175,3.4548330307006836
1766151092998203400,2289.3892033691404,4.529829502105713,1.5275006294250488,3.778050184249878
1766151093018253600,2289.409253662109,5.343858242034912,1.0414776802062988,1.070208191871643
1766151093088230400,2289.47923046875,9.160215377807617,-0.12449848651885986,1.6184803247451782
1766151093098209500,2289.489209472656,8.039729118347168,-1.0893617868423462,1.6496049165725708
1766151093108188700,2289.499188720703,7.161057472229004,-0.3495534360408783,2.0661959648132324
1766151093118168000,2289.50916796875,6.392518520355225,0.15083470940589905,2.0901381969451904
1766151093128178000,2289.5191779785155,6.646304130554199,0.30885201692581177,2.3295583724975586
1766151093138157000,2289.5291569824217,7.850587368011475,0.05027823522686958,2.7700912952423096
1766151093148136200,2289.5391362304686,8.980650901794434,-0.38067805767059326,2.4444799423217773
1766151093158115600,2289.5491154785154,7.833827972412109,-0.22026655077934265,1.3287819623947144
1766151093168156000,2289.559156005859,9.035717010498047,-1.1348515748977661,-0.12449848651885986
1766151093178135000,2289.5691350097654,8.571242332458496,-1.644816517829895,-1.5059528350830078
1766151093188114400,2289.579114501953,6.555324077606201,-0.8667010068893433,-1.2186486721038818
1766151093198063000,2289.589062988281,6.72531270980835,1.3455413579940796,0.9864110946655273
1766151093208072700,2289.599072753906,7.436390399932861,1.7094600200653076,2.5689783096313477
1766151093218082600,2289.609082519531,7.4986395835876465,0.5219359993934631,2.382230758666992
1766151093228062000,2289.6190620117186,7.94635534286499,0.33039984107017517,0.7996633648872375
1766151093248051000,2289.6390510253905,10.189722061157227,0.4836287498474121,-0.8954314589500427
1766151093258030000,2289.6490300292967,9.667786598205566,-1.5298948287963867,-1.1348515748977661
1766151093268040000,2289.6590400390623,8.999804496765137,-3.4811692237854004,-1.094150185585022
1766151093278019000,2289.6690190429686,9.691728591918945,-2.9472622871398926,-0.7374141216278076
1766151093288059400,2289.6790593261717,11.195286750793457,-2.4372973442077637,-1.2449848651885986
1766151093298038500,2289.6890385742186,10.975020408630371,-1.3551181554794312,-2.1547815799713135
1766151093308018000,2289.6990178222654,11.027692794799805,0.6224924325942993,-2.628833532333374
1766151093317966600,2289.708966552734,9.361329078674316,0.4429273009300232,-1.7621324062347412
1766151093327946000,2289.7189460449217,7.690176010131836,1.9752163887023926,0.0071826050989329815
1766151093337894700,2289.7288947753905,7.943961143493652,2.427720546722412,1.280897855758667
1766151093357883600,2289.7488835449217,12.440272331237793,-2.4899697303771973,-1.86508309841156
1766151093367893200,2289.7588933105467,11.338939666748047,-3.6583402156829834,-3.8810009956359863
1766151093377903000,2289.7689030761717,11.647790908813477,-1.9369091987609863,-4.292803764343262
1766151093387913000,2289.7789128417967,10.103530883789062,-0.6799532771110535,-3.7684733867645264
1766151093397922600,2289.7889226074217,10.101137161254883,-0.3663128614425659,-3.0382418632507324
1766151093407932400,2289.7989323730467,8.942343711853027,0.19393034279346466,-1.800439715385437
1766151093417911800,2289.808911865234,9.17697525024414,-0.31603461503982544,-1.3862427473068237
1766151093427891000,2289.8188908691404,10.053253173828125,-1.4484920501708984,-1.6376339197158813
1766151093437870000,2289.8288701171873,9.078812599182129,-1.434126853942871,-1.8195933103561401
1766151093447849500,2289.838849365234,10.54406452178955,0.4644751250743866,-2.760514497756958
1766151093467808000,2289.8588081054686,9.768342971801758,1.036689281463623,-4.127603530883789
1766151093477787100,2289.868787109375,8.339004516601562,0.5051765441894531,-3.445256233215332
1766151093487827500,2289.878827392578,8.44195556640625,0.7374141216278076,-3.0119056701660156
1766151093497806600,2289.888806640625,11.118672370910645,-0.3687070608139038,-3.713406801223755
1766151093507816400,2289.89881640625,10.031704902648926,-1.4772224426269531,-3.708618402481079
1766151093517795800,2289.9087958984373,10.81460952758789,-2.6791117191314697,-3.823540210723877
1766151093527805400,2289.9188054199217,11.860875129699707,-2.492363929748535,-4.235342979431152
1766151093537784800,2289.928784912109,10.225635528564453,-2.4875755310058594,-4.163516521453857
1766151093547764000,2289.9387639160154,11.501745223999023,-1.8531121015548706,-3.5865142345428467
1766151093567783400,2289.9587834472654,10.213664054870605,-1.525106430053711,-4.271255970001221
1766151093577732400,2289.968732421875,8.398859977722168,-1.577778935432434,-4.67827033996582
1766151093587742000,2289.978741943359,7.939172744750977,-0.05746084079146385,-4.750096321105957
1766151093597690600,2289.988690673828,8.346187591552734,-0.26096799969673157,-4.5154643058776855
1766151093607731000,2289.998730957031,8.14028549194336,-1.1851298809051514,-4.347870349884033
1766151093617710300,2290.0087104492186,7.8098859786987305,-3.1316158771514893,-4.833893299102783
1766151093627689500,2290.018689453125,9.38048267364502,-2.231395959854126,-5.4228668212890625
1766151093637668900,2290.0286689453123,9.239224433898926,-0.828393816947937,-5.200206279754639
