time,seconds_elapsed,z,y,x
1766148802904412200,-0.704587890625,0.051312681287527084,-0.0012217304902151227,0.2125810980796814
1766148802934411000,-0.674589111328125,-0.009773843921720982,0.01466076634824276,0.10751228034496307
1766148802944420600,-0.664579345703125,0.028099801391363144,0.03420845419168472,0.0012217304902151227
1766148802954430500,-0.654569580078125,0.02932153269648552,0.019547687843441963,-0.0012217304902151227
1766148802964440300,-0.6445595703125,0.02321287989616394,-0.015882495790719986,0.06475171446800232
1766148802974450000,-0.634550048828125,0.013439035043120384,-0.03298672288656235,0.09040805697441101
1766148803004448800,-0.60455126953125,0.00855211354792118,-0.0354301854968071,-0.09529497474431992
1766148803014458600,-0.594541259765625,-0.010995574295520782,-0.03420845419168472,-0.09896016865968704
1766148803034447600,-0.574552490234375,-0.02076941914856434,-0.02932153269648552,-0.07208210229873657
1766148803114434000,-0.49456591796875,0.028099801391363144,0.00733038317412138,0.018325956538319588
1766148803124413400,-0.484586669921875,0.02687807008624077,0.004886921960860491,0.021991148591041565
1766148803144433000,-0.464567138671875,0.018325956538319588,0.015882495790719986,0.012217304669320583
1766148803174431700,-0.434568359375,0.013439035043120384,0.019547687843441963,-0.0354301854968071
1766148803184441300,-0.42455859375,0.012217304669320583,0.02076941914856434,-0.03787364438176155
1766148803194420700,-0.414579345703125,0.012217304669320583,0.02076941914856434,-0.04153883829712868
1766148803204430600,-0.4045693359375,0.00733038317412138,0.015882495790719986,-0.02932153269648552
1766148803214409700,-0.39459033203125,0,0.00855211354792118,-0.004886921960860491
1766148803224450000,-0.384550048828125,0.00366519158706069,0.00366519158706069,0.006108652334660292
1766148803254479400,-0.354520751953125,0.00733038317412138,0,0.00855211354792118
1766148803264489000,-0.344510986328125,0.004886921960860491,0.0024434609804302454,0.004886921960860491
1766148803274498800,-0.334501220703125,0.00366519158706069,0.0024434609804302454,-0.00366519158706069
1766148803284478000,-0.32452197265625,0.00366519158706069,-0.00366519158706069,-0.0024434609804302454
1766148803294487800,-0.31451220703125,0.0024434609804302454,-0.00366519158706069,-0.0024434609804302454
1766148803304497700,-0.30450244140625,-0.00366519158706069,-0.006108652334660292,-0.006108652334660292
1766148803324486700,-0.284513427734375,-0.004886921960860491,-0.018325956538319588,0.009773843921720982
1766148803334465800,-0.2745341796875,-0.0012217304902151227,-0.02932153269648552,0.01710422709584236
1766148803404503800,-0.20449609375,0.012217304669320583,-0.0024434609804302454,0.025656340643763542
1766148803424523300,-0.184476806640625,0.01710422709584236,-0.0012217304902151227,0.00855211354792118
1766148803434502400,-0.17449755859375,0.00733038317412138,-0.00366519158706069,0.0012217304902151227
1766148803464531700,-0.14446826171875,0,-0.024434609338641167,0.013439035043120384
1766148803494500000,-0.1145,0.021991148591041565,-0.030543262138962746,-0.00733038317412138
1766148803514489000,-0.094510986328125,0.024434609338641167,-0.00733038317412138,-0.01710422709584236
1766148803524499000,-0.0845009765625,0.03298672288656235,0.006108652334660292,-0.02687807008624077
1766148803534508500,-0.074491455078125,0.0403171069920063,0.010995574295520782,-0.025656340643763542
1766148803544518400,-0.064481689453125,0.02076941914856434,0.01466076634824276,-0.018325956538319588
1766148803564568300,-0.044431640625,0.00733038317412138,0,-0.04153883829712868
1766148803584588000,-0.024411865234375,0.018325956538319588,-0.010995574295520782,-0.02932153269648552
1766148803634636800,0.02563671875,0.025656340643763542,0,-0.02932153269648552
1766148803679619600,0.07061962890625,0.04764748737215996,-0.00366519158706069,0.01710422709584236
1766148803709679600,0.1006796875,0.025656340643763542,-0.012217304669320583,-0.019547687843441963
1766148803719628300,0.110628173828125,0.021991148591041565,-0.01466076634824276,-0.03298672288656235
1766148803729668600,0.120668701171875,0.015882495790719986,-0.009773843921720982,-0.042760565876960754
1766148803739617300,0.1306171875,0.01710422709584236,-0.00366519158706069,-0.04153883829712868
1766148803749627000,0.140626953125,0.013439035043120384,0,-0.0354301854968071
1766148803759636700,0.15063671875,0.013439035043120384,-0.0012217304902151227,-0.03176499158143997
1766148803769646600,0.160646484375,0.025656340643763542,-0.004886921960860491,-0.030543262138962746
1766148803779656200,0.17065625,0.0354301854968071,0,-0.02076941914856434
1766148803809685500,0.200685546875,0.05375614017248154,0.009773843921720982,0.013439035043120384
1766148803829705200,0.220705322265625,0.028099801391363144,0.021991148591041565,0.028099801391363144
1766148803839684400,0.230684326171875,0.036651913076639175,0.018325956538319588,0.015882495790719986
1766148803849724700,0.240724609375,0.04886921867728233,0.01710422709584236,0.00733038317412138
1766148803859734500,0.250734619140625,0.04642575979232788,0.01466076634824276,0.00855211354792118
1766148803869774600,0.260774658203125,0.03787364438176155,0.013439035043120384,0.0012217304902151227
1766148803879784400,0.270784423828125,0.03298672288656235,0.019547687843441963,0
1766148803889794300,0.280794189453125,0.02932153269648552,0.01466076634824276,0.0012217304902151227
1766148803909783300,0.300783203125,0.025656340643763542,0,-0.018325956538319588
1766148803919762400,0.310762451171875,0.025656340643763542,0,-0.018325956538319588
1766148803929802800,0.320802734375,0.021991148591041565,0.0012217304902151227,-0.02321287989616394
1766148803939812600,0.3308125,0.02076941914856434,0.004886921960860491,-0.03176499158143997
1766148803949822200,0.340822265625,0.02076941914856434,0.0012217304902151227,-0.04398229718208313
1766148803959832000,0.35083203125,0.025656340643763542,-0.006108652334660292,-0.05009094998240471
1766148803969842000,0.360842041015625,0.02687807008624077,-0.00733038317412138,-0.04886921867728233
1766148803979821000,0.370821044921875,0.02321287989616394,-0.00733038317412138,-0.05009094998240471
1766148803989831000,0.380830810546875,0.024434609338641167,-0.004886921960860491,-0.05253441259264946
1766148804009820000,0.40081982421875,0.045204028487205505,-0.012217304669320583,-0.0757472887635231
1766148804029839400,0.42083935546875,0.12950342893600464,-0.00855211354792118,-0.09285151958465576
1766148804039818800,0.43081884765625,0.1661553531885147,0.0012217304902151227,-0.09896016865968704
1766148804049828400,0.440828369140625,0.10751228034496307,0.03176499158143997,-0.16249015927314758
1766148804059807700,0.450807861328125,-0.06963863968849182,-0.00366519158706069,-0.37629300355911255
1766148804069787000,0.460786865234375,0.0403171069920063,-0.028099801391363144,-0.42638394236564636
1766148804079766300,0.470766357421875,0.05864306539297104,-0.06352998316287994,-0.4703662395477295
1766148804089745400,0.480745361328125,0.14782938361167908,-0.24434609711170197,-0.6194173693656921
1766148804099724500,0.490724609375,0.4996877610683441,-0.3628539443016052,-0.7354817390441895
1766148804119744300,0.510744140625,0.7415903806686401,-0.4105014503002167,-0.9480628371238708
1766148804129723400,0.520723388671875,0.9028588533401489,-0.40194934606552124,-1.1215485334396362
1766148804139702800,0.530702880859375,0.9492846131324768,-0.4495968222618103,-1.3170254230499268
1766148804149712400,0.54071240234375,1.0726794004440308,-0.4813618063926697,-1.3487904071807861
1766148804159691800,0.55069189453125,1.2290608882904053,-0.5302310585975647,-1.3573426008224487
1766148804169671000,0.5606708984375,1.359786033630371,-0.607200026512146,-1.5027284622192383
1766148804179680800,0.5706806640625,1.5234979391098022,-0.6902777552604675,-1.7201964855194092
1766148804189690400,0.5806904296875,1.6896532773971558,-0.8014551997184753,-1.9608774185180664
1766148804199669800,0.590669677734375,1.8558086156845093,-0.9443976879119873,-2.2565362453460693
1766148804219658800,0.61065869140625,2.2101104259490967,-1.302364706993103,-3.1386256217956543
1766148804229699000,0.620698974609375,2.3823745250701904,-1.4880677461624146,-3.6554176807403564
1766148804239678200,0.63067822265625,2.5338690280914307,-1.6713273525238037,-4.1526618003845215
1766148804249718500,0.640718505859375,2.618168354034424,-1.86191725730896,-4.552167892456055
1766148804269707500,0.66070751953125,2.682920217514038,-2.2259929180145264,-5.018868923187256
1766148804279717400,0.67071728515625,2.6450464725494385,-2.415361166000366,-5.325523376464844
1766148804289727000,0.68072705078125,2.643824815750122,-2.602285861968994,-5.745798587799072
1766148804299706400,0.690706298828125,2.6083946228027344,-2.7598891258239746,-6.188065052032471
1766148804309716200,0.70071630859375,2.5192081928253174,-2.872288465499878,-6.57657527923584
1766148804329735700,0.720735595703125,2.269975185394287,-2.961474657058716,-6.943094253540039
1766148804349694200,0.740694091796875,1.863139033317566,-2.897944688796997,-7.042054653167725
1766148804359673300,0.75067333984375,1.6786576509475708,-2.847853660583496,-6.962642192840576
1766148804369683200,0.76068310546875,1.5234979391098022,-2.772106409072876,-6.816034317016602
1766148804379662300,0.770662353515625,1.3585642576217651,-2.7122416496276855,-6.647435665130615
1766148804389672200,0.780672119140625,1.1899654865264893,-2.630385637283325,-6.421415328979492
1766148804399651300,0.7906513671875,1.0726794004440308,-2.4715607166290283,-6.107430934906006
1766148804409661200,0.8006611328125,1.0054842233657837,-2.283414363861084,-5.820323944091797
1766148804419640300,0.810640380859375,0.911410927772522,-2.0916025638580322,-5.629734039306641
1766148804429680600,0.8206806640625,0.7855727076530457,-1.910786509513855,-5.475796222686768
1766148804449700400,0.840700439453125,0.5485569834709167,-1.6004669666290283,-4.81850528717041
1766148804459710000,0.8507099609375,0.45204028487205505,-1.4074335098266602,-4.186870574951172
1766148804469719800,0.8607197265625,0.3274237811565399,-1.2278391122817993,-3.5271358489990234
1766148804479699000,0.870698974609375,0.19058994948863983,-1.0873401165008545,-2.995683193206787
1766148804489708800,0.880708740234375,0.07941248267889023,-0.9932668805122375,-2.6010642051696777
1766148804499718700,0.89071875,-0.013439035043120384,-0.9248499870300293,-2.328618288040161
1766148804509728300,0.900728271484375,-0.0708603709936142,-0.8527678847312927,-2.1343631744384766
1766148804519738000,0.910738037109375,-0.16371189057826996,-0.7684684991836548,-1.9168951511383057
1766148804539727000,0.93072705078125,-0.2919935882091522,-0.5400048494338989,-1.5833626985549927
1766148804589745400,0.980745361328125,-0.4813618063926697,-0.18081611394882202,-1.2327260971069336
1766148804599755300,0.99075537109375,-0.504574716091156,-0.08674286305904388,-1.1459832191467285
1766148804609764900,1.000764892578125,-0.5094616413116455,0,-1.0812314748764038
1766148804619713800,1.0107138671875,-0.5057964324951172,0.08796459436416626,-1.0506882667541504
1766149067137329700,263.52832958984374,0.09651670604944229,-0.045204028487205505,-0.49357911944389343
1766149067147309000,263.5383090820313,0.13927727937698364,-0.21135938167572021,0.004886921960860491
1766149067186356500,263.5773564453125,-1.4648548364639282,-1.2620476484298706,-2.0280725955963135
1766149067196335600,263.58733569335936,-1.4196507930755615,-1.2082914113998413,-1.8399261236190796
1766149067236313600,263.6273137207031,-1.3842206001281738,-0.6988298296928406,-1.529606580734253
1766149067246262500,263.63726245117186,-1.4587461948394775,-0.5448917746543884,-1.8484781980514526
1766149067326027000,263.71702709960937,-1.1948524713516235,-0.045204028487205505,-1.7482963800430298
1766149067385994000,263.7769938964844,-0.7953465580940247,-0.1661553531885147,-1.7446311712265015
1766149067396003800,263.78700390625,-0.7867944240570068,-0.17470745742321014,-1.6774359941482544
1766149067405922000,263.7969221191406,-0.7330383062362671,-0.0806342139840126,-1.4685200452804565
1766149067415962400,263.80696240234374,-0.49357911944389343,0.07819075137376785,-1.2877039909362793
1766149067465919500,263.85691943359376,-0.1771509200334549,0.21868975460529327,-2.2345449924468994
1766149067545875700,263.93687573242187,0.02687807008624077,0.13561208546161652,-1.2791517972946167
1766149067575783000,263.96678295898437,0.18936823308467865,0.44104471802711487,-0.7305948138237
1766149067585792500,263.97679248046876,0.21135938167572021,0.4691445231437683,-0.6988298296928406
1766149067595802400,263.98680224609376,0.1368338167667389,0.48869219422340393,-0.7623597979545593
1766149067605781500,263.99678149414063,0.015882495790719986,0.4801400899887085,-0.8869763612747192
1766149067615791400,264.00679125976563,-0.06719517707824707,0.42271876335144043,-0.9187413454055786
1766149067625831700,264.01683178710937,-0.04398229718208313,0.34574973583221436,-0.6743952035903931
1766149067635841500,264.02684155273437,0.024434609338641167,0.3701843321323395,-0.2174680233001709
1766149067645851100,264.03685107421876,0.025656340643763542,0.38117989897727966,0.02932153269648552
1766149067655861000,264.04686108398437,0.07208210229873657,0.32498031854629517,0.00855211354792118
1766149067685859800,264.07685986328124,0.23335053026676178,0.28588494658470154,-0.6010913848876953
1766149067695839000,264.0868388671875,0.304210901260376,0.21991148591041565,-0.5925393104553223
1766149067705848800,264.0968488769531,0.4080579876899719,0.23090706765651703,-0.3591887652873993
1766149067715828000,264.1068278808594,0.4740314185619354,0.29565876722335815,-0.12950342893600464
1766149067725837800,264.116837890625,0.46303585171699524,0.35552358627319336,-0.06719517707824707
1766149067735817000,264.12681689453126,0.44837507605552673,0.3982841372489929,-0.10873401165008545
1766149067745796400,264.13679638671874,0.4715879559516907,0.35063666105270386,-0.0806342139840126
1766149067755806000,264.14680590820313,0.4434881806373596,0.23579397797584534,-0.009773843921720982
1766149067765785300,264.1567854003906,0.4202753007411957,0.15271630883216858,0.019547687843441963
1766149067775825700,264.16682568359374,0.3738495409488678,0.16859880089759827,0.004886921960860491
1766149067795784000,264.1867839355469,0.20891591906547546,0.16004669666290283,0.07696902006864548
1766149067805732900,264.19673291015624,0.17470745742321014,0.14905111491680145,0.19547687470912933
1766149067815773000,264.20677294921876,0.17959438264369965,0.09529497474431992,0.21868975460529327
1766149067825752300,264.21675244140624,0.20402899384498596,0.0659734457731247,0.12217304855585098
1766149067835762200,264.22676220703124,0.22113321721553802,0.11362093687057495,-0.03787364438176155
1766149067845741300,264.2367412109375,0.2064724564552307,0.1771509200334549,-0.19792033731937408
1766149067855751200,264.2467512207031,0.19058994948863983,0.22479841113090515,-0.20525072515010834
1766149067865730300,264.2567302246094,0.16737708449363708,0.23945917189121246,-0.13927727937698364
1766149067875709700,264.26670971679687,0.1368338167667389,0.28466320037841797,-0.10018189996480942
1766149067905677800,264.296677734375,-0.04886921867728233,0.3323107063770294,-0.09162978827953339
1766149067925666800,264.3166667480469,-0.16371189057826996,0.2480112910270691,-0.17104226350784302
1766149067945655800,264.33665576171876,-0.17104226350784302,0.21624629199504852,-0.23335053026676178
1766149067955635200,264.34663525390624,-0.2174680233001709,0.19303341209888458,-0.22479841113090515
1766149067965614300,264.3566142578125,-0.21502456068992615,0.1869247704744339,-0.2321287989616394
1766149067975624200,264.3666242675781,-0.19303341209888458,0.18448130786418915,-0.21135938167572021
1766149067985603300,264.3766032714844,-0.18448130786418915,0.19303341209888458,-0.19547687470912933
1766149068005561900,264.39656176757813,-0.14538592100143433,0.22479841113090515,-0.3396410644054413
1766149068015541200,264.4065412597656,-0.2834414839744568,0.35063666105270386,-0.5229006409645081
1766149068025550800,264.41655078125,-0.4703662395477295,0.7464773058891296,-0.8869763612747192
1766149068035530200,264.4265302734375,-0.29077184200286865,0.856433093547821,-0.3139847218990326
1766149068045479000,264.43647900390624,-0.2871066629886627,0.6230825781822205,0.051312681287527084
1766149068055519200,264.44651928710937,-0.31520646810531616,0.3176499307155609,0.1368338167667389
1766149068065498400,264.45649829101563,-0.2272418737411499,0.12828169763088226,0.013439035043120384
1766149068075477800,264.4664777832031,-0.22113321721553802,0.1270599663257599,-0.1368338167667389
1766149068085487400,264.4764873046875,-0.22113321721553802,0.1270599663257599,-0.1368338167667389
1766149068095466800,264.486466796875,-0.05009094998240471,0.1771509200334549,-0.2431243658065796
1766149068145454300,264.53645434570313,-0.015882495790719986,0.26633724570274353,-1.6310101747512817
1766149068155464200,264.54646411132813,0.15760323405265808,0.11484266817569733,-1.2803735733032227
1766149068165443600,264.5564436035156,0.5070181488990784,0.030543262138962746,-0.8881980776786804
1766149068175453200,264.566453125,0.598647952079773,-0.07941248267889023,-0.6218608021736145
1766149068185432600,264.5764326171875,0.5009095072746277,-0.13927727937698364,-0.5583308339118958
1766149068195411700,264.58641162109376,0.46547931432724,-0.028099801391363144,-0.5900958180427551
1766149068215400700,264.60640063476563,0.5607742667198181,0.40683624148368835,-0.5668829679489136
1766149068225380000,264.6163801269531,0.6414085030555725,0.5668829679489136,-0.6206390857696533
1766149068235359200,264.6263591308594,0.6585127115249634,0.7586946487426758,-0.6585127115249634
1766149068245308000,264.63630786132813,0.6743952035903931,0.8429940342903137,-0.8148942589759827
1766149068255317800,264.64631787109374,0.8258898258209229,0.9334021210670471,-1.0030407905578613
1766149068265297000,264.656296875,0.96883225440979,1.0555751323699951,-0.988379955291748
1766149068275276300,264.6662763671875,1.0201449394226074,1.1288789510726929,-1.0653489828109741
1766149068295234800,264.68623486328124,1.281595230102539,1.1679743528366089,-1.292590856552124
1766149068335212800,264.726212890625,1.1325441598892212,1.1191051006317139,-1.2986994981765747
1766149068345192000,264.73619189453126,1.0005972385406494,1.0555751323699951,-1.313360333442688
1766149068355232300,264.7462321777344,0.8552113175392151,0.9749409556388855,-1.312138557434082
1766149068365211600,264.75621166992187,0.7061602473258972,0.9175195693969727,-1.273043155670166
1766149068375221200,264.76622119140626,0.5351179838180542,0.8930850028991699,-1.1288789510726929
1766149068385200600,264.77620068359374,0.3494149148464203,0.9040805697441101,-0.9529497623443604
1766149068395179800,264.7861796875,0.16859880089759827,0.9150761365890503,-0.807563841342926
1766149068405189600,264.7961896972656,0.03420845419168472,0.921184778213501,-0.685390830039978
1766149068445137200,264.83613720703124,-0.28466320037841797,0.8527678847312927,-0.5277875661849976
1766149068455146800,264.84614672851563,-0.34208452701568604,0.8014551997184753,-0.44226643443107605
1766149068465126100,264.8561262207031,-0.3384193480014801,0.8161159753799438,-0.4092797040939331
1766149068475105300,264.8661052246094,-0.3017674386501312,0.807563841342926,-0.44104471802711487
1766149068485115100,264.876115234375,-0.2773328125476837,0.740368664264679,-0.4691445231437683
1766149068495094300,264.88609423828126,-0.2577851414680481,0.6902777552604675,-0.5400048494338989
1766149068505104100,264.89610424804687,-0.25045475363731384,0.6487388610839844,-0.5937610268592834
1766149068535072300,264.926072265625,-0.3335324227809906,0.7012733221054077,-0.3445279896259308
1766149170127968000,366.5189680175781,-0.3591887652873993,0.7073819637298584,-0.13072516024112701
1766149170177325300,366.5683251953125,-0.04398229718208313,-0.13561208546161652,-0.5534439086914062
1766149170207263000,366.59826293945315,0.08429940044879913,-0.14538592100143433,-0.18081611394882202
1766149170257220400,366.6482204589844,0.16737708449363708,-0.2626720666885376,0.09407325088977814
1766149170327075000,366.7180749511719,0.19058994948863983,-0.1661553531885147,-0.06352998316287994
1766149170337084700,366.7280847167969,0.21135938167572021,-0.1368338167667389,-0.03298672288656235
1766149170367083500,366.7580834960938,0.21991148591041565,-0.12828169763088226,0.11850785464048386
1766149170426989600,366.81798950195315,0.09162978827953339,0.00733038317412138,0.27122417092323303
1766149170436968700,366.82796875,0.09285151958465576,0.05619960278272629,0.2785545587539673
1766149170456957700,366.8479577636719,0.08796459436416626,0.10873401165008545,0.24678955972194672
1766149170506915000,366.8979150390625,0.21624629199504852,0.21868975460529327,0.025656340643763542
1766149170516925000,366.90792504882813,0.22968533635139465,0.22968533635139465,0.024434609338641167
1766149170526904000,366.9179040527344,0.22357667982578278,0.2174680233001709,0.03298672288656235
1766149170536883500,366.9278835449219,0.2125810980796814,0.1869247704744339,0.02321287989616394
1766149170546832100,366.93783203125,0.2028072625398636,0.14905111491680145,-0.00366519158706069
1766149170556841700,366.947841796875,0.18081611394882202,0.10506882518529892,-0.025656340643763542
1766149170566821000,366.9578210449219,0.14782938361167908,0.06841690838336945,-0.042760565876960754
1766149170606768600,366.9977685546875,0.07696902006864548,0.00855211354792118,0.09040805697441101
1766149170656725800,367.04772583007815,0.18570303916931152,0.02687807008624077,0.14294247329235077
1766149170666644200,367.0576442871094,0.25534167885780334,0.025656340643763542,0.1111774742603302
1766149170726550000,367.11755004882815,0.8979719281196594,-0.24068090319633484,-0.7525860071182251
1766149170736529400,367.127529296875,1.0482447147369385,-0.2834414839744568,-0.9028588533401489
1766149170746478000,367.1374780273438,1.1899654865264893,-0.3127630054950714,-1.018923282623291
1766149170756457200,367.14745727539065,1.3365731239318848,-0.33597588539123535,-1.0897835493087769
1766149170766436600,367.1574365234375,1.4941763877868652,-0.34086281061172485,-1.1398745775222778
1766149170786456000,367.1774560546875,1.860695481300354,-0.37140607833862305,-1.197295904159546
1766149170796466000,367.1874658203125,2.0696115493774414,-0.3885102868080139,-1.2950342893600464
1766149170806414600,367.1974145507813,2.2516493797302246,-0.42271876335144043,-1.5112806558609009
1766149170816424400,367.2074245605469,2.4642302989959717,-0.48258355259895325,-1.7763961553573608
1766149170826373000,367.217373046875,2.730567693710327,-0.5558874011039734,-2.0195205211639404
1766149170836352300,367.2273522949219,3.039665460586548,-0.6279694437980652,-2.1893410682678223
1766149170846362000,367.2373620605469,3.363424062728882,-0.6682865619659424,-2.2956316471099854
1766149170856341200,367.2473413085938,3.6664133071899414,-0.6670648455619812,-2.3738224506378174
1766149170866259500,367.2572595214844,3.9315288066864014,-0.6352998614311218,-2.4825563430786133
1766149170876238800,367.2672387695313,4.168544292449951,-0.6035348773002625,-2.6230554580688477
1766149170906207000,367.29720703125,4.910134792327881,-0.7855727076530457,-2.9187140464782715
1766149170926165500,367.3171655273438,5.468465805053711,-0.8210029006004333,-3.1300735473632812
1766149170936205800,367.3272058105469,5.63950777053833,-0.7379252314567566,-3.286454916000366
1766149170946185200,367.3371853027344,5.7800068855285645,-0.6291912198066711,-3.356093645095825
1766149170956164400,367.34716430664065,5.9644880294799805,-0.5314527750015259,-3.258355140686035
1766149170966113000,367.3571130371094,6.217386245727539,-0.47769662737846375,-3.0384438037872314
1766149170976153300,367.3671533203125,6.5839056968688965,-0.44837507605552673,-2.750115394592285
1766149170986102000,367.3771020507813,7.021285057067871,-0.37629300355911255,-2.492330312728882
1766149171016100900,367.40710083007815,7.352374076843262,-0.07819075137376785,-2.285857677459717
1766149171026110700,367.41711083984376,7.792197227478027,-0.07819075137376785,-1.7140878438949585
1766149171036120300,367.42712036132815,8.04387378692627,-0.015882495790719986,-1.3463469743728638
1766149171046130200,367.43713012695315,8.267450332641602,0.1014036312699318,-1.1545352935791016
1766149171056109300,367.447109375,8.510574340820312,0.2785545587539673,-0.9053022861480713
1766149171066058200,367.4570583496094,8.527678489685059,0.5351179838180542,-0.5082398653030396
1766149171076037400,367.46703735351565,8.120842933654785,0.8491026759147644,0.015882495790719986
1766149171086016800,367.47701684570313,7.765318870544434,1.225395679473877,0.7428121566772461
1766149171116045800,367.5070458984375,7.574728965759277,2.422691583633423,1.4428637027740479
1766149171125994800,367.5169948730469,7.3157219886779785,2.726902484893799,0.8918632864952087
1766149171135974000,367.52697387695315,7.056715488433838,2.9688050746917725,0.3323107063770294
1766149171145953300,367.53695336914063,6.85757303237915,3.163060188293457,-0.11362093687057495
1766149171155932400,367.5469323730469,6.697526454925537,3.252246618270874,-0.45692721009254456
1766149171165911600,367.5569116210938,6.55458402633667,3.21559476852417,-0.6951646208763123
1766149171175891000,367.56689086914065,6.294355392456055,3.017674207687378,-0.7929030656814575
1766149171185900800,367.57690087890626,5.809328556060791,2.6988027095794678,-0.6670648455619812
1766149186150682400,382.54168237304685,0.10262536257505417,-0.02932153269648552,-0.4899139404296875
1766149186170471200,382.56147119140627,2.7757716178894043,0.0403171069920063,-0.3787364661693573
1766149186189960200,382.5809602050781,6.862460136413574,0.4251621961593628,-1.4782938957214355
1766149186199770000,382.59077001953125,7.798305511474609,0.779464066028595,-1.2473868131637573
1766149186209749200,382.6007492675781,7.696902275085449,1.0543533563613892,-1.1887437105178833
1766149186229738200,382.62073828125,7.610159397125244,1.3585642576217651,-0.475253164768219
1766149186239687200,382.63068725585936,7.566176891326904,1.4538593292236328,0.06841690838336945
1766149186269685800,382.6606857910156,7.801970958709717,1.7678439617156982,0.988379955291748
1766149186309694500,382.7006945800781,7.325496196746826,2.707354784011841,-0.021991148591041565
1766149186329683500,382.7206833496094,7.051828384399414,2.5130996704101562,-1.0005972385406494
1766149236161068300,432.552068359375,0.1111774742603302,-0.04886921867728233,-0.49357911944389343
1766149236180757200,432.57175732421877,-0.7525860071182251,-0.5387831330299377,-0.10506882518529892
1766149236190536400,432.5815363769531,-1.882686734199524,-1.0580185651779175,-0.9590584635734558
1766149236210556000,432.6015559082031,-2.9468140602111816,-1.3451253175735474,-1.0946705341339111
1766149236220504800,432.6115048828125,-2.9101619720458984,-1.4013248682022095,-1.4172073602676392
1766149236290381600,432.6813815917969,-2.7403414249420166,-0.6120869517326355,-2.072054862976074
1766149236370246100,432.76124609375,-2.504547595977783,-0.9529497623443604,-2.2455406188964844
1766149236440222700,432.83122265625,-2.3689353466033936,-0.7440338730812073,-1.8936822414398193
1766149236450202000,432.8412021484375,-2.298074960708618,-0.6817256212234497,-1.8668042421340942
1766149236460181200,432.85118115234377,-2.141693592071533,-0.7147123217582703,-1.852143406867981
1766149236470130200,432.8611301269531,-1.9840903282165527,-0.759916365146637,-1.8887953758239746
1766149236480109300,432.871109375,-1.8594738245010376,-0.7049384713172913,-1.9120081663131714
1766149236490088400,432.88108837890627,-1.814269781112671,-0.6695083379745483,-1.9901989698410034
1766149236500067800,432.89106787109375,-1.7238616943359375,-0.7672467231750488,-2.090380907058716
1766149236510077700,432.90107763671875,-1.5931365489959717,-0.7916813492774963,-2.0806069374084473
1766149236520056800,432.9110568847656,-1.5076154470443726,-0.685390830039978,-1.987755537033081
1766149236609931000,433.00093090820315,-1.1203268766403198,-0.0806342139840126,-1.7763961553573608
1766149236619880000,433.0108798828125,-1.176526427268982,-0.04398229718208313,-1.4563027620315552
1766149236629889500,433.0208896484375,-1.176526427268982,-0.04398229718208313,-1.4563027620315552
1766149236649878500,433.04087841796877,-1.226617455482483,-0.09896016865968704,-1.3781119585037231
1766149236669837000,433.0608371582031,-1.0238101482391357,0.16371189057826996,-1.722640037536621
1766149236679755300,433.07075537109375,-0.9065240025520325,0.2480112910270691,-1.6786576509475708
1766149236699713800,433.0907138671875,-0.6633996367454529,0.3591887652873993,-1.8839083909988403
1766149236709693200,433.1006931152344,-0.6866125464439392,0.3591887652873993,-2.031737804412842
1766149236719641900,433.1106418457031,-0.6426302194595337,0.34574973583221436,-2.0476202964782715
1766149236729651500,433.1206513671875,-0.6047565937042236,0.3335324227809906,-1.8008307218551636
1766149236739600400,433.1306003417969,-0.5412266254425049,0.3078760802745819,-1.4892895221710205
1766149236749579500,433.14057958984375,-0.5253441333770752,0.31520646810531616,-1.310916781425476
1766149236759589400,433.15058935546875,-0.3689626157283783,0.35063666105270386,-1.2779301404953003
1766149236769568500,433.1605686035156,-0.0659734457731247,0.4605923891067505,-1.086118459701538
1766149236779548000,433.1705478515625,-0.00366519158706069,0.5668829679489136,-1.0311405658721924
1766149236789527000,433.1805270996094,-0.05864306539297104,0.7024950385093689,-1.1643091440200806
1766149236799537000,433.1905368652344,-0.2883284091949463,0.7440338730812073,-1.1447614431381226
1766149236809516000,433.20051611328125,-0.5253441333770752,0.5693264007568359,-0.7623597979545593
1766149236819464700,433.2104645996094,-0.46792277693748474,0.375071257352829,-0.07208210229873657
1766149236829474600,433.220474609375,-0.2981022298336029,0.2590068578720093,0.38728857040405273
1766149236839453700,433.23045361328127,-0.09285151958465576,0.10751228034496307,0.45692721009254456
1766149236869483000,433.26048291015627,0.15515977144241333,0.11728613078594208,-0.8197811841964722
1766149236879462400,433.27046240234375,0.22602014243602753,0.05742133408784866,-0.7330383062362671
1766149236889441500,433.2804416503906,0.3579670190811157,0.13072516024112701,-0.4434881806373596
1766149236899390200,433.29039013671877,0.39584067463874817,0.17348572611808777,-0.2736676335334778
1766149236909369600,433.30036962890625,0.40072759985923767,0.2382374405860901,-0.31031954288482666
1766149236919318300,433.310318359375,0.4190535545349121,0.27977627515792847,-0.49846604466438293
1766149236929328000,433.320328125,0.4239404797554016,0.2565633952617645,-0.7220427393913269
1766149236939337700,433.3303376464844,0.4349360466003418,0.27611109614372253,-0.8234463334083557
1766149236949317000,433.3403171386719,0.4202753007411957,0.31642818450927734,-0.7623597979545593
1766149236969306000,433.36030615234375,0.3433062732219696,0.21624629199504852,-0.685390830039978
1766149236989264600,433.3802646484375,0.1270599663257599,0.13072516024112701,-0.656069278717041
1766149236999274200,433.3902741699219,0.06841690838336945,0.13072516024112701,-0.4899139404296875
1766149237009253600,433.4002536621094,-0.02687807008624077,0.21991148591041565,-0.3335324227809906
1766149237019232800,433.41023266601565,-0.1160643994808197,0.3335324227809906,-0.32131510972976685
1766149237029242600,433.42024267578125,-0.0708603709936142,0.31520646810531616,-0.34208452701568604
1766149237039221800,433.4302216796875,0.05497787147760391,0.22113321721553802,-0.32498031854629517
1766149237049201200,433.440201171875,0.1111774742603302,0.2577851414680481,-0.3090978264808655
1766149237079169300,433.47016918945315,0.0024434609804302454,0.3090978264808655,-0.32009339332580566
1766149237089179100,433.48017919921875,0.0659734457731247,0.1661553531885147,-0.2687807083129883
1766149237099189000,433.49018896484375,-0.025656340643763542,0.08552113175392151,-0.17470745742321014
1766149237109198600,433.50019848632815,-0.3543018400669098,0.6023131608963013,-0.7122688889503479
1766149237119208400,433.51020849609375,-0.06230825558304787,0.9272934198379517,-0.4948008358478546
1766149237129187600,433.5201875,0.17348572611808777,0.7232644557952881,-0.05497787147760391
1766149237139167000,433.5301669921875,0.09773843735456467,0.6255260109901428,0.1771509200334549
1766149237149207300,433.5402072753906,0.12339477986097336,0.5510004758834839,0.2028072625398636
1766149237159186400,433.5501865234375,0.16371189057826996,0.7806857824325562,-0.0403171069920063
1766149237189185300,433.5801853027344,1.330464482307434,1.0115928649902344,0.00733038317412138
1766149237199164400,433.59016430664065,1.814269781112671,0.9260717034339905,-0.03176499158143997
1766149237209143800,433.6001437988281,1.7812830209732056,1.3878858089447021,-0.42271876335144043
1766149237219123000,433.610123046875,1.1679743528366089,1.9413297176361084,-1.1252137422561646
1766149237229132800,433.6201328125,1.1679743528366089,1.9413297176361084,-1.1252137422561646
1766149237239112000,433.63011181640627,0.6829473376274109,1.7751743793487549,-2.116037130355835
1766149237249121800,433.6401218261719,0.799011766910553,1.2180652618408203,-2.6035077571868896
1766149237259101000,433.65010083007815,1.3781119585037231,0.9065240025520325,-1.930334210395813
1766149237269141200,433.6601413574219,1.7739527225494385,0.7476990818977356,-0.950506329536438
1766149237309150000,433.70014990234375,1.3976596593856812,0.7770205736160278,-0.5607742667198181
1766149237329139000,433.7201389160156,1.470963478088379,1.1789699792861938,-0.9920451641082764
1766149237339148500,433.7301484375,1.5173892974853516,1.2791517972946167,-0.8063421249389648
1766149237349158400,433.7401584472656,1.5039502382278442,1.2718214988708496,-0.5424483418464661
1766149237359137500,433.7501374511719,1.4428637027740479,1.205847978591919,-0.4190535545349121
1766149237369147400,433.7601474609375,1.3756685256958008,1.1410962343215942,-0.5290092825889587
1766149237399115800,433.79011572265625,1.0836749076843262,1.0054842233657837,-1.2522737979888916
1766149237409125400,433.80012548828125,1.076344609260559,0.978606104850769,-1.2498302459716797
1766149237419104800,433.8101047363281,1.0445796251296997,0.9187413454055786,-1.0751228332519531
1766149237429084000,433.820083984375,0.9199630618095398,0.8723155856132507,-1.0555751323699951
1766149237439093800,433.83009375,0.7904596328735352,0.8539896011352539,-1.1215485334396362
1766149237449103400,433.8401032714844,0.675616979598999,0.8662069439888,-1.1423180103302002
1766149237459113200,433.85011328125,0.5644394755363464,0.9358455538749695,-1.1166616678237915
1766149237469092400,433.86009228515627,0.4948008358478546,1.0103710889816284,-0.9871582388877869
1766149237479071700,433.87007177734375,0.4447098970413208,1.0115928649902344,-0.7648032903671265
1766149237489081600,433.88008154296875,0.4178318381309509,1.0201449394226074,-0.49357911944389343
1766149237499060700,433.8900607910156,0.4141666293144226,1.027475357055664,-0.30054569244384766
1766149237549048600,433.9400485839844,0.14294247329235077,0.720820963382721,-0.3787364661693573
1766149237579078000,433.9700778808594,0.05375614017248154,0.45204028487205505,-0.4141666293144226
1766149237589087500,433.98008740234377,0.013439035043120384,0.3982841372489929,-0.5656611919403076
1766149237609076500,434.00007641601565,0.04398229718208313,0.3897320330142975,-0.45204028487205505
1766149349138939100,545.5299392089844,-0.00733038317412138,0.2577851414680481,-0.1417207419872284
1766149349148818400,545.539818359375,0.13439035415649414,-0.04398229718208313,-0.4789183437824249
1766149349198214700,545.5892145996094,-0.02687807008624077,0.3286454975605011,0.626747727394104
1766149349208255000,545.5992548828125,-0.15393804013729095,0.39584067463874817,0.1270599663257599
1766149349228244000,545.6192438964844,-0.07452555745840073,0.48380526900291443,0.2370157092809677
1766149349238223000,545.6292231445312,0.16982053220272064,0.3628539443016052,0.06841690838336945
1766149349248202500,545.6392023925781,0.4202753007411957,0.251676470041275,-0.12950342893600464
1766149349258181600,545.649181640625,0.6316346526145935,0.2064724564552307,-0.21135938167572021
1766149349308169500,545.6991694335937,1.0311405658721924,0.24556782841682434,0.11484266817569733
1766149349348056000,545.7390561523438,1.0543533563613892,0.0024434609804302454,-0.2724458873271942
1766149349398013200,545.7890131835937,0.9541715383529663,-0.10262536257505417,-0.1661553531885147
1766149349408023000,545.7990229492187,0.9627236127853394,-0.11728613078594208,-0.2528982162475586
1766149349457919200,545.8489191894531,0.988379955291748,0.11484266817569733,-0.03176499158143997
1766149349537814300,545.9288142089844,0.7831292152404785,0.06963863968849182,-0.37262779474258423
1766149349587741000,545.9787409667969,0.4862487316131592,-0.1014036312699318,-0.32620203495025635
1766149349597720300,545.9887202148437,0.3933972120285034,-0.25534167885780334,-0.3017674386501312
1766149349617648000,546.0086481933594,0.3591887652873993,-0.5216789245605469,-0.3335324227809906
1766149349627627500,546.0186274414062,0.3481931984424591,-0.607200026512146,-0.5326744914054871
1766149349637637400,546.0286374511719,0.3237585723400116,-0.6230825781822205,-0.7648032903671265
1766149349657656800,546.0486567382812,0.26022860407829285,-0.4386012554168701,-0.7941248416900635
1766149349667636000,546.0586359863281,0.25534167885780334,-0.3481931984424591,-0.5937610268592834
1766149349677645800,546.0686457519531,0.3384193480014801,-0.3335324227809906,-0.28099802136421204
1766149349687655700,546.0786557617188,0.3384193480014801,-0.3335324227809906,-0.28099802136421204
1766149349697634800,546.088634765625,0.37751471996307373,-0.3885102868080139,-0.34208452701568604
1766149349707614000,546.0986140136719,0.37751471996307373,-0.3885102868080139,-0.34208452701568604
1766149349727542000,546.1185419921875,0.2223549485206604,-0.4349360466003418,-0.8662069439888
1766149349737521400,546.128521484375,0.10018189996480942,-0.49724429845809937,-1.0396926403045654
1766149349747531000,546.1385310058594,-0.03298672288656235,-0.5742133259773254,-1.187522053718567
1766149349757510400,546.1485104980469,-0.09407325088977814,-0.6279694437980652,-1.3842206001281738
1766149349767489500,546.1584895019531,-0.11239920556545258,-0.6352998614311218,-1.5344934463500977
1766149349777438200,546.1684382324219,-0.12828169763088226,-0.5717698931694031,-1.4159855842590332
1766149349787448000,546.1784479980469,-0.1111774742603302,-0.49357911944389343,-1.0054842233657837
1766149349797427200,546.1884272460937,-0.09407325088977814,-0.4202753007411957,-0.6352998614311218
1766149349807437000,546.1984370117187,-0.16371189057826996,-0.33597588539123535,-0.5534439086914062
1766149349817447000,546.2084470214844,-0.2223549485206604,-0.28588494658470154,-0.6731734871864319
1766149349827456500,546.2184565429687,-0.1869247704744339,-0.24190263450145721,-0.8955284357070923
1766149349837436000,546.2284357910156,-0.17104226350784302,-0.2064724564552307,-1.1630873680114746
1766149349847445500,546.2384455566406,-0.21624629199504852,-0.18448130786418915,-1.5210545063018799
1766149349857425000,546.2484248046875,-0.2272418737411499,-0.18081611394882202,-1.9266690015792847
1766149349867404000,546.2584040527344,-0.16493362188339233,-0.1820378452539444,-2.2992968559265137
1766149349877383400,546.2683835449219,-0.06475171446800232,-0.1918116807937622,-2.596177339553833
1766149349887423700,546.278423828125,0.03420845419168472,-0.2370157092809677,-2.8038713932037354
1766149349897403000,546.2884028320312,0.1111774742603302,-0.28955012559890747,-2.8881709575653076
1766149349907412700,546.2984128417969,0.16737708449363708,-0.24434609711170197,-2.978579044342041
1766149349917361400,546.308361328125,0.16859880089759827,-0.10873401165008545,-3.2229249477386475
1766149349937380900,546.328380859375,0.14538592100143433,0.17837265133857727,-3.2082643508911133
1766149349947329500,546.3383295898437,0.07696902006864548,0.21013765037059784,-2.8710665702819824
1766149349957339400,546.3483393554687,-0.04153883829712868,0.16493362188339233,-2.3212878704071045
1766149349967318800,546.3583188476563,-0.11972958594560623,0.09773843735456467,-1.549154281616211
1766149349977328400,546.3683283691406,-0.1270599663257599,0.051312681287527084,-0.7757988572120667
1766149349987277000,546.3782770996094,-0.10873401165008545,0.030543262138962746,-0.2773328125476837
1766149349997256400,546.3882563476562,-0.05009094998240471,0.05009094998240471,-0.13072516024112701
1766149350007266000,546.3982661132812,0.05619960278272629,0.0354301854968071,-0.3604104816913605
1766149350017245400,546.4082453613281,0.09407325088977814,0.024434609338641167,-0.7379252314567566
1766149350027224600,546.418224609375,0.06352998316287994,0.11362093687057495,-0.978606104850769
1766149350057193000,546.4481928710937,0.08307767659425735,0.22479841113090515,-0.4190535545349121
1766149350067172000,546.4581721191406,0.07208210229873657,0.12950342893600464,-0.05864306539297104
1766149350077121000,546.46812109375,0.09407325088977814,0.11362093687057495,0.23579397797584534
1766149350087130600,546.4781306152344,0.2015855312347412,0.13316862285137177,0.36163222789764404
1766149350097110000,546.4881101074219,0.26511552929878235,0.16371189057826996,0.15393804013729095
1766149350107089200,546.4980891113281,0.25534167885780334,0.20891591906547546,-0.17348572611808777
1766149350117068300,546.508068359375,0.2590068578720093,0.15393804013729095,-0.3836233615875244
1766149350127078100,546.518078125,0.29565876722335815,-0.05864306539297104,-0.5119050741195679
1766149350167025700,546.5580256347656,0.33108896017074585,-0.5400048494338989,-0.7367035150527954
1766149350177005000,546.5680051269532,0.39217549562454224,-0.5253441333770752,-0.3677408695220947
1766149350187014700,546.5780146484375,0.4740314185619354,-0.4337143301963806,-0.05864306539297104
1766149350196963300,546.5879633789062,0.39217549562454224,-0.40072759985923767,0.08552113175392151
1766149350206973200,546.5979731445312,0.28955012559890747,-0.4129449129104614,0.1466076523065567
1766149350226931700,546.617931640625,0.4178318381309509,-0.42271876335144043,0.23579397797584534
1766149361128979700,557.5199797363281,0.48869219422340393,-0.34086281061172485,0.02932153269648552
1766149361138859000,557.5298588867188,0.09529497474431992,-0.024434609338641167,-0.475253164768219
1766149361198356500,557.5893564453125,0.4300491213798523,0.44104471802711487,2.339613914489746
1766149361228355300,557.6193552246094,0.720820963382721,-0.02687807008624077,1.2412781715393066
1766149361238334700,557.6293347167968,0.96883225440979,-0.025656340643763542,0.9651671051979065
1766149361278312700,557.6693127441406,1.1166616678237915,0.6951646208763123,1.8301522731781006
1766149361288291800,557.6792917480469,1.0873401165008545,0.8258898258209229,1.8851301670074463
1766149361298240500,557.6892404785157,1.0458012819290161,0.9541715383529663,1.7446311712265015
1766149361308280800,557.6992807617188,0.9553932547569275,1.0311405658721924,1.4831807613372803
1766149361318229800,557.7092297363281,0.8784242272377014,1.0714576244354248,1.2950342893600464
1766149361328209000,557.719208984375,0.9248499870300293,1.0873401165008545,1.2657127380371094
1766149361338249200,557.7292492675781,1.0152580738067627,1.1142182350158691,1.2522737979888916
1766149361348258800,557.7392587890625,0.9773843884468079,1.1459832191467285,1.1459832191467285
1766149361358238200,557.74923828125,0.7904596328735352,1.1789699792861938,0.9749409556388855
1766149361368217300,557.7592172851563,0.646295428276062,1.1936306953430176,0.7941248416900635
1766149361398185700,557.7891857910156,0.8454375267028809,1.1068878173828125,0.9871582388877869
1766149361418174700,557.8091748046875,0.8002334833145142,1.0115928649902344,0.5412266254425049
1766149361438163700,557.8291638183593,1.0445796251296997,1.0995573997497559,-0.06963863968849182
1766149361458152700,557.8491525878907,1.3341296911239624,1.1911872625350952,0.05742133408784866
1766149361508171000,557.8991708984375,2.0415115356445312,1.2278391122817993,-0.1270599663257599
1766149361528129500,557.9191296386718,2.383596181869507,1.0042624473571777,-0.8319984674453735
1766149361538108700,557.9291086425782,2.4947736263275146,0.93095862865448,-1.1276572942733765
1766149361548149000,557.9391489257813,2.517986536026001,0.8527678847312927,-1.451415777206421
1766149361558158800,557.9491589355468,2.4678955078125,0.7965682744979858,-1.89979088306427
1766149361568168700,557.9591687011718,2.403143882751465,0.7806857824325562,-2.5998425483703613
1766149361588157700,557.9791577148437,2.557081937789917,0.7806857824325562,-4.234518051147461
1766149361598136800,557.98913671875,2.735454559326172,0.8319984674453735,-4.9480085372924805
1766149361608116200,557.9991162109375,2.596177339553833,0.9065240025520325,-5.28276252746582
1766149361618125800,558.0091257324219,2.0916025638580322,0.8637634515762329,-5.327966690063477
1766149361628166100,558.0191662597656,1.4355332851409912,0.5619960427284241,-5.164254665374756
1766149361638145500,558.0291455078125,0.9847147464752197,0.3029891550540924,-4.379903793334961
1766149361648124700,558.0391247558593,0.7672467231750488,0.2577851414680481,-2.8906142711639404
1766149361658134500,558.0491345214843,0.3995058834552765,0.36163222789764404,-0.9810495972633362
1766149361668113700,558.0591137695312,-0.024434609338641167,0.5534439086914062,0.7464773058891296
1766149361698051300,558.0890512695313,-0.3689626157283783,0.24434609711170197,2.4446825981140137
1766149361708091600,558.0990915527344,-0.5876523852348328,0.06108652427792549,1.0616837739944458
1766149361718040300,558.1090402832032,-0.9431759119033813,-0.03787364438176155,-0.8319984674453735
1766149361738060000,558.1290600585937,-1.215621829032898,-0.019547687843441963,-2.2773056030273438
1766149361748069600,558.1390695800782,-1.2583824396133423,0.12828169763088226,-2.492330312728882
1766149361758018600,558.1490185546875,-1.1252137422561646,0.3176499307155609,-1.7043139934539795
1766149361767997700,558.1589978027343,-0.9297369122505188,0.455705463886261,-0.6487388610839844
1766149361778007600,558.1690075683593,-0.8332201838493347,0.5534439086914062,-0.021991148591041565
1766149361808067300,558.1990673828125,-0.6010913848876953,0.5974262356758118,-1.2119566202163696
1766149361818046500,558.2090463867188,-0.513126790523529,0.5681046843528748,-1.6591099500656128
1766149361828056300,558.2190563964843,-0.3433062732219696,0.5607742667198181,-1.793500304222107
1766149361838035500,558.2290354003907,-0.2565633952617645,0.5962044596672058,-1.693318486213684
1766149361848014800,558.2390148925781,-0.16249015927314758,0.636521577835083,-1.3817771673202515
1766149361857994000,558.2489938964844,0.00733038317412138,0.6609562039375305,-0.960280179977417
1766149361868003800,558.25900390625,0.09040805697441101,0.6536257863044739,-0.7684684991836548
1766149361877983000,558.2689829101563,0.018325956538319588,0.5546656250953674,-0.9382890462875366
1766149361907951400,558.2989514160156,-0.25534167885780334,0.32986724376678467,-0.9944885969161987
1766149361917900000,558.3089001464843,-0.3689626157283783,0.4544837474822998,-0.4948008358478546
1766149361927879400,558.3188793945312,-0.4080579876899719,0.46670106053352356,-0.09773843735456467
1766149361937858600,558.3288586425781,-0.48869219422340393,0.5326744914054871,0.16859880089759827
1766149361947899000,558.3388989257812,-0.675616979598999,0.5864306092262268,0.3933972120285034
1766149361967826700,558.3588266601563,-0.8454375267028809,0.8100073337554932,1.1227703094482422
1766149361977806000,558.3688061523437,-0.7073819637298584,0.797789990901947,1.5015068054199219
1766149361987785200,558.37878515625,-0.5766568183898926,0.8393288254737854,1.6517796516418457
1766149362017723100,558.4087231445312,-0.2919935882091522,0.988379955291748,0.789237916469574
1766149362027763500,558.4187634277343,-0.34697145223617554,0.9004153609275818,0.8038986921310425
1766149362037712100,558.4287121582031,-0.3176499307155609,0.8014551997184753,0.7538077235221863
1766149362047721700,558.4387216796875,-0.18448130786418915,0.608421802520752,0.28588494658470154
1766149362057731600,558.4487316894531,-0.10018189996480942,0.33108896017074585,-0.07208210229873657
1766149362067741400,558.4587414550781,-0.015882495790719986,0.24923302233219147,0.010995574295520782
1766149362077720600,558.4687204589844,0.059864792972803116,0.3335324227809906,-0.05253441259264946
1766149362087730400,558.47873046875,0.02687807008624077,0.20036379992961884,-0.2321287989616394
1766149362097679000,558.4886791992187,-0.06230825558304787,-0.02321287989616394,-0.19547687470912933
1766149362117698600,558.5086984863282,0.06719517707824707,-0.11239920556545258,-0.7428121566772461
1766149362157646000,558.5486459960938,0.3543018400669098,-0.35552358627319336,-0.7086036801338196
1766149362167625500,558.5586254882812,0.44226643443107605,-0.394618958234787,-1.026253581047058
1766149362177604600,558.5686044921875,0.4691445231437683,-0.5009095072746277,-1.4257594347000122
1766149362187614500,558.5786145019531,0.4251621961593628,-0.636521577835083,-1.7495180368423462
1766149362197593600,558.5885935058594,0.39095374941825867,-0.789237916469574,-2.0732767581939697
1766149362207603500,558.598603515625,0.27977627515792847,-1.0506882667541504,-2.1368067264556885
1766149362247520500,558.6385205078125,0.6536257863044739,-1.3768903017044067,-2.302962064743042
1766149362257499600,558.6484997558593,0.6780604124069214,-1.0848966836929321,-2.057394027709961
1766149362267509500,558.6585095214843,0.6255260109901428,-0.797789990901947,-1.9254472255706787
1766149362277488600,558.6684885253907,0.6731734871864319,-0.38728857040405273,-1.8680258989334106
1766149362287498500,558.6784985351562,0.789237916469574,0.04642575979232788,-1.6701055765151978
1766149362297508000,558.6885080566407,0.7086036801338196,0.375071257352829,-1.23394775390625
1766149362307518000,558.6985180664062,0.6328563690185547,0.6878342628479004,-0.455705463886261
1766149362317466600,558.7084665527344,0.6035348773002625,0.9639453291893005,0.41661009192466736
1766149362357475300,558.7484753417968,0.07208210229873657,1.4098769426345825,1.3964380025863647
1766149362367454500,558.7584543457032,0.07208210229873657,1.4098769426345825,1.3964380025863647
1766149362377464300,558.7684643554687,0.025656340643763542,1.3854423761367798,1.1252137422561646
1766149441129456000,637.5204560546875,0.09529497474431992,-0.04642575979232788,-0.4862487316131592
1766149441158424300,637.5494243164062,-0.5595525503158569,-0.5522221922874451,-0.8662069439888
1766149441178082800,637.5690827636719,-0.7635815739631653,-0.7232644557952881,-1.0030407905578613
1766149441188062200,637.5790622558594,-0.7586946487426758,-0.7257078886032104,-0.9932668805122375
1766149441207990000,637.5989899902344,-0.7538077235221863,-0.7159340381622314,-0.7806857824325562
1766149441237958400,637.6289584960938,-0.7721336483955383,-0.7024950385093689,-0.5803219676017761
1766149441297864400,637.6888645019532,-0.789237916469574,-0.5632177591323853,-0.6817256212234497
1766149441367780000,637.7587800292969,-0.7024950385093689,-0.23090706765651703,-0.45204028487205505
1766149441387769000,637.7787690429687,-0.6646214127540588,-0.19914206862449646,-0.4288274049758911
1766149441407758000,637.7987580566406,-0.6487388610839844,-0.16371189057826996,-0.3836233615875244
1766149441447736000,637.8387360839844,-0.6035348773002625,-0.07941248267889023,-0.1514945775270462
1766149441457715500,637.8487155761719,-0.5937610268592834,-0.05253441259264946,-0.06719517707824707
1766149441497663000,637.8886630859375,-0.49846604466438293,-0.028099801391363144,-0.2675589919090271
1766149441527631000,637.9186311035156,-0.29077184200286865,0.04642575979232788,-0.1514945775270462
1766149441537610500,637.9286105957032,-0.23945917189121246,0.039095375686883926,-0.3323107063770294
1766149441547620000,637.9386201171875,-0.1771509200334549,0.018325956538319588,-0.5009095072746277
1766149441557630000,637.9486298828125,-0.1417207419872284,-0.02321287989616394,-0.5314527750015259
1766149441567609300,637.958609375,-0.07941248267889023,-0.04886921867728233,-0.4398229718208313
1766149441587598300,637.9785983886719,0.024434609338641167,-0.1111774742603302,-0.14782938361167908
1766149441597608000,637.9886079101562,0.07819075137376785,-0.1612684279680252,-0.21013765037059784
1766149441607617800,637.9986176757812,0.1612684279680252,-0.23579397797584534,-0.32498031854629517
1766149441617627600,638.0086276855469,0.27977627515792847,-0.32498031854629517,-0.45692721009254456
1766149441627637200,638.0186372070312,0.42760565876960754,-0.40072759985923767,-0.6108652353286743
1766149441637616600,638.0286166992188,0.5436700582504272,-0.4764748811721802,-0.8038986921310425
1766149441647595800,638.038595703125,0.6438519954681396,-0.5546656250953674,-1.009149432182312
1766149441657575200,638.0485751953125,0.7489207983016968,-0.6304129362106323,-1.2217304706573486
1766149441667554300,638.0585541992187,0.8637634515762329,-0.7000515460968018,-1.4269812107086182
1766149441677533400,638.0685334472656,0.9847147464752197,-0.7538077235221863,-1.6224581003189087
1766149441697522700,638.0885227050782,1.2302825450897217,-0.7941248416900635,-2.0305161476135254
1766149441717511700,638.10851171875,1.4978415966033936,-0.8478809595108032,-2.3322834968566895
1766149441727521300,638.1185212402344,1.6688838005065918,-0.8710938692092896,-2.411695957183838
1766149441737500700,638.1285007324219,1.8839083909988403,-0.8906415104866028,-2.4886651039123535
1766149441747571500,638.1385715332032,2.109928607940674,-0.9358455538749695,-2.585181713104248
1766149441757550600,638.1485505371094,2.333505153656006,-0.9944885969161987,-2.6902506351470947
1766149441767530000,638.1585300292969,2.5668556690216064,-1.0299187898635864,-2.769663095474243
1766149441777539600,638.1685395507812,2.7989845275878906,-1.0458012819290161,-2.8099801540374756
1766149441817487000,638.2084870605469,3.8899898529052734,-1.2217304706573486,-2.886949062347412
1766149441827497000,638.2184970703125,4.095240592956543,-1.2424999475479126,-3.006678819656372
1766149441837476000,638.2284760742187,4.322482585906982,-1.2400563955307007,-3.082426071166992
1766149441847486000,638.2384858398437,4.637689113616943,-1.207069754600525,-3.0579915046691895
1766149441857465000,638.2484650878906,4.949230194091797,-1.1899654865264893,-3.0225613117218018
1766149441867444500,638.2584445800782,5.219232559204102,-1.197295904159546,-3.0689868927001953
1766149441877423600,638.2684235839844,5.520999908447266,-1.2107349634170532,-3.154508113861084
1766149441897382100,638.2883820800781,6.037792205810547,-1.1679743528366089,-3.439171314239502
1766149441907392000,638.2983920898438,6.228382110595703,-0.9944885969161987,-3.5320229530334473
1766149441917371100,638.30837109375,6.37132453918457,-0.8429940342903137,-3.528357744216919
1766149441927381000,638.3183811035157,6.599788188934326,-0.797789990901947,-3.358537197113037
1766149441937360100,638.3283601074219,6.93332052230835,-0.8014551997184753,-3.165503740310669
1766149441947339500,638.3383395996094,6.93332052230835,-0.8014551997184753,-3.165503740310669
1766149441957318700,638.3483186035156,7.158118724822998,-0.7806857824325562,-3.1667253971099854
1766149441967328500,638.3583286132813,7.133684158325195,-0.7379252314567566,-3.3622024059295654
1766149441977307600,638.3683076171875,7.152010440826416,-0.7147123217582703,-3.3157765865325928
1766149441987317500,638.3783173828125,7.368256568908691,-0.6743952035903931,-2.8466320037841797
1766149441997296600,638.3882966308594,7.585724830627441,-0.5571091175079346,-2.211332082748413
1766149442047284500,638.4382844238281,7.892378807067871,1.4062118530273438,1.1655309200286865
1766149442057294300,638.4482944335938,7.9241437911987305,1.8777997493743896,1.86191725730896
1766149442067304000,638.4583039550781,7.973013401031494,2.266309976577759,2.5302038192749023
1766149442097302800,638.488302734375,7.215540409088135,3.1703906059265137,3.89121150970459
1766149442107312600,638.4983127441407,6.784269332885742,3.3817501068115234,4.1025710105896
1766149442197248000,638.588248046875,0.636521577835083,2.8295278549194336,4.3786821365356445
1766150073151916300,1269.5429162597657,0.4398229718208313,-1.654223084449768,-0.8112290501594543
1766150073231464000,1269.6224638671874,-0.1563815027475357,0.14905111491680145,-0.1062905490398407
1766150073241473800,1269.632473876953,-0.19058994948863983,0.15515977144241333,0.009773843921720982
1766150073261462800,1269.652462890625,-0.1417207419872284,0.059864792972803116,-0.04153883829712868
1766150073291492000,1269.6824921875,-0.13805554807186127,-0.0708603709936142,0.06841690838336945
1766150073301471200,1269.6924711914062,-0.11850785464048386,-0.05619960278272629,0.3139847218990326
1766150073361529900,1269.7525297851562,0.0024434609804302454,0.036651913076639175,-0.13561208546161652
1766150073381549300,1269.7725493164062,0.00733038317412138,0.0354301854968071,-0.3066543638706207
1766150073451526100,1269.8425261230468,0.06108652427792549,-0.18448130786418915,-0.2687807083129883
1766150073491473700,1269.8824736328124,0.09407325088977814,-0.08307767659425735,-0.15760323405265808
1766150073511432200,1269.9024321289062,0.15271630883216858,-0.01710422709584236,-0.10262536257505417
1766150073541492000,1269.9324919433593,0.22357667982578278,-0.01710422709584236,0.06352998316287994
1766150073611560400,1270.002560546875,0.24190263450145721,0.05375614017248154,1.0286970138549805
1766150073621509000,1270.012509033203,0.29565876722335815,0.03420845419168472,1.1789699792861938
1766150073641528600,1270.032528564453,0.384845107793808,0.06719517707824707,1.1142182350158691
1766150073651538400,1270.042538330078,0.4300491213798523,0.021991148591041565,1.027475357055664
1766150073661487000,1270.0524870605468,0.46181413531303406,-0.05742133408784866,0.940732479095459
1766150073711475000,1270.1024748535156,0.46792277693748474,-0.25534167885780334,0.646295428276062
1766150073721484800,1270.1124848632812,0.5106833577156067,-0.26022860407829285,0.4642575979232788
1766150073731464000,1270.1224638671874,0.4691445231437683,-0.2382374405860901,0.2565633952617645
1766150073791431000,1270.182430908203,0.11362093687057495,-0.16737708449363708,-0.05375614017248154
1766150073821429800,1270.2124296875,0.16737708449363708,0.19303341209888458,0.16493362188339233
1766150073841449200,1270.23244921875,0.14538592100143433,0.3543018400669098,0.1563815027475357
1766150073881458000,1270.2724580078125,0.12461651116609573,0.31154128909111023,-0.5962044596672058
1766150073911426000,1270.3024260253906,-0.05253441259264946,0.22602014243602753,-0.1966986060142517
1766150073981372400,1270.372372314453,-0.08674286305904388,0.18570303916931152,-0.06475171446800232
1766150073991382300,1270.3823823242187,-0.021991148591041565,0.10262536257505417,-0.26511552929878235
1766150074041400600,1270.4324006347656,0.013439035043120384,-0.07330382615327835,0.021991148591041565
1766150074061359000,1270.4523591308593,0.012217304669320583,-0.1417207419872284,0.012217304669320583
1766150074081348000,1270.4723481445312,0.02687807008624077,-0.13561208546161652,-0.10751228034496307
1766150074111377400,1270.5023774414062,0.012217304669320583,-0.1111774742603302,-0.17470745742321014
1766150074121387000,1270.5123869628906,-0.00733038317412138,-0.07208210229873657,-0.09162978827953339
1766150074131366400,1270.522366455078,0.00366519158706069,-0.05497787147760391,-0.018325956538319588
1766150074141345500,1270.5323454589843,0.051312681287527084,-0.06841690838336945,0.03420845419168472
1766150074151355400,1270.54235546875,0.07208210229873657,-0.07696902006864548,0.06963863968849182
1766150074171344400,1270.5623444824218,0.06963863968849182,-0.08429940044879913,0.042760565876960754
1766150074181323500,1270.572323486328,0.045204028487205505,-0.08429940044879913,0.024434609338641167
1766150074201343200,1270.5923432617187,0.039095375686883926,-0.07941248267889023,0.1258382350206375
1766150074211322400,1270.602322265625,0.04886921867728233,-0.07330382615327835,0.15882496535778046
1766150074221301500,1270.6123015136718,0.0354301854968071,-0.06108652427792549,0.14294247329235077
1766150074231281000,1270.6222810058593,0.015882495790719986,-0.03787364438176155,0.10018189996480942
1766150074241321200,1270.6323212890625,-0.00733038317412138,0.010995574295520782,0.09529497474431992
1766150074251330800,1270.6423308105468,-0.021991148591041565,0.06352998316287994,0.14538592100143433
1766150074261310200,1270.6523103027343,-0.009773843921720982,0.09162978827953339,0.22357667982578278
1766150074271319800,1270.6623198242187,0.021991148591041565,0.0806342139840126,0.304210901260376
1766150074291339500,1270.6823395996093,0.02687807008624077,0.04886921867728233,0.2431243658065796
1766150074301349000,1270.6923491210937,-0.03420845419168472,0.07452555745840073,0.04642575979232788
1766150074311359000,1270.7023588867187,-0.05619960278272629,0.08185594528913498,-0.13072516024112701
1766150074321399300,1270.7123994140625,-0.021991148591041565,0.05375614017248154,-0.20525072515010834
1766150074331409000,1270.7224089355468,-0.018325956538319588,0.04398229718208313,-0.16737708449363708
1766150074341418800,1270.7324187011718,-0.03298672288656235,0.036651913076639175,-0.09896016865968704
1766150074351428600,1270.7424287109375,-0.03298672288656235,0.036651913076639175,-0.09896016865968704
1766150074361469000,1270.7524689941406,-0.05742133408784866,0.039095375686883926,-0.07330382615327835
1766150074371478500,1270.762478515625,-0.06352998316287994,0.06841690838336945,-0.0708603709936142
1766150074381458000,1270.7724580078125,-0.03787364438176155,0.06230825558304787,-0.09285151958465576
1766150074401447000,1270.7924470214843,-0.09896016865968704,0.09040805697441101,-0.07452555745840073
1766150074421405400,1270.812405517578,-0.0403171069920063,0.16004669666290283,-0.03298672288656235
1766150074431415000,1270.8224150390624,-0.0012217304902151227,0.15271630883216858,-0.02321287989616394
1766150074441425000,1270.8324248046874,0.04153883829712868,0.1062905490398407,-0.05619960278272629
1766150074451434800,1270.842434814453,0.05497787147760391,0.04642575979232788,-0.09896016865968704
1766150074461444400,1270.8524443359374,0.07452555745840073,-0.03298672288656235,-0.1514945775270462
1766150074471423700,1270.862423828125,0.09285151958465576,-0.09529497474431992,-0.18081611394882202
1766150074481433300,1270.8724333496093,0.10384709388017654,-0.1417207419872284,-0.16737708449363708
1766150074491412700,1270.8824128417968,0.09896016865968704,-0.16737708449363708,-0.07330382615327835
1766150074551379700,1270.9423796386718,0.08796459436416626,-0.08307767659425735,-0.02932153269648552
1766150074591388200,1270.9823881835937,0.018325956538319588,-0.1722639948129654,0.07330382615327835
1766150074621417500,1271.0124174804687,-0.02076941914856434,-0.21502456068992615,0.14782938361167908
1766150074641437200,1271.0324372558593,-0.07819075137376785,-0.17470745742321014,0.2174680233001709
1766150074651446800,1271.0424467773437,-0.08796459436416626,-0.14782938361167908,0.2174680233001709
1766150074681445600,1271.0724455566406,-0.08552113175392151,-0.11239920556545258,0.030543262138962746
1766150074691424800,1271.0824248046874,-0.08674286305904388,-0.09407325088977814,-0.021991148591041565
1766150074701434600,1271.0924345703124,-0.09896016865968704,-0.03787364438176155,-0.024434609338641167
1766150074731464000,1271.1224638671874,-0.0806342139840126,0.06352998316287994,-0.0012217304902151227
1766150074761493200,1271.1524931640624,0.030543262138962746,0.11972958594560623,-0.02076941914856434
1766150074781482200,1271.1724821777343,0.02932153269648552,0.1417207419872284,-0.14049901068210602
1766150074791522600,1271.1825224609374,0.036651913076639175,0.11484266817569733,-0.18814650177955627
1766150074801501700,1271.1925017089843,0.05742133408784866,0.08674286305904388,-0.19914206862449646
1766150074811511600,1271.2025114746093,0.07208210229873657,0.06841690838336945,-0.19547687470912933
1766150074831470000,1271.222469970703,0.05742133408784866,0.0403171069920063,-0.08918632566928864
1766150074841510400,1271.2325104980468,0.04886921867728233,0.03420845419168472,-0.012217304669320583
1766150074851520000,1271.2425200195312,0.019547687843441963,0.039095375686883926,0.02932153269648552
1766150074861529900,1271.2525297851562,0.030543262138962746,0.039095375686883926,0.051312681287527084
1766150074871539700,1271.2625397949218,0.04153883829712868,0.042760565876960754,0.04153883829712868
1766150074881549300,1271.2725493164062,0.036651913076639175,0.02932153269648552,0.01710422709584236
1766150074891559200,1271.2825590820312,0.030543262138962746,0,0.00733038317412138
1766150074901569000,1271.2925690917968,0.02932153269648552,-0.01710422709584236,0.012217304669320583
1766150074911578600,1271.3025786132812,0.0354301854968071,-0.02932153269648552,-0.0012217304902151227
1766150074921619000,1271.3126188964843,0.028099801391363144,-0.03787364438176155,-0.00366519158706069
1766150074931659300,1271.3226591796874,0.04398229718208313,-0.05009094998240471,0.013439035043120384
1766150074951678700,1271.3426787109374,0.06841690838336945,-0.09040805697441101,-0.04886921867728233
1766150074961688600,1271.3526884765624,0,-0.10995574295520782,-0.010995574295520782
1766150074971698400,1271.362698486328,-0.030543262138962746,-0.1258382350206375,0.07208210229873657
1766150074981708000,1271.3727080078124,-0.006108652334660292,-0.14538592100143433,0.10506882518529892
1766150074991687400,1271.3826875,0.024434609338641167,-0.15271630883216858,0.04642575979232788
1766150075001727700,1271.392727783203,0.03420845419168472,-0.1466076523065567,-0.04642575979232788
1766150075011737300,1271.4027373046874,0.02687807008624077,-0.11972958594560623,-0.11728613078594208
1766150075021716700,1271.412716796875,0.02687807008624077,-0.11972958594560623,-0.11728613078594208
1766150075051746000,1271.44274609375,0.05253441259264946,-0.02932153269648552,0.010995574295520782
1766150075061725200,1271.4527250976562,0.03787364438176155,-0.006108652334660292,0.021991148591041565
1766150075071704300,1271.462704345703,0.019547687843441963,0.00855211354792118,-0.00366519158706069
1766150075081744600,1271.4727446289062,0.01710422709584236,0.00733038317412138,-0.019547687843441963
1766150075091724000,1271.4827241210937,0.042760565876960754,-0.013439035043120384,-0.0403171069920063
1766150075101733600,1271.492733642578,0.08429940044879913,-0.04642575979232788,-0.08796459436416626
1766150075111743500,1271.502743408203,0.09285151958465576,-0.06841690838336945,-0.1258382350206375
1766150075121753300,1271.5127534179687,0.08918632566928864,-0.07696902006864548,-0.11972958594560623
1766150075131763000,1271.522762939453,0.08307767659425735,-0.08674286305904388,-0.05253441259264946
1766150075161792300,1271.552792236328,0.08918632566928864,-0.08307767659425735,0.10018189996480942
1766150075191821600,1271.582821533203,0.06841690838336945,-0.03420845419168472,0.10018189996480942
1766150075211841300,1271.6028413085937,0.045204028487205505,-0.01466076634824276,0.15271630883216858
1766150075221851000,1271.612850830078,0.04398229718208313,-0.006108652334660292,0.1869247704744339
1766150075231830300,1271.6228303222656,0.05375614017248154,-0.0024434609804302454,0.18936823308467865
1766150075251880200,1271.642880126953,0.04153883829712868,-0.019547687843441963,0.16982053220272064
1766150075271869200,1271.662869140625,0.006108652334660292,-0.013439035043120384,0.18814650177955627
1766150075281848600,1271.6728486328125,-0.013439035043120384,-0.0024434609804302454,0.18448130786418915
1766150075291888600,1271.682888671875,-0.010995574295520782,-0.0024434609804302454,0.16859880089759827
1766150075301868000,1271.6928679199218,-0.0024434609804302454,-0.01466076634824276,0.16859880089759827
1766150075311847200,1271.7028471679687,0.004886921960860491,-0.019547687843441963,0.19914206862449646
1766150075321887500,1271.7128874511718,0.021991148591041565,-0.012217304669320583,0.2064724564552307
1766150075331897300,1271.7228974609375,0.02932153269648552,-0.00366519158706069,0.15393804013729095
1766150075341876500,1271.7328764648437,0.00855211354792118,-0.004886921960860491,0.09162978827953339
1766150075361926700,1271.7529267578125,0.015882495790719986,-0.02076941914856434,0.07452555745840073
1766150075381915600,1271.7729155273437,0.03420845419168472,-0.019547687843441963,0.042760565876960754
1766150075391925500,1271.7829255371093,0.04642575979232788,-0.018325956538319588,-0.030543262138962746
1766150075401965600,1271.7929655761718,0.045204028487205505,-0.01466076634824276,-0.07819075137376785
1766150075411945000,1271.8029450683593,0.04153883829712868,-0.012217304669320583,-0.07941248267889023
1766150075421954600,1271.8129545898437,0.025656340643763542,-0.00366519158706069,-0.05864306539297104
1766150075431964400,1271.8229643554687,0.00366519158706069,0.004886921960860491,-0.04886921867728233
1766150075441974300,1271.8329743652343,-0.01466076634824276,0.012217304669320583,-0.06841690838336945
1766150075471972900,1271.8629729003906,-0.019547687843441963,0.0354301854968071,-0.09407325088977814
1766150075482013200,1271.8730131835937,-0.02321287989616394,0.0354301854968071,-0.10506882518529892
1766150075492023000,1271.8830229492187,-0.02076941914856434,0.03420845419168472,-0.11239920556545258
1766150075502033000,1271.8930329589843,-0.02321287989616394,0.03176499158143997,-0.10262536257505417
1766150075512042500,1271.9030424804687,-0.019547687843441963,0.024434609338641167,-0.08307767659425735
1766150075522052400,1271.9130522460937,-0.021991148591041565,0.021991148591041565,-0.07452555745840073
1766150075532031500,1271.9230314941406,-0.00855211354792118,0.021991148591041565,-0.11362093687057495
1766150075542041300,1271.9330412597656,0,0.024434609338641167,-0.14416420459747314
1766150075552051200,1271.9430512695312,0.025656340643763542,0.02321287989616394,-0.12339477986097336
1766150075562091500,1271.9530915527343,0.03787364438176155,0.010995574295520782,-0.05619960278272629
1766150075582111000,1271.9731110839843,0.06719517707824707,-0.01466076634824276,-0.07330382615327835
1766150075592090000,1271.9830900878906,0.05619960278272629,-0.009773843921720982,-0.13561208546161652
1766150075602130400,1271.9931303710937,0.04153883829712868,-0.0024434609804302454,-0.10873401165008545
1766150075612140300,1272.0031403808593,0.05497787147760391,0.00366519158706069,-0.0024434609804302454
1766150075622119400,1272.0131193847656,0.06352998316287994,0.015882495790719986,0.07941248267889023
1766150075632129300,1272.0231293945312,0.059864792972803116,0.018325956538319588,0.08552113175392151
1766150075642169600,1272.0331696777343,0.06719517707824707,0.010995574295520782,0.051312681287527084
1766150075652179200,1272.0431791992187,0.05375614017248154,0.01466076634824276,0.05009094998240471
1766150075662189000,1272.0531889648437,0.04398229718208313,0.012217304669320583,0.09896016865968704
1766150075692218400,1272.0832182617187,0.0354301854968071,-0.00366519158706069,0.18570303916931152
1766150075702197500,1272.0931975097656,0.042760565876960754,-0.010995574295520782,0.17959438264369965
1766150075712237800,1272.1032377929687,0.042760565876960754,-0.010995574295520782,0.17959438264369965
1766150075722247700,1272.1132475585937,0.03787364438176155,-0.01710422709584236,0.14905111491680145
1766150075732226800,1272.1232268066406,0.03420845419168472,-0.02687807008624077,0.09773843735456467
1766150075742236700,1272.1332365722656,0.03298672288656235,-0.03787364438176155,0.04764748737215996
1766150075752215800,1272.1432158203124,0.03420845419168472,-0.05497787147760391,0
1766150075762256100,1272.1532561035156,0.028099801391363144,-0.06475171446800232,-0.03176499158143997
1766150075792285400,1272.1832854003906,0.006108652334660292,-0.0659734457731247,-0.010995574295520782
1766150075802295300,1272.1932954101562,0.0012217304902151227,-0.06230825558304787,-0.024434609338641167
1766150075812305000,1272.2033049316406,-0.0012217304902151227,-0.05619960278272629,-0.04153883829712868
1766150075822314800,1272.2133146972656,-0.01466076634824276,-0.04642575979232788,-0.03298672288656235
1766150075832294100,1272.223294189453,-0.01710422709584236,-0.03176499158143997,-0.02321287989616394
1766150075842334200,1272.2333342285156,-0.021991148591041565,-0.019547687843441963,-0.02687807008624077
1766150075852344000,1272.2433439941406,-0.024434609338641167,-0.0012217304902151227,-0.04886921867728233
1766150075862323500,1272.253323486328,-0.028099801391363144,0.015882495790719986,-0.06719517707824707
1766150075872363500,1272.2633635253906,-0.02932153269648552,0.036651913076639175,-0.08429940044879913
1766150075902332000,1272.2933317871093,-0.030543262138962746,0.05497787147760391,-0.2919935882091522
1766150075912341800,1272.303341796875,-0.0354301854968071,0.06108652427792549,-0.34086281061172485
1766150075922381800,1272.3133818359374,-0.05742133408784866,0.07941248267889023,-0.32620203495025635
1766150075932391700,1272.3233916015624,-0.05864306539297104,0.09285151958465576,-0.25045475363731384
1766150075942401500,1272.333401611328,-0.039095375686883926,0.09896016865968704,-0.17592918872833252
1766150075952380700,1272.3433806152343,-0.01710422709584236,0.08796459436416626,-0.14905111491680145
1766150075962421000,1272.3534208984374,-0.00733038317412138,0.0659734457731247,-0.14782938361167908
1766150075972430800,1272.363430908203,-0.004886921960860491,0.045204028487205505,-0.13072516024112701
1766150075982440400,1272.3734404296874,-0.0024434609804302454,0.02687807008624077,-0.07696902006864548
1766150075992450300,1272.3834501953124,0.010995574295520782,0.010995574295520782,-0.009773843921720982
1766150076012500200,1272.4035002441406,0.02076941914856434,-0.0012217304902151227,-0.010995574295520782
1766150076022510000,1272.4135100097656,0.019547687843441963,0,-0.07941248267889023
1766150076032489500,1272.423489501953,0.018325956538319588,0.004886921960860491,-0.12828169763088226
1766150076042529500,1272.4335295410156,0.015882495790719986,0.00366519158706069,-0.13072516024112701
1766150076052539400,1272.4435393066406,0.01466076634824276,-0.0024434609804302454,-0.1111774742603302
1766150076062549200,1272.4535493164062,0.009773843921720982,-0.010995574295520782,-0.09407325088977814
1766150076072558800,1272.4635588378906,-0.0012217304902151227,-0.015882495790719986,-0.08429940044879913
1766150076082599200,1272.4735991210937,-0.01466076634824276,-0.01710422709584236,-0.07696902006864548
1766150076102618600,1272.4936186523437,-0.05009094998240471,-0.036651913076639175,-0.05009094998240471
1766150076122638300,1272.5136384277343,-0.045204028487205505,-0.0403171069920063,-0.006108652334660292
1766150076132648000,1272.5236479492187,-0.0403171069920063,-0.0403171069920063,0.009773843921720982
1766150076142657800,1272.5336577148437,-0.05497787147760391,-0.0403171069920063,0.010995574295520782
1766150076152667600,1272.5436677246093,-0.06475171446800232,-0.02932153269648552,0.006108652334660292
1766150076162708000,1272.5537080078125,-0.05864306539297104,-0.012217304669320583,0.0012217304902151227
1766150076172717600,1272.5637175292968,-0.05375614017248154,0.004886921960860491,0.004886921960860491
1766150076182697000,1272.5736970214843,-0.05009094998240471,0.019547687843441963,0.01466076634824276
1766150076202716400,1272.5937163085937,-0.042760565876960754,0.039095375686883926,0.009773843921720982
1766150076222675000,1272.613675048828,-0.04642575979232788,0.05009094998240471,-0.03298672288656235
1766150076232684500,1272.6236845703124,-0.04642575979232788,0.051312681287527084,-0.02687807008624077
1766150076252734700,1272.6437346191406,-0.05375614017248154,0.06719517707824707,0.03176499158143997
1766150076262713900,1272.6537138671874,-0.05375614017248154,0.07452555745840073,0.03176499158143997
1766150076272693200,1272.663693359375,-0.06719517707824707,0.07819075137376785,0.018325956538319588
1766150076282733600,1272.673733642578,-0.0806342139840126,0.07330382615327835,0.019547687843441963
1766150076292743200,1272.6837431640624,-0.0757472887635231,0.06230825558304787,0.04153883829712868
1766150076312763000,1272.703762939453,-0.09040805697441101,0.039095375686883926,0.07696902006864548
1766150076332782300,1272.7237822265624,-0.09651670604944229,0.030543262138962746,-0.006108652334660292
1766150076342792200,1272.733792236328,-0.10995574295520782,0.03176499158143997,-0.04764748737215996
1766150076352801800,1272.7438017578124,-0.12950342893600464,0.03420845419168472,-0.08674286305904388
1766150076362903000,1272.7539030761718,-0.14294247329235077,0.03420845419168472,-0.1014036312699318
1766150076372913000,1272.7639128417968,-0.14782938361167908,0.042760565876960754,-0.10262536257505417
1766150076382922800,1272.7739228515625,-0.1514945775270462,0.051312681287527084,-0.0806342139840126
1766150076392932400,1272.7839323730468,-0.1368338167667389,0.05497787147760391,-0.05497787147760391
1766150076402942200,1272.7939421386718,-0.13927727937698364,0.042760565876960754,-0.03787364438176155
1766150076422931200,1272.8139311523437,-0.14782938361167908,0.02321287989616394,-0.02687807008624077
1766150076432971500,1272.8239714355468,-0.14294247329235077,0.009773843921720982,-0.05375614017248154
1766150076442981400,1272.8339814453125,-0.12217304855585098,-0.0012217304902151227,-0.08552113175392151
1766150076452991000,1272.8439909667968,-0.10873401165008545,-0.013439035043120384,-0.12217304855585098
1766150076463000800,1272.8540007324218,-0.10995574295520782,-0.01710422709584236,-0.14416420459747314
1766150076472980000,1272.8639799804687,-0.10506882518529892,-0.00366519158706069,-0.14294247329235077
1766150076482989800,1272.8739897460937,-0.09040805697441101,-0.0012217304902151227,-0.10506882518529892
1766150076492999700,1272.8839997558593,-0.09529497474431992,-0.0024434609804302454,-0.03420845419168472
1766150076502978800,1272.8939787597656,-0.09651670604944229,-0.00855211354792118,0.03787364438176155
1766150076533008100,1272.9240080566406,-0.05742133408784866,-0.04153883829712868,-0.04886921867728233
1766150076542987500,1272.933987548828,-0.05009094998240471,-0.03176499158143997,-0.05864306539297104
1766150076552997000,1272.9439970703124,-0.015882495790719986,-0.010995574295520782,-0.028099801391363144
1766150076563007000,1272.954007080078,0.00366519158706069,-0.006108652334660292,-0.00733038317412138
1766150076573016600,1272.9640166015624,0.010995574295520782,-0.01710422709584236,0.0012217304902151227
1766150076582996000,1272.9739958496093,0.013439035043120384,-0.010995574295520782,0.021991148591041565
1766150076593005800,1272.984005859375,0.042760565876960754,0.0024434609804302454,0.0757472887635231
1766150076603015400,1272.9940153808593,0.0806342139840126,0.012217304669320583,0.14416420459747314
1766150076612994800,1273.0039948730468,0.12217304855585098,0.036651913076639175,0.1771509200334549
1766150076633014300,1273.0240141601562,0.15027284622192383,0.06230825558304787,0.01710422709584236
1766150076643024100,1273.0340241699218,0.12461651116609573,0.025656340643763542,-0.028099801391363144
1766150076653033700,1273.0440336914062,0.12217304855585098,0.015882495790719986,0.04642575979232788
1766150076662982400,1273.053982421875,0.1258382350206375,-0.02687807008624077,0.17348572611808777
1766150076672992300,1273.0639921875,0.11484266817569733,-0.08918632566928864,0.24678955972194672
1766150076683002000,1273.0740021972656,0.08674286305904388,-0.16982053220272064,0.2590068578720093
1766150076693011700,1273.08401171875,0.06230825558304787,-0.24434609711170197,0.3066543638706207
1766150076702991000,1273.0939912109375,0.08185594528913498,-0.33597588539123535,0.4141666293144226
1766150076713000700,1273.1040007324218,0.13561208546161652,-0.4605923891067505,0.5070181488990784
1766150076743060700,1273.1340607910156,0.4251621961593628,-0.8478809595108032,0.5876523852348328
1766150076753070300,1273.1440703125,0.5595525503158569,-0.9676105380058289,0.5510004758834839
1766150076763080200,1273.154080078125,0.7049384713172913,-1.0812314748764038,0.49724429845809937
1766150076773090000,1273.1640900878906,0.8686503767967224,-1.1997393369674683,0.41172316670417786
1766150076783069200,1273.1740690917968,1.0592403411865234,-1.3072515726089478,0.32009339332580566
1766150076793109500,1273.1841096191406,1.264491081237793,-1.4049900770187378,0.2528982162475586
1766150076803119000,1273.194119140625,1.4538593292236328,-1.4941763877868652,0.26511552929878235
1766150076813129000,1273.20412890625,1.6297885179519653,-1.557706356048584,0.34697145223617554
1766150076823138800,1273.2141389160156,1.8154915571212769,-1.595579981803894,0.41661009192466736
1766150076843158300,1273.234158203125,2.1820106506347656,-1.5650367736816406,0.16982053220272064
1766150076853137700,1273.2441376953125,2.3970351219177246,-1.4953981637954712,-0.2125810980796814
1766150076863116800,1273.2541166992187,2.5864033699035645,-1.4098769426345825,-0.6927211880683899
1766150076873126700,1273.2641267089843,2.735454559326172,-1.3145819902420044,-1.1313223838806152
1766150076883136300,1273.2741362304687,2.891836166381836,-1.2119566202163696,-1.4538593292236328
1766150076893146000,1273.2841459960937,3.0689868927001953,-1.1081095933914185,-1.6786576509475708
1766150076903125200,1273.2941252441406,3.221703290939331,-0.9834930300712585,-1.863139033317566
1766150076913165600,1273.3041655273437,3.3658676147460938,-0.817337691783905,-1.9730947017669678
1766150076923175400,1273.3141755371093,3.517362117767334,-0.6218608021736145,-1.977981686592102
1766150076953143600,1273.3441435546874,4.173431396484375,-0.10506882518529892,-1.6762142181396484
1766150076963153400,1273.3541533203124,4.357912540435791,0.07330382615327835,-1.6395623683929443
1766150076973163300,1273.364163330078,4.564384937286377,0.2834414839744568,-1.6200146675109863
1766150076983142400,1273.3741423339843,4.795292377471924,0.5400048494338989,-1.578475832939148
1766150076993152300,1273.38415234375,4.98588228225708,0.8234463334083557,-1.5503759384155273
1766150077003161900,1273.3941618652343,5.120272636413574,1.1093312501907349,-1.568701982498169
1766150077013141200,1273.4041413574218,5.248554229736328,1.3781119585037231,-1.6102408170700073
1766150077023150800,1273.4141508789062,5.403714179992676,1.5845844745635986,-1.6566665172576904
1766150077033160700,1273.4241606445312,5.567425727844238,1.7263051271438599,-1.7654005289077759
1766150077063159600,1273.4541596679687,5.869193077087402,1.9156733751296997,-2.2149972915649414
1766150077083179000,1273.474178955078,6.134308815002441,2.20278000831604,-2.535090684890747
1766150077093188900,1273.4841889648437,6.130643367767334,2.3457224369049072,-2.4837779998779297
1766150077103198500,1273.494198486328,6.064670085906982,2.355496406555176,-2.196671485900879
1766150077113208300,1273.504208251953,6.047565937042236,2.289522886276245,-1.7311921119689941
1766150077123218200,1273.5142182617187,6.06833553314209,2.213775634765625,-1.3267992734909058
1766150077133227800,1273.524227783203,6.102543830871582,2.166128158569336,-1.0812314748764038
1766150077143207200,1273.5342072753906,6.111095905303955,2.1868975162506104,-1.0458012819290161
1766150077173206000,1273.5642060546875,5.859419345855713,2.524095296859741,-1.1020009517669678
1766150077193195000,1273.5841950683593,5.638286113739014,2.6083946228027344,-0.8185594081878662
1766150077203204600,1273.5942045898437,5.490457057952881,2.576629638671875,-0.8393288254737854
1766150077213184000,1273.6041840820312,5.3499579429626465,2.5216517448425293,-0.9578366875648499
1766150077223163100,1273.6141630859374,5.200906753540039,2.4495697021484375,-1.0971139669418335
1766150077233173000,1273.624173095703,5.110498428344727,2.3713788986206055,-1.186300277709961
1766150077243182600,1273.6341826171874,5.098281383514404,2.30051851272583,-1.2522737979888916
1766150077253192400,1273.6441923828124,5.083620548248291,2.244318962097168,-1.3878858089447021
1766150154118140000,1350.509139892578,0.09285151958465576,-0.02932153269648552,-0.47769662737846375
1766150154128019000,1350.5190190429687,0.23945917189121246,-0.015882495790719986,0.09896016865968704
1766150154167566600,1350.5585666503907,-0.3139847218990326,-0.7122688889503479,-2.087937355041504
1766150154197504300,1350.5885041503907,-0.5204572081565857,-0.9358455538749695,-1.4245377779006958
1766150154217462800,1350.608462890625,-0.6817256212234497,-1.1020009517669678,-1.3829989433288574
1766150154267420200,1350.6584201660157,-1.0824532508850098,-1.891238808631897,-2.741563320159912
1766150154297357800,1350.6883579101564,-0.6157521605491638,-1.63467538356781,-2.961474657058716
1766150154317377300,1350.7083771972657,-0.09285151958465576,-1.4013248682022095,-2.7843236923217773
1766150154327356700,1350.7183566894532,0.22479841113090515,-1.4453071355819702,-2.802649736404419
1766150154357355500,1350.74835546875,0.9517280459403992,-1.6994271278381348,-2.7342329025268555
1766150154397333500,1350.7883334960939,1.539380431175232,-2.037846565246582,-1.470963478088379
1766150154447260200,1350.8382602539064,1.4746286869049072,-2.954144239425659,-0.23335053026676178
1766150154487207700,1350.878207763672,1.5931365489959717,-3.191159963607788,0.18936823308467865
1766150154567072300,1350.958072265625,2.630385637283325,-3.2681291103363037,0.004886921960860491
1766150154577051400,1350.968051513672,2.730567693710327,-3.3597588539123535,-0.01710422709584236
1766150154627008800,1351.0180087890626,2.2907447814941406,-3.1887166500091553,0.8014551997184753
1766150154636988000,1351.0279877929688,2.177123785018921,-3.050661087036133,1.1032226085662842
1766150154656977000,1351.0479768066407,2.0977113246917725,-3.0140092372894287,0.48380526900291443
1766150154666986800,1351.0579868164064,2.1563544273376465,-2.972470283508301,-0.48747047781944275
1766150154696955000,1351.0879548339844,1.1020009517669678,-3.4684927463531494,-2.0891592502593994
1766150154706964700,1351.09796484375,1.215621829032898,-3.2986724376678467,-0.5729916095733643
1766150154716944100,1351.107944091797,1.1911872625350952,-3.2119295597076416,0.5473352670669556
1766150154726953700,1351.1179536132813,1.0824532508850098,-3.1972687244415283,0.9260717034339905
1766150154736963600,1351.127963623047,0.9737191796302795,-3.1166343688964844,0.788016140460968
1766150154746942700,1351.1379426269532,0.96883225440979,-2.9468140602111816,0.3933972120285034
1766150154756952600,1351.1479526367189,1.0030407905578613,-2.7757716178894043,-0.06108652427792549
1766150154766931700,1351.157931640625,0.9224064946174622,-2.6389379501342773,-0.2822197377681732
1766150154776911000,1351.1679111328126,0.789237916469574,-2.4446825981140137,-0.1771509200334549
1766150154786890200,1351.1778901367188,0.7586946487426758,-2.1233675479888916,0.16371189057826996
1766150154836817200,1351.227817138672,0.9651671051979065,-0.3604104816913605,0.9468411207199097
1766150154846826800,1351.2378266601563,1.026253581047058,-0.11972958594560623,1.0616837739944458
1766150154856806100,1351.2478061523439,1.0812314748764038,0.12828169763088226,1.1691961288452148
1766150154866815700,1351.2578156738282,1.1203268766403198,0.38240164518356323,1.2095131874084473
1766150154876795100,1351.2677951660157,1.1508700847625732,0.5656611919403076,1.2021827697753906
1766150154886774300,1351.277774169922,1.2131783962249756,0.720820963382721,1.2400563955307007
1766150154896784100,1351.2877841796876,1.246165156364441,0.8820894360542297,1.292590856552124
1766150154916803600,1351.307803466797,1.2388347387313843,1.0409144163131714,1.4697418212890625
1766150154926813400,1351.3178134765626,1.3170254230499268,1.1276572942733765,1.6126842498779297
1766150154936792600,1351.3277924804688,1.4367550611495972,1.1728612184524536,1.6383405923843384
1766150154946802400,1351.3378024902345,1.5222761631011963,1.2950342893600464,1.5601497888565063
1766150154956781600,1351.3477814941407,1.5601497888565063,1.4294246435165405,1.4550809860229492
1766150154966761000,1351.3577609863282,1.5442672967910767,1.4306464195251465,1.2388347387313843
1766150154976770600,1351.3677705078126,1.49906325340271,1.351233959197998,0.39095374941825867
1766150391840964600,1588.2319645996095,0.10384709388017654,-0.0354301854968071,-0.46792277693748474
1766150391870202400,1588.261202392578,-0.1661553531885147,0.05864306539297104,-0.6805039048194885
1766150391879951000,1588.270951171875,-0.2125810980796814,0.11239920556545258,-0.6939429044723511
1766150391889961000,1588.2809609375,-0.1661553531885147,0.1514945775270462,-0.5057964324951172
1766150391899909600,1588.2909096679687,-0.16249015927314758,0.12217304855585098,-0.485027015209198
1766150391909919500,1588.3009194335937,-0.13805554807186127,0.1111774742603302,-0.46670106053352356
1766150391919868200,1588.3108681640624,-0.10384709388017654,0.10995574295520782,-0.4239404797554016
1766150391929878000,1588.3208779296874,-0.07941248267889023,0.11972958594560623,-0.39095374941825867
1766150391959846100,1588.3508461914062,-0.09773843735456467,0.12828169763088226,-0.5265658497810364
1766150392039802400,1588.4308022460937,-0.0757472887635231,0.10384709388017654,-1.5234979391098022
1766150392089759500,1588.4807595214843,-0.901637077331543,-0.4740314185619354,-2.495995283126831
1766150392119727900,1588.510727783203,-1.4575244188308716,-1.282817006111145,-3.6163222789764404
1766150392129707000,1588.52070703125,-1.6578882932662964,-1.6016886234283447,-4.228409290313721
1766150392139716900,1588.530716796875,-1.624901533126831,-1.8277088403701782,-4.658458232879639
1766150392169715700,1588.5607158203125,-1.1410962343215942,-2.2883012294769287,-4.021936893463135
1766150392199683800,1588.5906838378905,-1.19607412815094,-2.4434609413146973,-3.137403964996338
1766150392219672800,1588.6106728515624,-1.2315043210983276,-2.6474900245666504,-2.383596181869507
1766150392229682700,1588.6206826171874,-1.1484266519546509,-2.7085764408111572,-2.1624629497528076
1766150392239692300,1588.6306923828124,-1.0604621171951294,-2.7061331272125244,-2.177123785018921
1766150392279701000,1588.6707009277343,-1.3878858089447021,-1.585806131362915,-3.6945130825042725
1766150392329719300,1588.7207192382812,-1.863139033317566,1.7214182615280151,-3.5613443851470947
1766150392379707100,1588.77070703125,-2.654820442199707,4.012163162231445,0.7819074988365173
1766150392389716700,1588.780716796875,-2.758667469024658,4.337143421173096,0.9101892113685608
1766150392399696100,1588.7906960449218,-2.9077186584472656,4.605924129486084,1.0225883722305298
1766150392409705700,1588.8007058105468,-3.084869384765625,4.785518169403076,1.216843605041504
1766150392419685000,1588.8106850585937,-3.3121113777160645,4.871039390563965,1.3671164512634277
1766150392429664300,1588.8206643066405,-3.536909818649292,4.855156898498535,1.4782938957214355
1766150392439643600,1588.8306435546874,-3.623652696609497,4.743979454040527,1.4477506875991821
1766150392449622800,1588.8406228027343,-3.590665817260742,4.605924129486084,1.1068878173828125
1766150392459632600,1588.8506325683593,-3.525914192199707,4.486194133758545,0.5436700582504272
1766150392489631500,1588.8806315917968,-3.1557297706604004,4.0549235343933105,-0.8405506014823914
1766150392499580200,1588.890580078125,-3.2033772468566895,3.89732027053833,-0.8319984674453735
1766150392509589800,1588.90058984375,-3.163060188293457,3.732386589050293,-0.5143485069274902
1766150392519569200,1588.9105690917968,-3.028669834136963,3.5613443851470947,-0.10873401165008545
1766150392529548300,1588.9205483398437,-2.9333748817443848,3.3573153018951416,0.15882496535778046
1766150392549568000,1588.9405681152343,-2.8148670196533203,2.758667469024658,0.2736676335334778
1766150563147270000,1759.5382697753905,0.10751228034496307,-0.05253441259264946,-0.48380526900291443
1766150563157149200,1759.5481491699218,0.29565876722335815,-0.051312681287527084,0.08429940044879913
1766150563176768800,1759.5677687988282,0.09773843735456467,-0.3591887652873993,-0.8979719281196594
1766150563196727300,1759.587727294922,0.03787364438176155,-0.5595525503158569,-1.665218710899353
1766150563226665000,1759.6176650390626,-0.2675589919090271,-0.6890559792518616,-2.772106409072876
1766150563236674600,1759.627674560547,-0.44715335965156555,-0.7134906053543091,-2.9492573738098145
1766150563246654000,1759.6376540527344,-0.5839871764183044,-0.7012733221054077,-2.8099801540374756
1766150563256633000,1759.6476330566406,-0.5900958180427551,-0.656069278717041,-2.515542984008789
1766150563306621000,1759.6976208496094,-0.22357667982578278,-0.2431243658065796,-2.1697933673858643
1766150563316630800,1759.707630859375,-0.2272418737411499,-0.2785545587539673,-2.246762275695801
1766150563346568400,1759.737568359375,-0.37629300355911255,-0.4495968222618103,-2.1673498153686523
1766150563376567300,1759.7675673828126,-0.48258355259895325,-0.46547931432724,-2.2064452171325684
1766150563406505000,1759.7975048828125,-0.4948008358478546,-0.24923302233219147,-1.7959438562393188
1766150563416484400,1759.807484375,-0.46181413531303406,-0.16371189057826996,-1.380555510520935
1766150563456401200,1759.847401123047,-0.251676470041275,0.23335053026676178,-0.720820963382721
1766150563486278000,1759.8772778320313,-0.32498031854629517,0.20891591906547546,-0.7086036801338196
1766150563596141300,1759.987141357422,-0.27000242471694946,0.5558874011039734,-0.3127630054950714
1766150563606120400,1759.9971203613281,-0.2528982162475586,0.5913175344467163,-0.16371189057826996
1766150563616130300,1760.0071303710938,-0.2125810980796814,0.5363397002220154,-0.00733038317412138
1766150563626170600,1760.017170654297,-0.27122417092323303,0.48380526900291443,0.021991148591041565
1766150563636180200,1760.0271801757813,-0.22846360504627228,0.4740314185619354,-0.09529497474431992
1766150563666209500,1760.0572094726563,-0.18814650177955627,0.5876523852348328,0.09407325088977814
1766150563686229200,1760.077229248047,-0.17104226350784302,0.7244861721992493,0.35063666105270386
1766150563716227800,1760.1072277832031,-0.08307767659425735,0.6010913848876953,0.4813618063926697
1766150563726237700,1760.1172377929688,-0.09162978827953339,0.5143485069274902,0.32009339332580566
1766150563736247600,1760.1272475585938,-0.06719517707824707,0.485027015209198,0.2370157092809677
1766150563766185200,1760.1571853027344,-0.05253441259264946,0.5473352670669556,0.5216789245605469
1766150563776095000,1760.1670949707031,-0.02687807008624077,0.4605923891067505,0.5241223573684692
1766150563786043600,1760.177043701172,-0.04642575979232788,0.4031710624694824,0.46547931432724
1766150563796023000,1760.1870229492188,-0.03298672288656235,0.34697145223617554,0.39095374941825867
1766150563805971700,1760.1969716796875,-0.045204028487205505,0.3286454975605011,0.2981022298336029
1766150563816012000,1760.2070119628906,-0.05497787147760391,0.31520646810531616,0.27488934993743896
1766150563825991200,1760.2169912109375,-0.09529497474431992,0.3127630054950714,0.3237585723400116
1766150563835970300,1760.2269702148437,-0.2174680233001709,0.4190535545349121,0.46303585171699524
1766150563845919200,1760.2369191894531,-0.059864792972803116,0.5265658497810364,0.8491026759147644
1766150563875917800,1760.2669177246094,0.051312681287527084,0.4337143301963806,-0.09040805697441101
1766150563885927700,1760.276927734375,0.06352998316287994,0.4251621961593628,0.4190535545349121
1766150563895968000,1760.2869680175781,0.1258382350206375,0.45814892649650574,0.8833111524581909
1766150563905977900,1760.2969777832031,0.07330382615327835,0.4447098970413208,0.7037167549133301
1766150563915987500,1760.3069875488281,0.0708603709936142,0.3995058834552765,0.3127630054950714
1766150563925997300,1760.3169973144531,0.08918632566928864,0.36651915311813354,0.22968533635139465
1766150563936007200,1760.3270070800781,0.07819075137376785,0.3078760802745819,0.3286454975605011
1766150563946016800,1760.3370168457031,0.0659734457731247,0.251676470041275,0.3188716471195221
1766150563955996200,1760.34699609375,0.06719517707824707,0.23090706765651703,0.2590068578720093
1766150563965975300,1760.356975341797,0.05619960278272629,0.17959438264369965,0.2125810980796814
1766150563985994800,1760.376994873047,0.028099801391363144,0.15760323405265808,0.024434609338641167
1766150563995974100,1760.3869741210938,0.04398229718208313,0.14782938361167908,-0.03787364438176155
1766150564005953300,1760.3969533691406,0.08918632566928864,0.16371189057826996,0.05009094998240471
1766150564015963100,1760.4069631347656,0.13439035415649414,0.25045475363731384,0.2871066629886627
1766150564025942300,1760.4169423828125,0.15393804013729095,0.384845107793808,0.5681046843528748
1766150564035921700,1760.4269216308594,0.27122417092323303,0.49357911944389343,0.9138544201850891
1766150564045900800,1760.4369008789063,0.036651913076639175,0.7757988572120667,1.1985175609588623
1766150564055910700,1760.4469106445313,-0.12217304855585098,1.026253581047058,1.5638149976730347
1766150564075838700,1760.466838623047,0.5436700582504272,0.9651671051979065,1.7043139934539795
1766150564085817900,1760.4768178710938,0.40072759985923767,0.769690215587616,0.0806342139840126
1766150564095827700,1760.4868276367188,0.5656611919403076,0.8148942589759827,0.3396410644054413
1766150564105837300,1760.4968374023438,0.5656611919403076,0.8148942589759827,0.3396410644054413
1766150564115847200,1760.5068471679688,0.5375614166259766,1.0311405658721924,1.6615535020828247
1766150564125857000,1760.5168569335938,0.2638937830924988,0.8503243923187256,0.6499606370925903
1766150564145876500,1760.5368764648438,0.18325957655906677,0.7513642311096191,0.07208210229873657
1766150564155855600,1760.5468557128906,0.09651670604944229,0.7098253965377808,0.05009094998240471
1766150564175875300,1760.5668752441406,-0.22357667982578278,0.6829473376274109,-0.5155702829360962
1766150564185885000,1760.5768850097656,-0.3384193480014801,0.6670648455619812,-1.2388347387313843
1766150564195894800,1760.5868947753906,-0.41172316670417786,0.6572909951210022,-1.2864822149276733
1766150564205843500,1760.5968435058594,-0.4642575979232788,0.5925393104553223,-1.0018190145492554
1766150564215853300,1760.6068532714844,-0.45204028487205505,0.4960225820541382,-1.0238101482391357
1766150564225832400,1760.6168325195313,-0.4948008358478546,0.3396410644054413,-1.1362093687057495
1766150564235842300,1760.6268422851563,-0.41172316670417786,0.29565876722335815,-1.166752576828003
1766150564245821400,1760.6368215332031,-0.3677408695220947,0.45814892649650574,-1.19607412815094
1766150564255861800,1760.6468618164063,-0.27488934993743896,0.4043927788734436,-0.8857545852661133
1766150564275850800,1760.6668508300781,-0.26145032048225403,0.09651670604944229,-0.96883225440979
1766150564295870200,1760.6868701171875,-0.2076941877603531,-0.010995574295520782,-1.4648548364639282
1766150564305849600,1760.696849609375,-0.14294247329235077,0.03298672288656235,-0.8625417351722717
1766150564315890000,1760.7068898925781,-0.06841690838336945,0.10018189996480942,-0.4789183437824249
1766150564325899500,1760.7168994140625,-0.015882495790719986,0.13439035415649414,-0.32498031854629517
1766150564345919200,1760.7369191894531,0.14049901068210602,0.12095131725072861,-0.3628539443016052
1766150564355928800,1760.7469287109375,0.14905111491680145,0.19547687470912933,-0.3628539443016052
1766150564365908200,1760.756908203125,0.21380282938480377,0.2541199326515198,-0.31031954288482666
1766150564385927700,1760.776927734375,0.3604104816913605,0.37629300355911255,-0.31031954288482666
1766150564395937500,1760.7869375,0.4105014503002167,0.32131510972976685,-0.49724429845809937
1766150564405916700,1760.796916748047,0.5338962078094482,0.3628539443016052,-0.588874101638794
1766150564415957000,1760.80695703125,0.5693264007568359,0.4239404797554016,-0.6291912198066711
1766150564425905700,1760.8169057617188,0.6108652353286743,0.5338962078094482,-0.32498031854629517
1766150564435885000,1760.8268850097656,0.7012733221054077,0.6328563690185547,0.08185594528913498
1766150564445864200,1760.8368642578125,0.8307767510414124,0.6145304441452026,0.1612684279680252
1766150564455874000,1760.8468740234375,0.8784242272377014,0.5681046843528748,-0.04398229718208313
1766150564485873000,1760.8768728027344,1.0396926403045654,0.4386012554168701,-0.6902777552604675
1766150564495882500,1760.8868825683594,1.0971139669418335,0.44593164324760437,-0.5900958180427551
1766150564505862000,1760.8968618164063,1.2095131874084473,0.4202753007411957,-0.2590068578720093
1766150564515841000,1760.9068410644531,1.2095131874084473,0.5314527750015259,-0.009773843921720982
1766150564525851000,1760.9168508300781,1.284038782119751,0.48258355259895325,0.09896016865968704
1766150564535860500,1760.9268605957031,1.3768903017044067,0.3530801236629486,-0.08429940044879913
1766150564545839900,1760.93683984375,1.4379768371582031,0.2687807083129883,-0.4508185386657715
1766150564555819000,1760.946819091797,1.4294246435165405,0.20891591906547546,-0.7611380815505981
1766150564565798400,1760.9567983398438,1.451415777206421,0.20402899384498596,-0.7318165898323059
1766150564595766500,1760.9867666015625,1.500285029411316,-0.03298672288656235,-0.8735373020172119
1766150564605715200,1760.9967150878906,1.4831807613372803,-0.15882496535778046,-1.2119566202163696
1766150564615694600,1761.0066945800781,1.510058879852295,-0.11362093687057495,-1.2119566202163696
1766150564625673700,1761.016673828125,1.6969836950302124,0.04764748737215996,-0.8417723178863525
1766150564635653000,1761.026653076172,1.814269781112671,0.18570303916931152,-0.5351179838180542
1766150564645601800,1761.0366018066406,1.9156733751296997,0.16004669666290283,-0.44837507605552673
1766150564655672600,1761.046672607422,2.052507162094116,0.0708603709936142,-0.769690215587616
1766150564665621200,1761.0566213378906,2.079385280609131,0.01466076634824276,-1.1374311447143555
1766150564675661600,1761.0666616210938,2.009746551513672,-0.018325956538319588,-1.3964380025863647
1766150564695650600,1761.0866506347656,1.9156733751296997,-0.10506882518529892,-1.1936306953430176
1766150564705630000,1761.0966298828125,1.9327776432037354,0.08307767659425735,-0.8784242272377014
1766150564715639600,1761.1066396484375,2.0060815811157227,0.251676470041275,-0.6670648455619812
1766150564725619000,1761.1166188964844,2.032959461212158,0.3029891550540924,-0.7929030656814575
1766150564735659300,1761.1266591796875,2.054950714111328,0.11484266817569733,-1.1203268766403198
1766150564745668900,1761.1366689453125,2.054950714111328,0.11484266817569733,-1.1203268766403198
1766150564755678700,1761.1466787109375,2.079385280609131,-0.1270599663257599,-1.2510520219802856
1766150564765688300,1761.1566882324219,2.0476202964782715,-0.15882496535778046,-1.243721604347229
1766150564775667700,1761.1666677246094,2.0647244453430176,0.024434609338641167,-1.0458012819290161
1766150564805666600,1761.1966665039063,1.8863518238067627,-0.1368338167667389,-0.998153805732727
1766150564815707000,1761.2067067871094,1.8374826908111572,-0.21013765037059784,-1.027475357055664
1766150564825716500,1761.2167165527344,1.8655824661254883,-0.11484266817569733,-0.8600982427597046
1766150564835695900,1761.2266958007813,1.938886284828186,0.05009094998240471,-0.5400048494338989
1766150564845705500,1761.2367055664063,1.9364428520202637,0.1062905490398407,-0.43615779280662537
1766150564865633500,1761.256633544922,1.909564733505249,-0.13805554807186127,-0.8881980776786804
1766150564875643400,1761.266643310547,1.8191566467285156,-0.17348572611808777,-0.8307767510414124
1766150564885592000,1761.2765920410156,1.832595705986023,-0.09285151958465576,-0.6023131608963013
1766150564905581000,1761.2965810546875,1.8863518238067627,0.10384709388017654,-0.16249015927314758
1766150564915560200,1761.3065603027344,1.9034560918807983,0.2871066629886627,-0.19058994948863983
1766150564925539600,1761.3165395507813,1.9437731504440308,0.3543018400669098,-0.32620203495025635
1766150564945467400,1761.3364672851562,1.9425514936447144,0.18081611394882202,-0.616973876953125
1766150564965487000,1761.356487060547,1.9266690015792847,0.10873401165008545,-0.4740314185619354
1766150564975496700,1761.3664965820312,1.9339994192123413,0.13316862285137177,-0.6389650702476501
1766150564985476000,1761.3764760742188,1.938886284828186,0.1111774742603302,-0.7770205736160278
1766150564995455200,1761.3864553222656,1.8949040174484253,0.03298672288656235,-0.6218608021736145
1766150565015444200,1761.4064443359375,1.7568484544754028,-0.006108652334660292,-0.5595525503158569
1766150565025454000,1761.4164541015625,1.6310101747512817,0.024434609338641167,-0.4764748811721802
1766150565035433200,1761.4264331054687,1.5748106241226196,0.04764748737215996,-0.47769662737846375
1766150565045412600,1761.4364125976563,1.5125023126602173,0.01710422709584236,-0.7037167549133301
1766150565055453000,1761.4464528808594,1.4233160018920898,-0.051312681287527084,-0.7562511563301086
1766150565065432000,1761.4564321289063,1.3255776166915894,-0.14049901068210602,-0.5461135506629944
1766150565075442000,1761.4664418945313,1.224173903465271,-0.17592918872833252,-0.2565633952617645
1766150565085421000,1761.4764211425781,1.0775662660598755,-0.08429940044879913,-0.2382374405860901
1766150565095431000,1761.4864309082031,0.8894197940826416,0.024434609338641167,-0.3139847218990326
1766150565115359000,1761.5063588867188,0.7916813492774963,0.14294247329235077,-0.14538592100143433
1766150565135378400,1761.5263784179688,0.7257078886032104,-0.018325956538319588,-0.20891591906547546
1766150565145357600,1761.5363576660156,0.7037167549133301,-0.1270599663257599,-0.29565876722335815
1766150565155337000,1761.5463369140625,0.6243042945861816,-0.18814650177955627,-0.2626720666885376
1766150565165316000,1761.5563161621094,0.6096435189247131,-0.24190263450145721,-0.00733038317412138
1766150565175326000,1761.5663259277344,0.608421802520752,-0.2431243658065796,0.1319468915462494
1766150565185335600,1761.5763354492187,0.5448917746543884,-0.24068090319633484,-0.05497787147760391
1766150565195315000,1761.5863149414063,0.5314527750015259,-0.2675589919090271,-0.13561208546161652
1766150565205294000,1761.5962941894531,0.49235737323760986,-0.3579670190811157,-0.11362093687057495
1766150565215304000,1761.6063039550781,0.5925393104553223,-0.34697145223617554,0.028099801391363144
1766150565225283000,1761.6162829589844,0.5290092825889587,-0.3176499307155609,-0.18325957655906677
1766150565255251500,1761.6462514648438,0.44593164324760437,-0.47280970215797424,-0.8136724829673767
1766150565265200000,1761.6562001953125,0.4398229718208313,-0.5338962078094482,-0.9260717034339905
1766150565275179500,1761.6661794433594,0.4398229718208313,-0.5558874011039734,-0.7281513810157776
1766151087116445000,2283.507444824219,0.1319468915462494,-0.036651913076639175,-0.48869219422340393
1766151087165632800,2283.5566328125,-0.0806342139840126,0.7281513810157776,-0.1258382350206375
1766151087185552400,2283.5765524902345,0.05009094998240471,0.8991936445236206,-0.01466076634824276
1766151087195531500,2283.5865314941407,0.10384709388017654,0.9285151958465576,0.0024434609804302454
1766151087205480200,2283.5964802246094,0.04886921867728233,0.9175195693969727,-0.0659734457731247
1766151087235479000,2283.6264790039063,-0.05253441259264946,0.7574729323387146,-0.04153883829712868
1766151087275426600,2283.666426513672,0.02687807008624077,1.1484266519546509,0.3591887652873993
1766151087295446000,2283.686446044922,-0.05864306539297104,1.0971139669418335,0.19792033731937408
1766151087315435300,2283.7064353027345,-0.0757472887635231,1.1093312501907349,0.12095131725072861
1766151087335454700,2283.7264548339845,-0.0708603709936142,1.056796908378601,0.021991148591041565
1766151087415502300,2283.8065024414063,-0.17837265133857727,1.1948524713516235,0.015882495790719986
1766151087495550000,2283.886550048828,-0.019547687843441963,1.5821410417556763,-0.44226643443107605
1766151087575597600,2283.96659765625,0.10018189996480942,1.9230037927627563,-0.21502456068992615
1766151087665593900,2284.05659375,-0.19058994948863983,1.7385225296020508,-0.19058994948863983
1766151087685613300,2284.07661328125,-0.2687807083129883,1.7861700057983398,-0.28588494658470154
1766151087695653600,2284.086653564453,-0.3481931984424591,1.7983872890472412,-0.11239920556545258
1766151087705633000,2284.0966330566407,-0.36529740691185,1.6664403676986694,0.00855211354792118
1766151087715642600,2284.106642578125,-0.3543018400669098,1.568701982498169,0.013439035043120384
1766151087725622000,2284.1166220703126,-0.3445279896259308,1.5564846992492676,-0.17104226350784302
1766151087775640300,2284.1666403808595,-0.3066543638706207,1.6029103994369507,-0.1966986060142517
1766151087795598600,2284.1865986328125,-0.3384193480014801,1.5906931161880493,-0.11362093687057495
1766151087805578000,2284.1965778808594,-0.39706242084503174,1.5723671913146973,-0.05009094998240471
1766151087815618300,2284.206618408203,-0.4190535545349121,1.4941763877868652,-0.03420845419168472
1766151087825597400,2284.2165974121094,-0.43127086758613586,1.4697418212890625,-0.0708603709936142
1766151087835607300,2284.2266071777344,-0.5253441333770752,1.4355332851409912,-0.13805554807186127
1766151087845617200,2284.2366171875,-0.5558874011039734,1.379333734512329,0.02932153269648552
1766151087865606100,2284.256606201172,-0.4495968222618103,1.2376129627227783,-0.01466076634824276
1766151087895574300,2284.28657421875,-0.28099802136421204,1.1545352935791016,-0.5057964324951172
1766151087905553700,2284.2965537109376,-0.21013765037059784,1.1582005023956299,-0.41172316670417786
1766151087915563300,2284.306563232422,-0.19792033731937408,1.2791517972946167,-0.2675589919090271
1766151087925542700,2284.3165427246095,-0.11362093687057495,1.2510520219802856,-0.394618958234787
1766151087935552300,2284.326552246094,-0.11972958594560623,1.2376129627227783,-0.4593706727027893
1766151088015599900,2284.4065998535157,-0.09407325088977814,1.3426817655563354,-0.1270599663257599
1766151092778985200,2289.169985107422,-0.00366519158706069,-0.004886921960860491,-0.00366519158706069
1766151092798713300,2289.189713378906,0.2382374405860901,-0.12828169763088226,0.16004669666290283
1766151092848331500,2289.2393315429686,0.29565876722335815,-0.9480628371238708,-0.27122417092323303
1766151092888309500,2289.2793095703123,-0.6279694437980652,-1.263269305229187,0.4386012554168701
1766151092898258400,2289.2892585449217,-0.46547931432724,-1.1508700847625732,-0.14294247329235077
1766151092908298800,2289.299298828125,-0.375071257352829,-0.8735373020172119,-0.19303341209888458
1766151092938236400,2289.329236328125,-0.00366519158706069,0.0659734457731247,0.5974262356758118
1766151092948246300,2289.3392463378905,0.17959438264369965,0.24434609711170197,0.5485569834709167
1766151092958225400,2289.3492253417967,0.23945917189121246,0.22113321721553802,0.46181413531303406
1766151092978214400,2289.3692143554686,-0.03176499158143997,-0.21502456068992615,-0.09896016865968704
1766151092988224300,2289.379224365234,-0.29077184200286865,-0.23090706765651703,-0.13561208546161652
1766151092998203400,2289.3892033691404,-0.31031954288482666,-0.06841690838336945,0.06352998316287994
1766151093008243700,2289.3992436523436,-0.14782938361167908,0.17837265133857727,0.34574973583221436
1766151093088230400,2289.47923046875,-0.10018189996480942,0.48869219422340393,-0.19792033731937408
1766151093098209500,2289.489209472656,-0.14782938361167908,0.4703662395477295,-0.2785545587539673
1766151093108188700,2289.499188720703,-0.1771509200334549,0.46303585171699524,-0.2431243658065796
1766151093128178000,2289.5191779785155,-0.11972958594560623,0.646295428276062,-0.11850785464048386
1766151093138157000,2289.5291569824217,-0.06352998316287994,0.789237916469574,-0.07941248267889023
1766151093148136200,2289.5391362304686,-0.021991148591041565,0.940732479095459,0.11972958594560623
1766151093158115600,2289.5491154785154,0.013439035043120384,1.0543533563613892,0.2577851414680481
1766151093168156000,2289.559156005859,0.030543262138962746,1.0995573997497559,0.35552358627319336
1766151093178135000,2289.5691350097654,-0.09040805697441101,1.0702359676361084,0.2590068578720093
1766151093188114400,2289.579114501953,-0.14049901068210602,0.9224064946174622,0.0354301854968071
1766151093198063000,2289.589062988281,-0.2125810980796814,0.8307767510414124,-0.03787364438176155
1766151093208072700,2289.599072753906,-0.17348572611808777,0.8637634515762329,-0.17959438264369965
1766151093218082600,2289.609082519531,-0.05497787147760391,1.026253581047058,-0.4337143301963806
1766151093248051000,2289.6390510253905,0.2919935882091522,1.5051720142364502,-0.004886921960860491
1766151093258030000,2289.6490300292967,0.2015855312347412,1.4831807613372803,-0.22846360504627228
1766151093268040000,2289.6590400390623,0.11362093687057495,1.4428637027740479,-0.3995058834552765
1766151093278019000,2289.6690190429686,0.01710422709584236,1.4611896276474,-0.26511552929878235
1766151093288059400,2289.6790593261717,-0.04153883829712868,1.4770721197128296,0.08429940044879913
1766151093298038500,2289.6890385742186,-0.13927727937698364,1.4672982692718506,0.31154128909111023
1766151093308018000,2289.6990178222654,-0.14782938361167908,1.3426817655563354,0.2675589919090271
1766151093317966600,2289.708966552734,-0.1563815027475357,1.205847978591919,-0.06230825558304787
1766151093327946000,2289.7189460449217,-0.11362093687057495,1.147204875946045,-0.41661009192466736
1766151093357883600,2289.7488835449217,0.21380282938480377,1.4953981637954712,-0.45692721009254456
1766151093367893200,2289.7588933105467,0.251676470041275,1.5613715648651123,-0.375071257352829
1766151093377903000,2289.7689030761717,0.11850785464048386,1.5076154470443726,-0.251676470041275
1766151093387913000,2289.7789128417967,0.06108652427792549,1.303586483001709,-0.2724458873271942
1766151093397922600,2289.7889226074217,0.019547687843441963,1.1203268766403198,-0.33719760179519653
1766151093407932400,2289.7989323730467,-0.021991148591041565,1.0641272068023682,-0.4190535545349121
1766151093417911800,2289.808911865234,-0.025656340643763542,1.0384708642959595,-0.4862487316131592
1766151093427891000,2289.8188908691404,-0.06108652427792549,1.1545352935791016,-0.616973876953125
1766151093437870000,2289.8288701171873,-0.02076941914856434,1.2376129627227783,-0.5326744914054871
1766151093467808000,2289.8588081054686,0.1417207419872284,1.3536773920059204,-0.21868975460529327
1766151093477787100,2289.868787109375,0.14416420459747314,1.3292428255081177,-0.3738495409488678
1766151093487827500,2289.878827392578,0.15271630883216858,1.2877039909362793,-0.3127630054950714
1766151093497806600,2289.888806640625,0.20402899384498596,1.3634512424468994,-0.294437050819397
1766151093507816400,2289.89881640625,0.27488934993743896,1.370781660079956,-0.35674530267715454
1766151093517795800,2289.9087958984373,0.1966986060142517,1.3927727937698364,-0.39706242084503174
1766151093527805400,2289.9188054199217,0.12339477986097336,1.361007809638977,-0.36651915311813354
1766151093537784800,2289.928784912109,0.09773843735456467,1.3182471990585327,-0.17348572611808777
1766151093547764000,2289.9387639160154,0.05864306539297104,1.3255776166915894,-0.05375614017248154
1766151093567783400,2289.9587834472654,-0.03298672288656235,1.3842206001281738,-0.15882496535778046
1766151093577732400,2289.968732421875,-0.01466076634824276,1.3585642576217651,-0.21502456068992615
1766151093587742000,2289.978741943359,-0.00733038317412138,1.3182471990585327,-0.21013765037059784
1766151093597690600,2289.988690673828,0.09651670604944229,1.310916781425476,-0.2638937830924988
1766151093607731000,2289.998730957031,0.11728613078594208,1.29381263256073,-0.4447098970413208
1766151093617710300,2290.0087104492186,0.12828169763088226,1.320690631866455,-0.5900958180427551
1766151093627689500,2290.018689453125,0.06963863968849182,1.3390166759490967,-0.5510004758834839
1766151093637668900,2290.0286689453123,0.05497787147760391,1.330464482307434,-0.39217549562454224
1766151093647678500,2290.0386784667967,0.036651913076639175,1.281595230102539,-0.2565633952617645
1766151093667637000,2290.0586369628904,-0.019547687843441963,1.2864822149276733,-0.4092797040939331
1766151093677616400,2290.068616455078,-0.019547687843441963,1.2864822149276733,-0.4092797040939331
1766151093707615000,2290.098614990234,-0.22968533635139465,1.2767083644866943,-0.06475171446800232
1766151093717594400,2290.1085944824217,-0.21502456068992615,1.243721604347229,-0.11239920556545258
1766151093727604000,2290.118604003906,-0.19303341209888458,1.2877039909362793,-0.1918116807937622
1766151093737583400,2290.128583251953,-0.04764748737215996,1.2901474237442017,-0.304210901260376
1766151093747562500,2290.1385625,-0.0024434609804302454,1.312138557434082,-0.41661009192466736
1766151093757542000,2290.1485419921873,0.1368338167667389,1.3267992734909058,-0.47769662737846375
1766151093767551500,2290.1585515136717,0.1160643994808197,1.3451253175735474,-0.49846604466438293
1766151093787510000,2290.1785100097654,0.05375614017248154,1.341460108757019,-0.5436700582504272
1766151093797489400,2290.188489501953,0.03420845419168472,1.2889256477355957,-0.47280970215797424
1766151093807499000,2290.1984990234373,-0.07696902006864548,1.1936306953430176,-0.3897320330142975
1766151093817478400,2290.208478515625,-0.17348572611808777,1.1801916360855103,-0.35063666105270386
1766151093827457500,2290.218457519531,-0.1820378452539444,1.1508700847625732,-0.24434609711170197
1766151093837437000,2290.2284370117186,-0.1368338167667389,1.2229522466659546,-0.1270599663257599
1766151093847446500,2290.238446533203,-0.14294247329235077,1.1887437105178833,-0.20036379992961884
1766151093857456400,2290.248456298828,-0.11972958594560623,1.2278391122817993,-0.27488934993743896
1766151093887485700,2290.278485595703,-0.12339477986097336,1.2192870378494263,-0.26511552929878235
1766151093907505200,2290.298505126953,-0.1160643994808197,1.1374311447143555,-0.38240164518356323
1766151093917453800,2290.3084538574217,-0.04153883829712868,1.156978726387024,-0.3579670190811157
1766151093927494100,2290.318494140625,0.05619960278272629,1.1337659358978271,-0.4862487316131592
1766151093937473500,2290.3284736328123,0.025656340643763542,1.1435397863388062,-0.5693264007568359
1766151093947483100,2290.3384831542967,-0.02076941914856434,1.2046263217926025,-0.5448917746543884
1766151093957493000,2290.3484929199217,-0.010995574295520782,1.207069754600525,-0.35063666105270386
1766151093987491800,2290.378491943359,-0.06841690838336945,1.3158037662506104,-0.08552113175392151
1766151093997501400,2290.3885014648436,-0.05375614017248154,1.224173903465271,-0.16737708449363708
1766151094007511300,2290.3985112304686,-0.03298672288656235,1.264491081237793,-0.19058994948863983
1766151094027500300,2290.4185002441404,-0.01710422709584236,1.2009611129760742,-0.35185837745666504
1766151094037479400,2290.4284794921873,0.05009094998240471,1.1545352935791016,-0.37262779474258423
1766151094047519700,2290.4385197753904,0.0403171069920063,1.1447614431381226,-0.3286454975605011
1766151094057499100,2290.4484990234373,0.02321287989616394,1.2217304706573486,-0.384845107793808
1766151094067478300,2290.458478271484,0.04764748737215996,1.2205088138580322,-0.30543261766433716
1766151094087436800,2290.478436767578,-0.06475171446800232,1.2400563955307007,-0.06108652427792549
1766151094107456300,2290.498456298828,-0.0708603709936142,1.1239920854568481,-0.07696902006864548
1766151094117435600,2290.508435546875,-0.03787364438176155,1.1191051006317139,-0.08552113175392151
1766151094127445200,2290.5184453125,-0.018325956538319588,1.1178834438323975,-0.20525072515010834
1766151094137394200,2290.528394287109,-0.009773843921720982,1.0775662660598755,-0.2223549485206604
1766151094157352700,2290.548352783203,-0.03420845419168472,1.0152580738067627,-0.26633724570274353
1766151094167392800,2290.5583928222654,-0.019547687843441963,1.0238101482391357,-0.26633724570274353
1766151094197300200,2290.5883002929686,-0.036651913076639175,0.9272934198379517,-0.38728857040405273
1766151100210482400,2296.601482421875,0.07696902006864548,-0.021991148591041565,-0.48380526900291443
1766151100259731200,2296.6507312011718,0.19058994948863983,1.5234979391098022,-0.38728857040405273
1766151100269710600,2296.6607106933593,0.2834414839744568,1.5357152223587036,-0.47280970215797424
1766151100299709400,2296.690709472656,0.09529497474431992,1.236391305923462,-0.8112290501594543
1766151100329708000,2296.7207080078124,0.1160643994808197,1.4001030921936035,-0.3543018400669098
