time,seconds_elapsed,z,y,x
1766148802904412200,-0.704587890625,9.5714693069458,-0.9040603637695312,-1.9339195489883423
1766148802934411000,-0.674589111328125,9.577657699584961,-0.8393794894218445,-1.9324328899383545
1766148802944420600,-0.664579345703125,9.577767372131348,-0.8361411690711975,-1.9332966804504395
1766148802954430500,-0.654569580078125,9.576763153076172,-0.8322583436965942,-1.9399293661117554
1766148802964440300,-0.6445595703125,9.577048301696777,-0.827070951461792,-1.940743327140808
1766148802974450000,-0.634550048828125,9.577661514282227,-0.8230687379837036,-1.939416766166687
1766148803004448800,-0.60455126953125,9.580726623535156,-0.8114155530929565,-1.9291629791259766
1766148803014458600,-0.594541259765625,9.580257415771484,-0.8198645114898682,-1.9279226064682007
1766148803034447600,-0.574552490234375,9.57998275756836,-0.8393273949623108,-1.9208965301513672
1766148803114434000,-0.49456591796875,9.577092170715332,-0.8578242659568787,-1.9271291494369507
1766148803124413400,-0.484586669921875,9.576881408691406,-0.8576376438140869,-1.9282582998275757
1766148803144433000,-0.464567138671875,9.576628684997559,-0.8532937169075012,-1.9314374923706055
1766148803174431700,-0.434568359375,9.575359344482422,-0.8550007939338684,-1.936974048614502
1766148803184441300,-0.42455859375,9.574633598327637,-0.8594865798950195,-1.9385737180709839
1766148803204430600,-0.4045693359375,9.572713851928711,-0.8685522675514221,-1.9440051317214966
1766148803214409700,-0.39459033203125,9.57223129272461,-0.8706795573234558,-1.9454289674758911
1766148803224450000,-0.384550048828125,9.572274208068848,-0.8689153790473938,-1.946009635925293
1766148803254479400,-0.354520751953125,9.572639465332031,-0.8673218488693237,-1.9449187517166138
1766148803264489000,-0.344510986328125,9.57269287109375,-0.866349995136261,-1.9450911283493042
1766148803274498800,-0.334501220703125,9.572619438171387,-0.8664835095405579,-1.9453898668289185
1766148803284478000,-0.32452197265625,9.57259464263916,-0.8666045665740967,-1.9454611539840698
1766148803294487800,-0.31451220703125,9.572583198547363,-0.8664733171463013,-1.9455766677856445
1766148803304497700,-0.30450244140625,9.57263469696045,-0.8673605918884277,-1.9449270963668823
1766148803324486700,-0.284513427734375,9.572911262512207,-0.8689330220222473,-1.9428613185882568
1766148803334465800,-0.2745341796875,9.573359489440918,-0.8693842887878418,-1.9404473304748535
1766148803404503800,-0.20449609375,9.576857566833496,-0.8616964817047119,-1.926567792892456
1766148803424523300,-0.184476806640625,9.577032089233398,-0.8578250408172607,-1.9274288415908813
1766148803434502400,-0.17449755859375,9.577245712280273,-0.8561931848526001,-1.9270904064178467
1766148803464531700,-0.14446826171875,9.57658863067627,-0.8602346181869507,-1.9285615682601929
1766148803494500000,-0.1145,9.578104019165039,-0.8618641495704651,-1.9202864170074463
1766148803514489000,-0.094510986328125,9.578646659851074,-0.8627052903175354,-1.9172017574310303
1766148803524499000,-0.0845009765625,9.578062057495117,-0.8662360906600952,-1.9185281991958618
1766148803534508500,-0.074491455078125,9.577528953552246,-0.8698261380195618,-1.9195626974105835
1766148803564568300,-0.044431640625,9.575818061828613,-0.8781710863113403,-1.92429518699646
1766148803594567200,-0.014432861328125,9.575318336486816,-0.8892254829406738,-1.9217008352279663
1766148803669610000,0.06060986328125,9.56698226928711,-0.970639169216156,-1.9238224029541016
1766148803709679600,0.1006796875,9.567464828491211,-0.9629612565040588,-1.9252830743789673
1766148803719628300,0.110628173828125,9.567520141601562,-0.9633641839027405,-1.9248048067092896
1766148803729668600,0.120668701171875,9.567320823669434,-0.967120349407196,-1.9239147901535034
1766148803739617300,0.1306171875,9.567014694213867,-0.9700587391853333,-1.923954725265503
1766148803749627000,0.140626953125,9.566547393798828,-0.973300039768219,-1.924641489982605
1766148803759636700,0.15063671875,9.566156387329102,-0.9756441116333008,-1.9253989458084106
1766148803769646600,0.160646484375,9.565715789794922,-0.9782403707504272,-1.9262717962265015
1766148803779656200,0.17065625,9.565475463867188,-0.9790338277816772,-1.9270585775375366
1766148803809685500,0.200685546875,9.565359115600586,-0.9760553240776062,-1.9291465282440186
1766148803829705200,0.220705322265625,9.565436363220215,-0.9666761159896851,-1.9334779977798462
1766148803839684400,0.230684326171875,9.565278053283691,-0.9636197090148926,-1.9357893466949463
1766148803849724700,0.240724609375,9.565014839172363,-0.96187424659729,-1.9379582405090332
1766148803859734500,0.250734619140625,9.564850807189941,-0.9592933058738708,-1.940042495727539
1766148803869774600,0.260774658203125,9.564915657043457,-0.9577206373214722,-1.9405007362365723
1766148803879784400,0.270784423828125,9.564669609069824,-0.9560480117797852,-1.9425355195999146
1766148803909783300,0.300783203125,9.564462661743164,-0.9509244561195374,-1.9460723400115967
1766148803919762400,0.310762451171875,9.564464569091797,-0.9513310194015503,-1.9458609819412231
1766148803929802800,0.320802734375,9.5642671585083,-0.9525102972984314,-1.946255087852478
1766148803939812600,0.3308125,9.563797950744629,-0.9533719420433044,-1.9481375217437744
1766148803949822200,0.340822265625,9.56358814239502,-0.9552982449531555,-1.948222279548645
1766148803959832000,0.35083203125,9.56369400024414,-0.9537239670753479,-1.948474645614624
1766148803969842000,0.360842041015625,9.563796043395996,-0.9541611075401306,-1.9477614164352417
1766148803979821000,0.370821044921875,9.563475608825684,-0.9578256607055664,-1.9475351572036743
1766148803989831000,0.380830810546875,9.563319206237793,-0.9575574994087219,-1.94843590259552
1766148804009820000,0.40081982421875,9.562642097473145,-0.9614640474319458,-1.9498319625854492
1766148804029839400,0.42083935546875,9.55999755859375,-0.9734070301055908,-1.9568647146224976
1766148804039818800,0.43081884765625,9.558568000793457,-0.9720064401626587,-1.9645271301269531
1766148804049828400,0.440828369140625,9.553894996643066,-0.9563703536987305,-1.9947000741958618
1766148804059807700,0.450807861328125,9.549869537353516,-0.9735292792320251,-2.0056512355804443
1766148804069787000,0.460786865234375,9.541829109191895,-0.9971946477890015,-2.032113552093506
1766148804079766300,0.470766357421875,9.527247428894043,-0.9726046323776245,-2.110919952392578
1766148804089745400,0.480745361328125,9.516975402832031,-0.9883086085319519,-2.149606227874756
1766148804099724500,0.490724609375,9.514335632324219,-1.0368118286132812,-2.1384170055389404
1766148804119744300,0.510744140625,9.513014793395996,-1.1435434818267822,-2.0893197059631348
1766148804129723400,0.520723388671875,9.508115768432617,-1.2107125520706177,-2.073713541030884
1766148804139702800,0.530702880859375,9.50057601928711,-1.2939794063568115,-2.0579259395599365
1766148804149712400,0.54071240234375,9.48459529876709,-1.444132924079895,-2.0315792560577393
1766148804159691800,0.55069189453125,9.472055435180664,-1.535106897354126,-2.0233640670776367
1766148804169671000,0.5606708984375,9.458414077758789,-1.6272977590560913,-2.0151150226593018
1766148804179680800,0.5706806640625,9.447919845581055,-1.657515048980713,-2.03956937789917
1766148804189690400,0.5806904296875,9.427714347839355,-1.74244225025177,-2.0621554851531982
1766148804199669800,0.590669677734375,9.40339469909668,-1.8016061782836914,-2.12150239944458
1766148804219658800,0.61065869140625,9.324875831604004,-2.1790807247161865,-2.1139273643493652
1766148804229699000,0.620698974609375,9.299298286437988,-2.2893712520599365,-2.1100268363952637
1766148804239678200,0.63067822265625,9.19690990447998,-2.742032766342163,-2.017049789428711
1766148804249718500,0.640718505859375,9.146328926086426,-2.9160192012786865,-2.0029702186584473
1766148804259698000,0.650697998046875,9.024731636047363,-3.300205707550049,-1.9578677415847778
1766148804269707500,0.66070751953125,8.761697769165039,-3.955005168914795,-1.9393243789672852
1766148804279717400,0.67071728515625,8.602794647216797,-4.253973484039307,-2.0164380073547363
1766148804289727000,0.68072705078125,8.199700355529785,-4.995943069458008,-1.9939546585083008
1766148804299706400,0.690706298828125,7.839724063873291,-5.546932220458984,-1.985109567642212
1766148804309716200,0.70071630859375,7.64080810546875,-5.823796272277832,-1.9676967859268188
1766148804329735700,0.720735595703125,6.636991500854492,-6.9825544357299805,-1.8343064785003662
1766148804349694200,0.740694091796875,5.906561851501465,-7.622161388397217,-1.7848174571990967
1766148804359673300,0.75067333984375,5.382294654846191,-8.006226539611816,-1.761148452758789
1766148804369683200,0.76068310546875,4.839700222015381,-8.348673820495605,-1.7456613779067993
1766148804379662300,0.770662353515625,4.018244743347168,-8.774382591247559,-1.7419321537017822
1766148804389672200,0.780672119140625,3.7243974208831787,-8.903918266296387,-1.7376738786697388
1766148804399651300,0.7906513671875,3.1725873947143555,-9.114197731018066,-1.7425529956817627
1766148804409661200,0.8006611328125,2.384524345397949,-9.344867706298828,-1.7770413160324097
1766148804419640300,0.810640380859375,1.8705730438232422,-9.454654693603516,-1.8113112449645996
1766148804429680600,0.8206806640625,1.6083158254623413,-9.499388694763184,-1.829027533531189
1766148804449700400,0.840700439453125,0.41967466473579407,-9.604363441467285,-1.9366166591644287
1766148804459710000,0.8507099609375,0.19661737978458405,-9.607938766479492,-1.9542993307113647
1766148804469719800,0.8607197265625,-0.18662308156490326,-9.600852012634277,-1.9897853136062622
1766148804479699000,0.870698974609375,-0.5075399279594421,-9.584283828735352,-2.0135257244110107
1766148804489708800,0.880708740234375,-0.8969793915748596,-9.551669120788574,-2.032590627670288
1766148804499718700,0.89071875,-1.0238317251205444,-9.540818214416504,-2.0235934257507324
1766148804509728300,0.900728271484375,-1.3352203369140625,-9.503994941711426,-2.0153510570526123
1766148804519738000,0.910738037109375,-1.4385606050491333,-9.492154121398926,-1.9999825954437256
1766148804539727000,0.93072705078125,-1.7823946475982666,-9.44707202911377,-1.9355323314666748
1766148804589745400,0.980745361328125,-2.473997116088867,-9.336094856262207,-1.6991350650787354
1766148804599755300,0.99075537109375,-2.6504759788513184,-9.303548812866211,-1.6091545820236206
1766148804609764900,1.000764892578125,-2.771151065826416,-9.283101081848145,-1.521549940109253
1766148804619713800,1.0107138671875,-2.88124942779541,-9.262931823730469,-1.4376730918884277
1766148804629693000,1.02069287109375,-2.9863474369049072,-9.242521286010742,-1.352023959159851
1766149067147309000,263.5383090820313,9.302989959716797,-1.3572050333023071,2.7897584438323975
1766149067186356500,263.5773564453125,9.177019119262695,-1.6002237796783447,3.0646352767944336
1766149067236313600,263.6273137207031,8.821860313415527,-2.1492903232574463,3.7048251628875732
1766149067246262500,263.63726245117186,8.761821746826172,-2.2441885471343994,3.7900502681732178
1766149067326027000,263.71702709960937,8.300531387329102,-3.1969711780548096,4.129277229309082
1766149067385994000,263.7769938964844,7.905675411224365,-3.8637149333953857,4.329248428344727
1766149067396003800,263.78700390625,7.832630157470703,-3.9642443656921387,4.370933532714844
1766149067405922000,263.7969221191406,7.80420446395874,-4.0027570724487305,4.386651992797852
1766149067415962400,263.80696240234374,7.755309104919434,-4.068763732910156,4.412565231323242
1766149067465919500,263.85691943359376,7.3846001625061035,-4.730621814727783,4.388541221618652
1766149067545875700,263.93687573242187,7.0061469078063965,-5.410412788391113,4.220393657684326
1766149067575783000,263.96678295898437,6.937780857086182,-5.626250267028809,4.047578811645508
1766149067585792500,263.97679248046876,6.927227973937988,-5.677164077758789,3.9942076206207275
1766149067595802400,263.98680224609376,6.908815860748291,-5.733187198638916,3.9457857608795166
1766149067605781500,263.99678149414063,6.883420467376709,-5.793028831481934,3.902527093887329
1766149067615791400,264.00679125976563,6.852417469024658,-5.855367660522461,3.863861560821533
1766149067625831700,264.01683178710937,6.840995788574219,-5.8856611251831055,3.837989091873169
1766149067635841500,264.02684155273437,6.826607704162598,-5.935445785522461,3.7865936756134033
1766149067645851100,264.03685107421876,6.870079517364502,-5.930469036102295,3.7150955200195312
1766149067655861000,264.04686108398437,6.9213175773620605,-5.917513370513916,3.6398885250091553
1766149067685859800,264.07685986328124,6.9395575523376465,-5.978463172912598,3.5029854774475098
1766149067695839000,264.0868388671875,6.907384872436523,-6.063718318939209,3.4190282821655273
1766149067705848800,264.0968488769531,6.905294895172119,-6.118479251861572,3.3243794441223145
1766149067715828000,264.1068278808594,6.907262325286865,-6.137887954711914,3.2842724323272705
1766149067725837800,264.116837890625,6.914516448974609,-6.161635875701904,3.2239882946014404
1766149067735817000,264.12681689453126,6.92857027053833,-6.18068265914917,3.1566550731658936
1766149067745796400,264.13679638671874,6.944833278656006,-6.211877822875977,3.0581467151641846
1766149067755806000,264.14680590820313,6.955193996429443,-6.220266342163086,3.0172765254974365
1766149067765785300,264.1567854003906,6.970778942108154,-6.238091468811035,2.9436089992523193
1766149067775825700,264.16682568359374,6.981907367706299,-6.247984409332275,2.8958663940429688
1766149067795784000,264.1867839355469,7.037286758422852,-6.253826141357422,2.7452971935272217
1766149067805732900,264.19673291015624,7.072752475738525,-6.241905212402344,2.680518627166748
1766149067815773000,264.20677294921876,7.112462043762207,-6.216338157653809,2.6344668865203857
1766149067825752300,264.21675244140624,7.154930114746094,-6.185182571411133,2.5924644470214844
1766149067835762200,264.22676220703124,7.171546936035156,-6.176563262939453,2.56697678565979
1766149067845741300,264.2367412109375,7.173658847808838,-6.1916913986206055,2.5242767333984375
1766149067855751200,264.2467512207031,7.176332950592041,-6.19886589050293,2.4989404678344727
1766149067865730300,264.2567302246094,7.173919677734375,-6.217485427856445,2.4592952728271484
1766149067875709700,264.26670971679687,7.185092926025391,-6.238440990447998,2.3720667362213135
1766149067905677800,264.296677734375,7.212834358215332,-6.256223678588867,2.23720383644104
1766149067925666800,264.3166667480469,7.252770900726318,-6.24139404296875,2.1477205753326416
1766149067945655800,264.33665576171876,7.253108024597168,-6.259477615356445,2.0932657718658447
1766149067955635200,264.34663525390624,7.253532886505127,-6.263220310211182,2.0805602073669434
1766149067965614300,264.3566142578125,7.254902362823486,-6.268757343292236,2.0590004920959473
1766149067975624200,264.3666242675781,7.258381366729736,-6.267359733581543,2.050973415374756
1766149067985603300,264.3766032714844,7.252830505371094,-6.277102947235107,2.04079008102417
1766149068005561900,264.39656176757813,7.244973659515381,-6.29707670211792,2.0068795680999756
1766149068015541200,264.4065412597656,7.229905605316162,-6.321094989776611,1.9855997562408447
1766149068025550800,264.41655078125,7.204829692840576,-6.354294776916504,1.9707273244857788
1766149068035530200,264.4265302734375,7.16208553314209,-6.417682647705078,1.9204864501953125
1766149068045479000,264.43647900390624,7.1694655418396,-6.422811508178711,1.8752714395523071
1766149068055519200,264.44651928710937,7.1970014572143555,-6.412670135498047,1.803114414215088
1766149068065498400,264.45649829101563,7.206312656402588,-6.402314186096191,1.8027234077453613
1766149068075477800,264.4664777832031,7.2082719802856445,-6.399772644042969,1.803913950920105
1766149068085487400,264.4764873046875,7.202119827270508,-6.405440330505371,1.8083674907684326
1766149068095466800,264.486466796875,7.1893510818481445,-6.4179863929748535,1.8146824836730957
1766149068145454300,264.53645434570313,6.930630207061768,-6.763160228729248,1.5480380058288574
1766149068155464200,264.54646411132813,6.838735580444336,-6.864628314971924,1.509626030921936
1766149068165443600,264.5564436035156,6.7736334800720215,-6.94101619720459,1.4527815580368042
1766149068175453200,264.566453125,6.73561954498291,-6.993091583251953,1.3778588771820068
1766149068185432600,264.5764326171875,6.694395542144775,-7.039155960083008,1.3437775373458862
1766149068195411700,264.58641162109376,6.6535186767578125,-7.083316326141357,1.3144258260726929
1766149068215400700,264.60640063476563,6.576566219329834,-7.172021865844727,1.2170748710632324
1766149068225380000,264.6163801269531,6.560647010803223,-7.191864490509033,1.1854952573776245
1766149068235359200,264.6263591308594,6.523088455200195,-7.233899116516113,1.1359612941741943
1766149068245308000,264.63630786132813,6.47219705581665,-7.2876505851745605,1.0822272300720215
1766149068255317800,264.64631787109374,6.386348724365234,-7.384597301483154,0.923403263092041
1766149068265297000,264.656296875,6.352067470550537,-7.421454906463623,0.8623515963554382
1766149068275276300,264.6662763671875,6.2873406410217285,-7.491400241851807,0.7201793193817139
1766149068295234800,264.68623486328124,6.1323418617248535,-7.64220666885376,0.4018096923828125
1766149068325203000,264.7162028808594,5.809812545776367,-7.8956618309021,-0.273827463388443
1766149068335212800,264.726212890625,5.705220699310303,-7.964146614074707,-0.4395557940006256
1766149068345192000,264.73619189453126,5.595836639404297,-8.031773567199707,-0.589590311050415
1766149068355232300,264.7462321777344,5.482988357543945,-8.09836196899414,-0.7237209677696228
1766149068365211600,264.75621166992187,5.370821475982666,-8.162029266357422,-0.840205192565918
1766149068375221200,264.76622119140626,5.264498710632324,-8.220115661621094,-0.9408172369003296
1766149068385200600,264.77620068359374,5.170356273651123,-8.269566535949707,-1.0257002115249634
1766149068395179800,264.7861796875,5.08880090713501,-8.31102180480957,-1.096095085144043
1766149068405189600,264.7961896972656,5.018180847167969,-8.345980644226074,-1.1544976234436035
1766149068445137200,264.83613720703124,4.8254923820495605,-8.436124801635742,-1.3102673292160034
1766149068455146800,264.84614672851563,4.783092021942139,-8.454548835754395,-1.3464804887771606
1766149068465126100,264.8561262207031,4.763009548187256,-8.456134796142578,-1.4063764810562134
1766149068475105300,264.8661052246094,4.749996662139893,-8.436820983886719,-1.5581899881362915
1766149068485115100,264.876115234375,4.752504825592041,-8.418486595153809,-1.6471703052520752
1766149068495094300,264.88609423828126,4.689146995544434,-8.439948081970215,-1.7174290418624878
1766149068505104100,264.89610424804687,4.6711955070495605,-8.439709663391113,-1.7668125629425049
1766149170137777700,366.5287775878906,7.945226669311523,3.3760714530944824,4.652515888214111
1766149170177325300,366.5683251953125,7.957807540893555,3.287863254547119,4.694001197814941
1766149170207263000,366.59826293945315,7.971231937408447,3.1962358951568604,4.734334468841553
1766149170247210500,366.6382104492188,7.954370498657227,3.1282730102539062,4.80752420425415
1766149170257220400,366.6482204589844,7.9406914710998535,3.1225218772888184,4.833805084228516
1766149170327075000,366.7180749511719,7.847380638122559,3.0737645626068115,5.0140767097473145
1766149170367083500,366.7580834960938,7.810614109039307,3.0419914722442627,5.0902838706970215
1766149170426989600,366.81798950195315,7.744970798492432,3.0309600830078125,5.196066379547119
1766149170456957700,366.8479577636719,7.719533920288086,3.0885517597198486,5.200002670288086
1766149170506915000,366.8979150390625,7.713491916656494,3.114995241165161,5.193191051483154
1766149170516925000,366.90792504882813,7.715448379516602,3.112027406692505,5.192065238952637
1766149170526904000,366.9179040527344,7.723578453063965,3.101607322692871,5.186208724975586
1766149170536883500,366.9278835449219,7.729729175567627,3.0905849933624268,5.183623790740967
1766149170546832100,366.93783203125,7.737850666046143,3.071794033050537,5.182676792144775
1766149170556841700,366.947841796875,7.742489814758301,3.0566940307617188,5.184675216674805
1766149170606768600,366.9977685546875,7.738913059234619,3.015430450439453,5.214095115661621
1766149170656725800,367.04772583007815,7.7049455642700195,3.064225912094116,5.235905647277832
1766149170666644200,367.0576442871094,7.697877407073975,3.0743963718414307,5.2403388023376465
1766149170726550000,367.11755004882815,7.716662883758545,2.8030755519866943,5.363420009613037
1766149170736529400,367.127529296875,7.7253241539001465,2.6875734329223633,5.409871578216553
1766149170746478000,367.1374780273438,7.734371662139893,2.5534698963165283,5.461655139923096
1766149170756457200,367.14745727539065,7.7428131103515625,2.403006076812744,5.51768159866333
1766149170766436600,367.1574365234375,7.750051975250244,2.2386059761047363,5.576353549957275
1766149170786456000,367.1774560546875,7.759082794189453,1.8692024946212769,5.698517322540283
1766149170796466000,367.1874658203125,7.7595038414001465,1.6601693630218506,5.762319564819336
1766149170806414600,367.1974145507813,7.7587971687316895,1.5510531663894653,5.793591022491455
1766149170816424400,367.2074245605469,7.752811908721924,1.1620476245880127,5.891853332519531
1766149170826373000,367.217373046875,7.741511344909668,0.8626700043678284,5.9577836990356445
1766149170836352300,367.2273522949219,7.732907772064209,0.7029035687446594,5.989862442016602
1766149170846362000,367.2373620605469,7.689648628234863,0.16090898215770721,6.083896636962891
1766149170856341200,367.2473413085938,7.6483683586120605,-0.2321041077375412,6.133430480957031
1766149170866259500,367.2572595214844,7.624321460723877,-0.43309783935546875,6.152441501617432
1766149170876238800,367.2672387695313,7.569424152374268,-0.8632600903511047,6.174867630004883
1766149170906207000,367.29720703125,7.323143005371094,-2.291454315185547,6.106652736663818
1766149170926165500,367.3171655273438,6.977893352508545,-3.6066017150878906,5.871271133422852
1766149170936205800,367.3272058105469,6.885996341705322,-3.897799491882324,5.793152332305908
1766149170946185200,367.3371853027344,6.69337797164917,-4.4728851318359375,5.600213050842285
1766149170956164400,367.34716430664065,6.488035202026367,-5.035996913909912,5.358593940734863
1766149170966113000,367.3571130371094,6.186840534210205,-5.810801029205322,4.912024021148682
1766149170976153300,367.3671533203125,6.081159591674805,-6.0621442794799805,4.737117290496826
1766149170986102000,367.3771020507813,5.78995943069458,-6.758755207061768,4.118978977203369
1766149171016100900,367.40710083007815,5.208957672119141,-7.906630516052246,2.553886651992798
1766149171026110700,367.41711083984376,5.044181823730469,-8.18247127532959,1.9426193237304688
1766149171036120300,367.42712036132815,4.968832969665527,-8.299983024597168,1.609776258468628
1766149171046130200,367.43713012695315,4.853912830352783,-8.472463607788086,0.9095476269721985
1766149171056109300,367.447109375,4.755162239074707,-8.574539184570312,0.19002895057201385
1766149171066058200,367.4570583496094,4.676858425140381,-8.601853370666504,-0.5527136921882629
1766149171076037400,367.46703735351565,4.622435569763184,-8.485573768615723,-1.6728756427764893
1766149171086016800,367.47701684570313,4.6321587562561035,-8.307164192199707,-2.3884153366088867
1766149171116045800,367.5070458984375,4.754026889801025,-7.515113830566406,-4.134328842163086
1766149171125994800,367.5169948730469,4.713226795196533,-6.905770301818848,-5.125058650970459
1766149171135974000,367.52697387695315,4.598629474639893,-6.486497402191162,-5.740065097808838
1766149171155932400,367.5469323730469,4.192755699157715,-5.628152847290039,-6.849459648132324
1766149171165911600,367.5569116210938,4.066401481628418,-5.403461456298828,-7.101927280426025
1766149171175891000,367.56689086914065,3.660487174987793,-4.724726676940918,-7.774843692779541
1766149171185900800,367.57690087890626,3.3995413780212402,-4.267711639404297,-8.148628234863281
1766149186160661500,382.55166162109373,0.5012994408607483,-9.462286949157715,-2.526702404022217
1766149186170471200,382.56147119140627,0.44493749737739563,-9.441190719604492,-2.6146438121795654
1766149186189960200,382.5809602050781,0.20162265002727509,-9.116957664489746,-3.6070477962493896
1766149186199770000,382.59077001953125,0.058401919901371,-8.835602760314941,-4.254305362701416
1766149186209749200,382.6007492675781,-0.08879121392965317,-8.48002815246582,-4.924598217010498
1766149186239687200,382.63068725585936,-0.4746779501438141,-7.140488147735596,-6.705114841461182
1766149186279665200,382.6706650390625,-0.7949761152267456,-5.122540473937988,-8.324542045593262
1766149186309694500,382.7006945800781,-1.4499778747558594,-2.8207597732543945,-9.279613494873047
1766149186329683500,382.7206833496094,-1.96458101272583,-1.4474314451217651,-9.498197555541992
1766149236170947300,432.561947265625,9.67554759979248,0.5835927128791809,-1.4878113269805908
1766149236180757200,432.57175732421877,9.677721977233887,0.584955632686615,-1.4730621576309204
1766149236190536400,432.5815363769531,9.6859130859375,0.5646262168884277,-1.4264224767684937
1766149236210556000,432.6015559082031,9.735312461853027,0.25232642889022827,-1.153437852859497
1766149236270492400,432.6614924316406,9.781476974487305,-0.4018310308456421,-0.5758734941482544
1766149236310370600,432.70137060546875,9.69376277923584,-1.4790360927581787,0.11747652292251587
1766149236400244700,432.79124462890627,9.162725448608398,-3.1704773902893066,1.4706897735595703
1766149236450202000,432.8412021484375,8.758624076843262,-3.798903703689575,2.2417008876800537
1766149236460181200,432.85118115234377,8.673638343811035,-3.904940128326416,2.385335683822632
1766149236470130200,432.8611301269531,8.630566596984863,-3.9561116695404053,2.4561946392059326
1766149236480109300,432.871109375,8.538073539733887,-4.065361022949219,2.5970234870910645
1766149236490088400,432.88108837890627,8.443425178527832,-4.175905227661133,2.7277772426605225
1766149236500067800,432.89106787109375,8.287947654724121,-4.350498676300049,2.924633741378784
1766149236510077700,432.90107763671875,8.232739448547363,-4.409282684326172,2.9917588233947754
1766149236520056800,432.9110568847656,8.1220121383667,-4.523173809051514,3.1215708255767822
1766149236609931000,433.00093090820315,7.042153358459473,-5.5434441566467285,3.9810423851013184
1766149236619880000,433.0108798828125,7.001033782958984,-5.578133583068848,4.005040168762207
1766149236629889500,433.0208896484375,6.902548313140869,-5.639578819274902,4.089053153991699
1766149236649878500,433.04087841796877,6.817893028259277,-5.675889015197754,4.179833889007568
1766149236669837000,433.0608371582031,6.633446216583252,-5.779417991638184,4.331985950469971
1766149236679755300,433.07075537109375,6.560916900634766,-5.837437629699707,4.364526271820068
1766149236699713800,433.0907138671875,6.393336772918701,-5.991425037384033,4.404367923736572
1766149236709693200,433.1006931152344,6.345361709594727,-6.0370612144470215,4.4114227294921875
1766149236719641900,433.1106418457031,6.184040069580078,-6.183431625366211,4.437702655792236
1766149236729651500,433.1206513671875,6.129700660705566,-6.23231840133667,4.444701194763184
1766149236739600400,433.1306003417969,5.99481725692749,-6.3467183113098145,4.466733932495117
1766149236749579500,433.14057958984375,5.957767486572266,-6.377645969390869,4.4722514152526855
1766149236759589400,433.15058935546875,5.859654903411865,-6.458683967590332,4.485558986663818
1766149236769568500,433.1605686035156,5.831096172332764,-6.485715866088867,4.483770847320557
1766149236779548000,433.1705478515625,5.766079902648926,-6.573832035064697,4.439306259155273
1766149236789527000,433.1805270996094,5.747299671173096,-6.603497505187988,4.419588088989258
1766149236799537000,433.1905368652344,5.68108606338501,-6.693883895874023,4.368932723999023
1766149236809516000,433.20051611328125,5.663208961486816,-6.719751834869385,4.352400779724121
1766149236819464700,433.2104645996094,5.651458740234375,-6.734871864318848,4.344295024871826
1766149236829474600,433.220474609375,5.681397914886475,-6.70810604095459,4.346654891967773
1766149236839453700,433.23045361328127,5.761211395263672,-6.6421051025390625,4.342954635620117
1766149236869483000,433.26048291015627,5.770142555236816,-6.666810035705566,4.292956829071045
1766149236879462400,433.27046240234375,5.723137378692627,-6.721485614776611,4.270564556121826
1766149236889441500,433.2804416503906,5.700758457183838,-6.749666213989258,4.256025791168213
1766149236899390200,433.29039013671877,5.678633213043213,-6.792898654937744,4.216639041900635
1766149236909369600,433.30036962890625,5.6701483726501465,-6.829472541809082,4.168706893920898
1766149236919318300,433.310318359375,5.654533386230469,-6.903043270111084,4.067511558532715
1766149236929328000,433.320328125,5.647003650665283,-6.938745975494385,4.01690673828125
1766149236939337700,433.3303376464844,5.587457656860352,-7.031886577606201,3.937420129776001
1766149236949317000,433.3403171386719,5.546016693115234,-7.094170093536377,3.8839190006256104
1766149236959327000,433.3503269042969,5.508168697357178,-7.150575637817383,3.834022283554077
1766149236989264600,433.3802646484375,5.416287422180176,-7.2714033126831055,3.7364301681518555
1766149236999274200,433.3902741699219,5.3694376945495605,-7.321223735809326,3.70664381980896
1766149237009253600,433.4002536621094,5.3672380447387695,-7.3303046226501465,3.6918528079986572
1766149237019232800,433.41023266601565,5.362843036651611,-7.347038745880127,3.6648778915405273
1766149237029242600,433.42024267578125,5.376552104949951,-7.343985080718994,3.6508841514587402
1766149237039221800,433.4302216796875,5.364418983459473,-7.363816261291504,3.628720760345459
1766149237049201200,433.440201171875,5.363710403442383,-7.369011878967285,3.6192080974578857
1766149237079169300,433.47016918945315,5.346842288970947,-7.423042297363281,3.5327200889587402
1766149237089179100,433.48017919921875,5.343348503112793,-7.439286708831787,3.5037155151367188
1766149237099189000,433.49018896484375,5.331763744354248,-7.456814289093018,3.484050989151001
1766149237109198600,433.50019848632815,5.325341701507568,-7.467881202697754,3.470144033432007
1766149237119208400,433.51020849609375,5.294203281402588,-7.494304180145264,3.4608094692230225
1766149237129187600,433.5201875,5.291109561920166,-7.519679069519043,3.4101293087005615
1766149237139167000,433.5301669921875,5.32923698425293,-7.535736560821533,3.3139538764953613
1766149237149207300,433.5402072753906,5.364675998687744,-7.529852390289307,3.269855260848999
1766149237159186400,433.5501865234375,5.398322582244873,-7.522906303405762,3.230231761932373
1766149237189185300,433.5801853027344,5.4824676513671875,-7.586812973022461,2.924583911895752
1766149237199164400,433.59016430664065,5.509373188018799,-7.630021095275879,2.756805181503296
1766149237209143800,433.6001437988281,5.521905899047852,-7.65318489074707,2.6660289764404297
1766149237219123000,433.610123046875,5.506021022796631,-7.766555309295654,2.3526058197021484
1766149237229132800,433.6201328125,5.462958812713623,-7.85434627532959,2.15307354927063
1766149237239112000,433.63011181640627,5.439850807189941,-7.897702217102051,2.0505430698394775
1766149237249121800,433.6401218261719,5.307734966278076,-8.026947975158691,1.8885043859481812
1766149237259101000,433.65010083007815,5.1235833168029785,-8.178533554077148,1.740942120552063
1766149237269141200,433.6601413574219,5.0280842781066895,-8.284945487976074,1.4994816780090332
1766149237309150000,433.70014990234375,4.956860065460205,-8.422126770019531,0.8171367645263672
1766149237329139000,433.7201389160156,4.861927509307861,-8.504871368408203,0.4463178217411041
1766149237339148500,433.7301484375,4.776425838470459,-8.56406021118164,0.1139630675315857
1766149237349158400,433.7401584472656,4.755431175231934,-8.576493263244629,-0.002650514477863908
1766149237359137500,433.7501374511719,4.717673301696777,-8.594822883605957,-0.207321435213089
1766149237369147400,433.7601474609375,4.6864848136901855,-8.605086326599121,-0.3996841013431549
1766149237399115800,433.79011572265625,4.4199676513671875,-8.699707984924316,-0.9743494987487793
1766149237409125400,433.80012548828125,4.305388450622559,-8.73879337310791,-1.1258374452590942
1766149237419104800,433.8101047363281,4.2541656494140625,-8.751922607421875,-1.2150352001190186
1766149237429084000,433.820083984375,4.176061630249023,-8.760748863220215,-1.4071964025497437
1766149237439093800,433.83009375,4.076739311218262,-8.748459815979004,-1.7363871335983276
1766149237449103400,433.8401032714844,4.057380676269531,-8.718246459960938,-1.923599362373352
1766149237459113200,433.85011328125,3.89754581451416,-8.743509292602539,-2.128514289855957
1766149237469092400,433.86009228515627,3.846240282058716,-8.748546600341797,-2.1999404430389404
1766149237479071700,433.87007177734375,3.744511604309082,-8.764838218688965,-2.3079516887664795
1766149237489081600,433.88008154296875,3.629451036453247,-8.775045394897461,-2.4486846923828125
1766149237549048600,433.9400485839844,3.3238444328308105,-8.760176658630371,-2.895124912261963
1766149237579078000,433.9700778808594,3.2221615314483643,-8.746341705322266,-3.047884225845337
1766149237589087500,433.98008740234377,3.2139363288879395,-8.734415054321289,-3.090467929840088
1766149237609076500,434.00007641601565,3.116091251373291,-8.742278099060059,-3.1674814224243164
1766149349158628000,545.5496281738281,-8.651816368103027,-4.511817932128906,0.9797751903533936
1766149349198214700,545.5892145996094,-8.417198181152344,-4.950005531311035,0.9047719240188599
1766149349208255000,545.5992548828125,-8.394883155822754,-4.981144905090332,0.9405053853988647
1766149349228244000,545.6192438964844,-8.367940902709961,-5.006587982177734,1.0402190685272217
1766149349238223000,545.6292231445312,-8.356351852416992,-5.018576622009277,1.075015902519226
1766149349248202500,545.6392023925781,-8.356834411621094,-5.017515659332275,1.0762197971343994
1766149349308169500,545.6991694335937,-8.330513000488281,-5.066694259643555,1.049555778503418
1766149349338076700,545.7290766601562,-8.343744277954102,-5.061614990234375,0.9655828475952148
1766149349398013200,545.7890131835937,-8.422187805175781,-4.9667439460754395,0.7541229724884033
1766149349457919200,545.8489191894531,-8.499709129333496,-4.843167304992676,0.684902548789978
1766149349467898400,545.8588984375,-8.502659797668457,-4.842016696929932,0.6557400226593018
1766149349537814300,545.9288142089844,-8.596872329711914,-4.654644966125488,0.7736054062843323
1766149349587741000,545.9787409667969,-8.637147903442383,-4.580531120300293,0.7674025893211365
1766149349597720300,545.9887202148437,-8.650193214416504,-4.558223724365234,0.7531301379203796
1766149349617648000,546.0086481933594,-8.68506145477295,-4.492910861968994,0.7441929578781128
1766149349627627500,546.0186274414062,-8.69852352142334,-4.463603496551514,0.7631145119667053
1766149349637637400,546.0286374511719,-8.72831916809082,-4.412441730499268,0.7191941142082214
1766149349657656800,546.0486567382812,-8.805551528930664,-4.270226001739502,0.6307899951934814
1766149349667636000,546.0586359863281,-8.855850219726562,-4.1721696853637695,0.5807743668556213
1766149349677645800,546.0686457519531,-8.870837211608887,-4.139398574829102,0.5865327715873718
1766149349687655700,546.0786557617188,-8.892614364624023,-4.0977044105529785,0.5482637286186218
1766149349697634800,546.088634765625,-8.900876998901367,-4.077633380889893,0.5636982917785645
1766149349707614000,546.0986140136719,-8.917017936706543,-4.044361114501953,0.5480166077613831
1766149349727542000,546.1185419921875,-8.975309371948242,-3.9240331649780273,0.4649350047111511
1766149349737521400,546.128521484375,-8.992033004760742,-3.886573553085327,0.4564230442047119
1766149349747531000,546.1385310058594,-9.032676696777344,-3.795292615890503,0.4206302762031555
1766149349757510400,546.1485104980469,-9.103751182556152,-3.6278789043426514,0.3614155948162079
1766149349767489500,546.1584895019531,-9.15533447265625,-3.4981119632720947,0.336866557598114
1766149349777438200,546.1684382324219,-9.181662559509277,-3.42732834815979,0.3476532995700836
1766149349787448000,546.1784479980469,-9.248044967651367,-3.2456750869750977,0.3310401737689972
1766149349797427200,546.1884272460937,-9.266186714172363,-3.186647891998291,0.3917006850242615
1766149349807437000,546.1984370117187,-9.29834270477295,-3.079813241958618,0.4754999577999115
1766149349827456500,546.2184565429687,-9.339838981628418,-2.9359734058380127,0.5637746453285217
1766149349837436000,546.2284357910156,-9.36801815032959,-2.839643716812134,0.5891759395599365
1766149349847445500,546.2384455566406,-9.383146286010742,-2.7856929302215576,0.6056738495826721
1766149349857425000,546.2484248046875,-9.423734664916992,-2.643181800842285,0.6141757369041443
1766149349867404000,546.2584040527344,-9.500151634216309,-2.352620840072632,0.6186056137084961
1766149349877383400,546.2683835449219,-9.525129318237305,-2.2436671257019043,0.6389705538749695
1766149349887423700,546.278423828125,-9.607233047485352,-1.8573532104492188,0.649449348449707
1766149349897403000,546.2884028320312,-9.653773307800293,-1.574044942855835,0.705318033695221
1766149349907412700,546.2984128417969,-9.686620712280273,-1.2826746702194214,0.8333919644355774
1766149349917361400,546.308361328125,-9.716460227966309,-0.9851610064506531,0.8890092372894287
1766149349937380900,546.328380859375,-9.740134239196777,-0.4098844826221466,1.0640424489974976
1766149349947329500,546.3383295898437,-9.740070343017578,-0.14629721641540527,1.131420373916626
1766149349957339400,546.3483393554687,-9.733733177185059,0.0818447545170784,1.1908749341964722
1766149349967318800,546.3583188476563,-9.7239351272583,0.24972061812877655,1.2462540864944458
1766149349977328400,546.3683283691406,-9.712240219116211,0.34572452306747437,1.3127400875091553
1766149349987277000,546.3782770996094,-9.702346801757812,0.3771861791610718,1.3757359981536865
1766149349997256400,546.3882563476562,-9.693034172058105,0.40741199254989624,1.431606411933899
1766149350007266000,546.3982661132812,-9.680168151855469,0.44674158096313477,1.5050442218780518
1766149350017245400,546.4082453613281,-9.661050796508789,0.47777724266052246,1.614375114440918
1766149350027224600,546.418224609375,-9.647143363952637,0.5475063920021057,1.674294352531433
1766149350057193000,546.4481928710937,-9.591081619262695,0.7969246506690979,1.8832039833068848
1766149350067172000,546.4581721191406,-9.576298713684082,0.8143265843391418,1.9498087167739868
1766149350077121000,546.46812109375,-9.551131248474121,0.8130455613136292,2.0700953006744385
1766149350087130600,546.4781306152344,-9.53641414642334,0.8026860952377319,2.1407735347747803
1766149350097110000,546.4881101074219,-9.513920783996582,0.7530820965766907,2.2557859420776367
1766149350107089200,546.4980891113281,-9.503135681152344,0.7467844486236572,2.302861452102661
1766149350117068300,546.508068359375,-9.48892593383789,0.7649230360984802,2.354907989501953
1766149350127078100,546.518078125,-9.435333251953125,0.7872485518455505,2.5544402599334717
1766149350167025700,546.5580256347656,-9.419239044189453,0.9847314953804016,2.5453062057495117
1766149350177005000,546.5680051269532,-9.41882038116455,1.0080314874649048,2.5377449989318848
1766149350187014700,546.5780146484375,-9.429607391357422,1.0222952365875244,2.4915523529052734
1766149350196963300,546.5879633789062,-9.435272216796875,1.0033979415893555,2.4777486324310303
1766149350206973200,546.5979731445312,-9.434148788452148,0.9880369305610657,2.4881677627563477
1766149350226931700,546.617931640625,-9.442730903625488,0.9339879751205444,2.4764795303344727
1766149361138859000,557.5298588867188,-4.035299301147461,1.3159823417663574,8.840527534484863
1766149361148699400,557.5396994628907,-4.030981540679932,1.3260382413864136,8.840998649597168
1766149361198356500,557.5893564453125,-3.982348918914795,0.6085138916969299,8.940977096557617
1766149361228355300,557.6193552246094,-3.9492268562316895,0.22675032913684845,8.97343921661377
1766149361278312700,557.6693127441406,-3.8971383571624756,-0.3259233236312866,8.993136405944824
1766149361288291800,557.6792917480469,-3.7558810710906982,-0.658623218536377,9.034931182861328
1766149361298240500,557.6892404785157,-3.7108395099639893,-0.7409983277320862,9.047154426574707
1766149361308280800,557.6992807617188,-3.609013557434082,-0.8980287313461304,9.074082374572754
1766149361318229800,557.7092297363281,-3.4437317848205566,-1.0964239835739136,9.116410255432129
1766149361328209000,557.719208984375,-3.3251376152038574,-1.1994444131851196,9.147416114807129
1766149361338249200,557.7292492675781,-3.2051289081573486,-1.3198230266571045,9.173637390136719
1766149361348258800,557.7392587890625,-3.081859588623047,-1.444085955619812,9.197127342224121
1766149361358238200,557.74923828125,-2.9566562175750732,-1.5554379224777222,9.22004222869873
1766149361368217300,557.7592172851563,-2.8925697803497314,-1.604616403579712,9.231937408447266
1766149361398185700,557.7891857910156,-2.5108628273010254,-1.8684794902801514,9.293803215026855
1766149361418174700,557.8091748046875,-2.2193875312805176,-2.1039652824401855,9.317618370056152
1766149361438163700,557.8291638183593,-2.0643763542175293,-2.2218267917633057,9.325891494750977
1766149361448142800,557.8391428222657,-1.9096412658691406,-2.3608553409576416,9.324703216552734
1766149361468193000,557.8591931152343,-1.6856764554977417,-2.57155704498291,9.312142372131348
1766149361508171000,557.8991708984375,-1.1955606937408447,-3.0657763481140137,9.238078117370605
1766149361528129500,557.9191296386718,-1.0005220174789429,-3.3135650157928467,9.175492286682129
1766149361538108700,557.9291086425782,-0.9447095394134521,-3.5064144134521484,9.109501838684082
1766149361548149000,557.9391489257813,-0.9102361798286438,-3.716745138168335,9.029268264770508
1766149361558158800,557.9491589355468,-0.9003583788871765,-3.922551393508911,8.942779541015625
1766149361568168700,557.9591687011718,-0.921800971031189,-4.114495754241943,8.853904724121094
1766149361588157700,557.9791577148437,-1.036385416984558,-4.353869915008545,8.725829124450684
1766149361598136800,557.98913671875,-1.1839923858642578,-4.506975173950195,8.628772735595703
1766149361608116200,557.9991162109375,-1.3444904088974,-4.683694362640381,8.510332107543945
1766149361618125800,558.0091257324219,-1.6114404201507568,-4.875584125518799,8.354780197143555
1766149361628166100,558.0191662597656,-1.7064549922943115,-4.919774532318115,8.309887886047363
1766149361638145500,558.0291455078125,-1.9145424365997314,-4.946219444274902,8.248626708984375
1766149361648124700,558.0391247558593,-2.165648937225342,-4.940970420837402,8.18945598602295
1766149361658134500,558.0491345214843,-2.235692262649536,-4.946943283081055,8.16699504852295
1766149361668113700,558.0591137695312,-2.242830514907837,-4.953271865844727,8.161199569702148
1766149361698051300,558.0890512695313,-1.738693118095398,-5.010931968688965,8.24850845336914
1766149361708091600,558.0990915527344,-1.6604764461517334,-5.010782241821289,8.264699935913086
1766149361718040300,558.1090402832032,-1.6194342374801636,-4.9307427406311035,8.320791244506836
1766149361738060000,558.1290600585937,-1.73227858543396,-4.716873645782471,8.4214448928833
1766149361748069600,558.1390695800782,-1.784611463546753,-4.644961357116699,8.450438499450684
1766149361758018600,558.1490185546875,-1.9079368114471436,-4.428028106689453,8.539480209350586
1766149361767997700,558.1589978027343,-1.9260616302490234,-4.358304023742676,8.571223258972168
1766149361778007600,558.1690075683593,-1.9062983989715576,-4.254327297210693,8.627694129943848
1766149361808067300,558.1990673828125,-1.7360528707504272,-3.9798200130462646,8.793041229248047
1766149361818046500,558.2090463867188,-1.6826841831207275,-3.8632514476776123,8.855183601379395
1766149361828056300,558.2190563964843,-1.6603403091430664,-3.7334353923797607,8.914881706237793
1766149361838035500,558.2290354003907,-1.653254747390747,-3.695183277130127,8.932119369506836
1766149361848014800,558.2390148925781,-1.6570383310317993,-3.6407358646392822,8.953752517700195
1766149361857994000,558.2489938964844,-1.6478251218795776,-3.6010522842407227,8.97148323059082
1766149361868003800,558.25900390625,-1.6056500673294067,-3.5827231407165527,8.986455917358398
1766149361877983000,558.2689829101563,-1.5894324779510498,-3.580177068710327,8.99035358428955
1766149361907951400,558.2989514160156,-1.5658091306686401,-3.477625608444214,9.034643173217773
1766149361917900000,558.3089001464843,-1.5538123846054077,-3.455944299697876,9.045026779174805
1766149361927879400,558.3188793945312,-1.521535038948059,-3.410449743270874,9.067753791809082
1766149361937858600,558.3288586425781,-1.4792945384979248,-3.369739532470703,9.089937210083008
1766149361947899000,558.3388989257812,-1.389195203781128,-3.2985100746154785,9.130189895629883
1766149361967826700,558.3588266601563,-1.2667232751846313,-3.1991360187530518,9.183209419250488
1766149361977806000,558.3688061523437,-1.0892051458358765,-3.103969097137451,9.238471984863281
1766149361987785200,558.37878515625,-0.9406792521476746,-3.04107928276062,9.275632858276367
1766149362017723100,558.4087231445312,-0.5528367161750793,-2.9171202182769775,9.346400260925293
1766149362027763500,558.4187634277343,-0.4608084261417389,-2.8611581325531006,9.36866283416748
1766149362037712100,558.4287121582031,-0.26158055663108826,-2.791510581970215,9.39731216430664
1766149362047721700,558.4387216796875,-0.14207622408866882,-2.7245471477508545,9.419504165649414
1766149362057731600,558.4487316894531,-0.08107786625623703,-2.6998374462127686,9.427336692810059
1766149362067741400,558.4587414550781,-0.04222527891397476,-2.679447889328003,9.433406829833984
1766149362077720600,558.4687204589844,-0.009960252791643143,-2.6662940979003906,9.437223434448242
1766149362087730400,558.47873046875,0.0555582232773304,-2.648982286453247,9.441939353942871
1766149362097679000,558.4886791992187,0.08424948155879974,-2.6284103393554688,9.447473526000977
1766149362117698600,558.5086984863282,0.0692863017320633,-2.6298794746398926,9.447186470031738
1766149362157646000,558.5486459960938,-0.07346563786268234,-2.6696698665618896,9.435988426208496
1766149362167625500,558.5586254882812,-0.08526362478733063,-2.688755989074707,9.43046760559082
1766149362177604600,558.5686044921875,-0.10146189481019974,-2.704852342605591,9.425703048706055
1766149362187614500,558.5786145019531,-0.231792151927948,-2.764798164367676,9.405985832214355
1766149362197593600,558.5885935058594,-0.3451841473579407,-2.7975735664367676,9.392807960510254
1766149362207603500,558.598603515625,-0.482250452041626,-2.8198482990264893,9.380102157592773
1766149362247520500,558.6385205078125,-1.2018588781356812,-2.9290995597839355,9.281503677368164
1766149362257499600,558.6484997558593,-1.298386812210083,-2.9419870376586914,9.264410972595215
1766149362267509500,558.6585095214843,-1.4625818729400635,-2.971557378768921,9.230443954467773
1766149362277488600,558.6684885253907,-1.601928472518921,-2.991231679916382,9.200908660888672
1766149362287498500,558.6784985351562,-1.729001760482788,-3.0432121753692627,9.160776138305664
1766149362297508000,558.6885080566407,-1.7580407857894897,-3.0686774253845215,9.146742820739746
1766149362307518000,558.6985180664062,-1.7419383525848389,-3.1459836959838867,9.123533248901367
1766149362357475300,558.7484753417968,-1.1466898918151855,-3.402602434158325,9.125666618347168
1766149362367454500,558.7584543457032,-0.969020426273346,-3.4241445064544678,9.13819694519043
1766149362377464300,558.7684643554687,-0.7914028763771057,-3.4428701400756836,9.14826488494873
1766149441139065900,637.5300659179687,7.286718368530273,2.9301226139068604,5.872691631317139
1766149441158424300,637.5494243164062,7.2702717781066895,2.8930280208587646,5.91133975982666
1766149441178082800,637.5690827636719,7.251581192016602,2.8314292430877686,5.9638895988464355
1766149441188062200,637.5790622558594,7.228969573974609,2.7908284664154053,6.010296821594238
1766149441207990000,637.5989899902344,7.192160129547119,2.750690460205078,6.072638511657715
1766149441237958400,637.6289584960938,7.1112871170043945,2.7562358379364014,6.164669990539551
1766149441297864400,637.6888645019532,7.008254051208496,2.6845474243164062,6.312524318695068
1766149441337842400,637.7288425292969,6.94426155090332,2.7320432662963867,6.362669467926025
1766149441387769000,637.7787690429687,6.910913467407227,2.805933952331543,6.366819381713867
1766149441407758000,637.7987580566406,6.909474849700928,2.820967674255371,6.361735820770264
1766149441447736000,637.8387360839844,6.9065260887146,2.9060962200164795,6.326523303985596
1766149441457715500,637.8487155761719,6.905362129211426,2.9204094409942627,6.321200370788574
1766149441497663000,637.8886630859375,6.911928176879883,3.022613286972046,6.265737056732178
1766149441527631000,637.9186311035156,6.926661491394043,3.0850205421447754,6.218873500823975
1766149441537610500,637.9286105957032,6.93553352355957,3.0890917778015137,6.2069525718688965
1766149441547620000,637.9386201171875,6.941230297088623,3.0871927738189697,6.201529026031494
1766149441557630000,637.9486298828125,6.956998348236084,3.0653398036956787,6.194695472717285
1766149441567609300,637.958609375,6.9709696769714355,3.0385119915008545,6.192205905914307
1766149441587598300,637.9785983886719,6.981956481933594,2.9931840896606445,6.201896667480469
1766149441597608000,637.9886079101562,6.978242874145508,2.9789211750030518,6.21293306350708
1766149441607617800,637.9986176757812,6.973015308380127,2.954807996749878,6.230294227600098
1766149441617627600,638.0086276855469,6.9659953117370605,2.916281223297119,6.256244659423828
1766149441627637200,638.0186372070312,6.9617791175842285,2.893476724624634,6.271508693695068
1766149441637616600,638.0286166992188,6.953724384307861,2.8251380920410156,6.311473369598389
1766149441647595800,638.038595703125,6.945727825164795,2.7358450889587402,6.359435081481934
1766149441657575200,638.0485751953125,6.937182903289795,2.6257050037384033,6.414947986602783
1766149441667554300,638.0585541992187,6.927608489990234,2.4938175678253174,6.4776153564453125
1766149441677533400,638.0685334472656,6.910356044769287,2.2517194747924805,6.5838541984558105
1766149441697522700,638.0885227050782,6.888368606567383,1.9640171527862549,6.698016166687012
1766149441717511700,638.10851171875,6.853085994720459,1.4976469278335571,6.852930068969727
1766149441727521300,638.1185212402344,6.82671594619751,1.2354674339294434,6.93108606338501
1766149441737500700,638.1285007324219,6.772412300109863,0.8047826290130615,7.046783447265625
1766149441747571500,638.1385715332032,6.724014759063721,0.4899413585662842,7.121655464172363
1766149441757550600,638.1485505371094,6.663761615753174,0.15496128797531128,7.193098068237305
1766149441767530000,638.1585300292969,6.628864288330078,-0.01874912530183792,7.226907730102539
1766149441817487000,638.2084870605469,6.011054992675781,-2.27600359916687,7.406580448150635
1766149441827497000,638.2184970703125,5.844863414764404,-2.7478222846984863,7.379527568817139
1766149441837476000,638.2284760742187,5.755324363708496,-2.9861643314361572,7.357272148132324
1766149441847486000,638.2384858398437,5.464524745941162,-3.732846975326538,7.237072467803955
1766149441857465000,638.2484650878906,5.359786033630371,-3.986128330230713,7.180102825164795
1766149441867444500,638.2584445800782,5.143688678741455,-4.500896453857422,7.032409191131592
1766149441877423600,638.2684235839844,4.893636226654053,-5.0410590171813965,6.841814994812012
1766149441897382100,638.2883820800781,4.323520183563232,-6.1331305503845215,6.313658237457275
1766149441907392000,638.2983920898438,4.024267673492432,-6.65595006942749,5.972771167755127
1766149441917371100,638.30837109375,3.7114086151123047,-7.165812015533447,5.571981430053711
1766149441927381000,638.3183811035157,3.2373600006103516,-7.873230457305908,4.8684844970703125
1766149441937360100,638.3283601074219,3.074277639389038,-8.094560623168945,4.604051113128662
1766149441947339500,638.3383395996094,2.7660114765167236,-8.498368263244629,4.036993980407715
1766149441957318700,638.3483186035156,2.458289861679077,-8.843982696533203,3.4512569904327393
1766149441967328500,638.3583286132813,2.1469147205352783,-9.143519401550293,2.8208467960357666
1766149441977307600,638.3683076171875,1.8138206005096436,-9.390826225280762,2.1662962436676025
1766149441987317500,638.3783173828125,1.4846429824829102,-9.578304290771484,1.4907442331314087
1766149441997296600,638.3882966308594,1.1998735666275024,-9.70235824584961,0.7713295221328735
1766149442047284500,638.4382844238281,0.766593337059021,-9.291584968566895,-3.0412487983703613
1766149442057294300,638.4482944335938,0.8253810405731201,-9.012370109558105,-3.7770779132843018
1766149442067304000,638.4583039550781,0.9679815173149109,-8.468887329101562,-4.848850727081299
1766149442097302800,638.488302734375,1.2195565700531006,-7.279387474060059,-6.457058906555176
1766149442107312600,638.4983127441407,1.2940741777420044,-6.475372314453125,-7.2501935958862305
1766149442197248000,638.588248046875,0.8042296767234802,-3.2504844665527344,-9.217265129089355
1766150073171936000,1269.5629360351563,8.225340843200684,3.647742509841919,3.89975905418396
1766150073241473800,1269.632473876953,8.31045150756836,3.4689433574676514,3.8824236392974854
1766150073261462800,1269.652462890625,8.318115234375,3.479170560836792,3.8567776679992676
1766150073291492000,1269.6824921875,8.323490142822266,3.485991954803467,3.8389782905578613
1766150073301471200,1269.6924711914062,8.321020126342773,3.491619825363159,3.839219570159912
1766150073361529900,1269.7525297851562,8.222949028015137,3.723738193511963,3.832396984100342
1766150073381549300,1269.7725493164062,8.245561599731445,3.6802849769592285,3.8257813453674316
1766150073441485800,1269.8324858398437,8.307202339172363,3.5148067474365234,3.847975969314575
1766150073491473700,1269.8824736328124,8.286332130432129,3.4813334941864014,3.9226784706115723
1766150073501453000,1269.892453125,8.288233757019043,3.4657132625579834,3.9324798583984375
1766150073541492000,1269.9324919433593,8.294140815734863,3.4207510948181152,3.9593026638031006
1766150073611560400,1270.002560546875,8.207992553710938,3.565641164779663,4.010668754577637
1766150073641528600,1270.032528564453,8.098752975463867,3.7887961864471436,4.028103351593018
1766150073651538400,1270.042538330078,8.038932800292969,3.8985252380371094,4.043198585510254
1766150073711475000,1270.1024748535156,7.804594993591309,4.17866325378418,4.218704700469971
1766150073731464000,1270.1224638671874,7.738165855407715,4.209779262542725,4.309168815612793
1766150073791431000,1270.182430908203,7.6653289794921875,4.078607559204102,4.558298587799072
1766150073821429800,1270.2124296875,7.604719161987305,4.089221000671387,4.649399280548096
1766150073841449200,1270.23244921875,7.576043128967285,4.132366180419922,4.658059120178223
1766150073881458000,1270.2724580078125,7.622737884521484,4.115591526031494,4.596320152282715
1766150073911426000,1270.3024260253906,7.756405830383301,3.915430784225464,4.547301769256592
1766150073981372400,1270.372372314453,7.752473831176758,4.085330963134766,4.402228355407715
1766150074001391900,1270.392391845703,7.775685787200928,4.071799278259277,4.373733997344971
1766150074051379700,1270.4423796386718,7.8376312255859375,3.967233657836914,4.359241485595703
1766150074061359000,1270.4523591308593,7.828253746032715,3.974539279937744,4.369423866271973
1766150074091357700,1270.4823576660156,7.805446624755859,3.972585678100586,4.4117960929870605
1766150074121387000,1270.5123869628906,7.804752826690674,3.936920642852783,4.444870948791504
1766150074131366400,1270.522366455078,7.800609588623047,3.9424190521240234,4.447270393371582
1766150074141345500,1270.5323454589843,7.7984795570373535,3.947082281112671,4.446868896484375
1766150074151355400,1270.54235546875,7.789661407470703,3.953463315963745,4.456645488739014
1766150074171344400,1270.5623444824218,7.773775577545166,3.9682462215423584,4.471221923828125
1766150074191333400,1270.5823334960937,7.7610955238342285,3.973653554916382,4.4884138107299805
1766150074211322400,1270.602322265625,7.735255718231201,4.001744270324707,4.508020877838135
1766150074221301500,1270.6123015136718,7.7215118408203125,4.016867637634277,4.518120288848877
1766150074231281000,1270.6222810058593,7.711984157562256,4.0261335372924805,4.526139736175537
1766150074241321200,1270.6323212890625,7.6991286277771,4.040709972381592,4.535027027130127
1766150074251330800,1270.6423308105468,7.689418792724609,4.056441783905029,4.537456512451172
1766150074261310200,1270.6523103027343,7.675668239593506,4.081130504608154,4.538598537445068
1766150074271319800,1270.6623198242187,7.661509037017822,4.119122505187988,4.528188705444336
1766150074281329700,1270.6723295898437,7.648308277130127,4.14790153503418,4.524233818054199
1766150074301349000,1270.6923491210937,7.631344318389893,4.181541442871094,4.521912097930908
1766150074311359000,1270.7023588867187,7.63594913482666,4.183403491973877,4.512406349182129
1766150074321399300,1270.7123994140625,7.6382646560668945,4.177680492401123,4.513788223266602
1766150074331409000,1270.7224089355468,7.646568298339844,4.161702632904053,4.51448917388916
1766150074341418800,1270.7324187011718,7.65562105178833,4.145725250244141,4.513846397399902
1766150074351428600,1270.7424287109375,7.654753684997559,4.143488883972168,4.517370223999023
1766150074361469000,1270.7524689941406,7.658966541290283,4.139068603515625,4.514280319213867
1766150074371478500,1270.762478515625,7.660484313964844,4.139835357666016,4.511001110076904
1766150074381458000,1270.7724580078125,7.662485122680664,4.143184185028076,4.504523277282715
1766150074401447000,1270.7924470214843,7.675905704498291,4.135796546936035,4.488434791564941
1766150074421405400,1270.812405517578,7.678316593170166,4.143988609313965,4.476740837097168
1766150074431415000,1270.8224150390624,7.689589977264404,4.150824546813965,4.450981616973877
1766150074441425000,1270.8324248046874,7.69987154006958,4.150322437286377,4.433643341064453
1766150074451434800,1270.842434814453,7.70953369140625,4.142847061157227,4.42383337020874
1766150074461444400,1270.8524443359374,7.714654922485352,4.137609958648682,4.419804573059082
1766150074471423700,1270.862423828125,7.723117828369141,4.112849235534668,4.428126811981201
1766150074481433300,1270.8724333496093,7.7274932861328125,4.093080997467041,4.4387969970703125
1766150074491412700,1270.8824128417968,7.726958751678467,4.085550785064697,4.446659088134766
1766150074541400600,1270.9324006347656,7.6803364753723145,4.094139099121094,4.518942832946777
1766150074591388200,1270.9823881835937,7.65845251083374,4.0744805335998535,4.573521614074707
1766150074621417500,1271.0124174804687,7.613697052001953,4.09730339050293,4.627538681030273
1766150074641437200,1271.0324372558593,7.575020790100098,4.131256580352783,4.660705089569092
1766150074651446800,1271.0424467773437,7.544340133666992,4.168571472167969,4.677214622497559
1766150074681445600,1271.0724455566406,7.488451957702637,4.239953517913818,4.702793598175049
1766150074691424800,1271.0824248046874,7.481297969818115,4.245296955108643,4.709354877471924
1766150074701434600,1271.0924345703124,7.472530841827393,4.2548675537109375,4.714634418487549
1766150074731464000,1271.1224638671874,7.469485759735107,4.27262020111084,4.703392028808594
1766150074761493200,1271.1524931640624,7.4688239097595215,4.292778015136719,4.6860551834106445
1766150074781482200,1271.1724821777343,7.482487678527832,4.286435127258301,4.670036792755127
1766150074791522600,1271.1825224609374,7.498112678527832,4.269718170166016,4.6602783203125
1766150074801501700,1271.1925017089843,7.515222549438477,4.248006343841553,4.652553081512451
1766150074811511600,1271.2025114746093,7.5277299880981445,4.231035232543945,4.647796154022217
1766150074831470000,1271.222469970703,7.558553218841553,4.183021068572998,4.641228675842285
1766150074841510400,1271.2325104980468,7.561600208282471,4.176458358764648,4.642175674438477
1766150074851520000,1271.2425200195312,7.560548782348633,4.178189754486084,4.642330169677734
1766150074861529900,1271.2525297851562,7.557619571685791,4.1868133544921875,4.639328479766846
1766150074871539700,1271.2625397949218,7.55590295791626,4.194660186767578,4.635034561157227
1766150074881549300,1271.2725493164062,7.555472373962402,4.199952125549316,4.630943298339844
1766150074891559200,1271.2825590820312,7.555253505706787,4.201570510864258,4.629831314086914
1766150074901569000,1271.2925690917968,7.555212020874023,4.201551914215088,4.629915714263916
1766150074911578600,1271.3025786132812,7.554435729980469,4.199105262756348,4.633400917053223
1766150074921619000,1271.3126188964843,7.553456783294678,4.198835849761963,4.635241508483887
1766150074931659300,1271.3226591796874,7.550713062286377,4.197307586669922,4.6410932540893555
1766150074951678700,1271.3426787109374,7.550083637237549,4.1837358474731445,4.654350280761719
1766150074961688600,1271.3526884765624,7.548122882843018,4.1758880615234375,4.664566993713379
1766150074971698400,1271.362698486328,7.538390636444092,4.179703235626221,4.676872730255127
1766150074981708000,1271.3727080078124,7.527363300323486,4.189567565917969,4.685798645019531
1766150074991687400,1271.3826875,7.505217552185059,4.206615447998047,4.706005573272705
1766150075001727700,1271.392727783203,7.495854377746582,4.210812568664551,4.717161178588867
1766150075011737300,1271.4027373046874,7.487485885620117,4.2069411277771,4.733877182006836
1766150075021716700,1271.412716796875,7.483352184295654,4.1982011795043945,4.748150825500488
1766150075051746000,1271.44274609375,7.470731258392334,4.180730819702148,4.783310413360596
1766150075061725200,1271.4527250976562,7.469645023345947,4.18203592300415,4.783865928649902
1766150075071704300,1271.462704345703,7.470848083496094,4.18267822265625,4.7814249992370605
1766150075081744600,1271.4727446289062,7.472227573394775,4.183253765106201,4.778764724731445
1766150075091724000,1271.4827241210937,7.474213600158691,4.18223237991333,4.776552677154541
1766150075101733600,1271.492733642578,7.475379467010498,4.183071613311768,4.773992538452148
1766150075111743500,1271.502743408203,7.478945255279541,4.167757987976074,4.781793594360352
1766150075121753300,1271.5127534179687,7.483073711395264,4.158605098724365,4.783304214477539
1766150075161792300,1271.552792236328,7.463930606842041,4.142393112182617,4.827080726623535
1766150075181812000,1271.5728120117187,7.447056770324707,4.151569366455078,4.845224380493164
1766150075211841300,1271.6028413085937,7.416796684265137,4.17376708984375,4.872492790222168
1766150075221851000,1271.612850830078,7.405607223510742,4.184230327606201,4.880532264709473
1766150075231830300,1271.6228303222656,7.388814926147461,4.205563068389893,4.887642860412598
1766150075251880200,1271.642880126953,7.365356922149658,4.234611988067627,4.897955417633057
1766150075271869200,1271.662869140625,7.341833114624023,4.2595696449279785,4.911613464355469
1766150075281848600,1271.6728486328125,7.3358283042907715,4.267738342285156,4.91349458694458
1766150075291888600,1271.682888671875,7.327073097229004,4.281651496887207,4.914452075958252
1766150075301868000,1271.6928679199218,7.3153252601623535,4.3011016845703125,4.914970397949219
1766150075311847200,1271.7028471679687,7.304815292358398,4.31700325012207,4.916660308837891
1766150075321887500,1271.7128874511718,7.293658256530762,4.336089134216309,4.9164276123046875
1766150075331897300,1271.7228974609375,7.282956600189209,4.355783939361572,4.914884567260742
1766150075361926700,1271.7529267578125,7.268851280212402,4.381659030914307,4.912764072418213
1766150075381915600,1271.7729155273437,7.260891437530518,4.389051914215088,4.917933940887451
1766150075391925500,1271.7829255371093,7.258862018585205,4.386740684509277,4.922988414764404
1766150075401965600,1271.7929655761718,7.25955057144165,4.382067680358887,4.926133632659912
1766150075411945000,1271.8029450683593,7.26317834854126,4.365332126617432,4.935635566711426
1766150075421954600,1271.8129545898437,7.261277198791504,4.358338832855225,4.944606781005859
1766150075431964400,1271.8229643554687,7.258062362670898,4.355362892150879,4.9519429206848145
1766150075441974300,1271.8329743652343,7.256203651428223,4.352850437164307,4.956873893737793
1766150075471972900,1271.8629729003906,7.261924743652344,4.33621883392334,4.96306848526001
1766150075482013200,1271.8730131835937,7.267245769500732,4.329671382904053,4.960995197296143
1766150075492023000,1271.8830229492187,7.270924091339111,4.32669734954834,4.958199977874756
1766150075502033000,1271.8930329589843,7.28079080581665,4.317635536193848,4.951614856719971
1766150075512042500,1271.9030424804687,7.283731937408447,4.315898895263672,4.948803901672363
1766150075522052400,1271.9130522460937,7.288727283477783,4.31273078918457,4.944209098815918
1766150075532031500,1271.9230314941406,7.293734550476074,4.309614658355713,4.939538955688477
1766150075542041300,1271.9330412597656,7.30172872543335,4.303832054138184,4.932765483856201
1766150075552051200,1271.9430512695312,7.31135892868042,4.295413970947266,4.925833702087402
1766150075572101000,1271.9631010742187,7.320141315460205,4.284881591796875,4.921962738037109
1766150075592090000,1271.9830900878906,7.325099945068359,4.271594047546387,4.926132678985596
1766150075602130400,1271.9931303710937,7.328541278839111,4.2646684646606445,4.927014350891113
1766150075612140300,1272.0031403808593,7.332871437072754,4.253983497619629,4.929809093475342
1766150075622119400,1272.0131193847656,7.335365295410156,4.251595497131348,4.928157329559326
1766150075632129300,1272.0231293945312,7.334827423095703,4.252821922302246,4.92789888381958
1766150075642169600,1272.0331696777343,7.334930896759033,4.251134395599365,4.929201126098633
1766150075652179200,1272.0431791992187,7.335453987121582,4.248781681060791,4.930451393127441
1766150075662189000,1272.0531889648437,7.335790157318115,4.247321605682373,4.931210517883301
1766150075682208500,1272.0732084960937,7.325799465179443,4.260890960693359,4.934355735778809
1766150075702197500,1272.0931975097656,7.307750225067139,4.289889335632324,4.935992240905762
1766150075712237800,1272.1032377929687,7.3000969886779785,4.301065444946289,4.937591552734375
1766150075722247700,1272.1132475585937,7.292740345001221,4.312406063079834,4.938570976257324
1766150075732226800,1272.1232268066406,7.286255836486816,4.321344375610352,4.9403276443481445
1766150075742236700,1272.1332365722656,7.281160354614258,4.3267621994018555,4.943099498748779
1766150075752215800,1272.1432158203124,7.277214527130127,4.327219486236572,4.948507308959961
1766150075762256100,1272.1532561035156,7.2755208015441895,4.321547985076904,4.955946445465088
1766150075792285400,1272.1832854003906,7.271186351776123,4.3043437004089355,4.977234363555908
1766150075802295300,1272.1932954101562,7.271146774291992,4.29946756362915,4.981505393981934
1766150075812305000,1272.2033049316406,7.270786285400391,4.291368007659912,4.989010334014893
1766150075822314800,1272.2133146972656,7.2685089111328125,4.285374164581299,4.997473239898682
1766150075832294100,1272.223294189453,7.265529632568359,4.281245708465576,5.005337238311768
1766150075852344000,1272.2433439941406,7.262238025665283,4.275114059448242,5.015345573425293
1766150075862323500,1272.253323486328,7.261398792266846,4.273212432861328,5.018180847167969
1766150075872363500,1272.2633635253906,7.258678436279297,4.275796890258789,5.019914627075195
1766150075902332000,1272.2933317871093,7.284072399139404,4.246973514556885,5.007584571838379
1766150075912341800,1272.303341796875,7.292118549346924,4.23389196395874,5.0069499015808105
1766150075922381800,1272.3133818359374,7.311418056488037,4.207271575927734,5.001242637634277
1766150075932391700,1272.3233916015624,7.339809894561768,4.1763811111450195,4.9855217933654785
1766150075942401500,1272.333401611328,7.349928379058838,4.170612812042236,4.975432395935059
1766150075952380700,1272.3433806152343,7.370729923248291,4.156888484954834,4.956109046936035
1766150075962421000,1272.3534208984374,7.379159450531006,4.154571056365967,4.945497035980225
1766150075982440400,1272.3734404296874,7.408545017242432,4.134725093841553,4.918119430541992
1766150075992450300,1272.3834501953124,7.411764621734619,4.134898662567139,4.913121223449707
1766150076012500200,1272.4035002441406,7.4103617668151855,4.139555931091309,4.911314487457275
1766150076022510000,1272.4135100097656,7.410581588745117,4.136256694793701,4.913762092590332
1766150076032489500,1272.423489501953,7.411911487579346,4.1319050788879395,4.915416717529297
1766150076042529500,1272.4335295410156,7.420097351074219,4.1150946617126465,4.917166709899902
1766150076052539400,1272.4435393066406,7.422577857971191,4.108648777008057,4.918814182281494
1766150076062549200,1272.4535493164062,7.427505970001221,4.09636116027832,4.921624183654785
1766150076072558800,1272.4635588378906,7.428208827972412,4.0903520584106445,4.925558090209961
1766150076082599200,1272.4735991210937,7.427807807922363,4.08659553527832,4.929279804229736
1766150076102618600,1272.4936186523437,7.431853294372559,4.071620464324951,4.935570240020752
1766150076122638300,1272.5136384277343,7.4326324462890625,4.067058086395264,4.938157558441162
1766150076132648000,1272.5236479492187,7.430787086486816,4.069439888000488,4.938973903656006
1766150076142657800,1272.5336577148437,7.427768230438232,4.071916103363037,4.94147253036499
1766150076152667600,1272.5436677246093,7.424825668334961,4.075747966766357,4.942735195159912
1766150076162708000,1272.5537080078125,7.423390865325928,4.077836036682129,4.943169116973877
1766150076172717600,1272.5637175292968,7.422900676727295,4.081051826477051,4.941248416900635
1766150076182697000,1272.5736970214843,7.423911094665527,4.0836992263793945,4.9375433921813965
1766150076202716400,1272.5937163085937,7.425243854522705,4.089776039123535,4.930505275726318
1766150076222675000,1272.613675048828,7.431972026824951,4.090297698974609,4.919923782348633
1766150076232684500,1272.6236845703124,7.435888290405273,4.086060523986816,4.917524814605713
1766150076252734700,1272.6437346191406,7.441383361816406,4.083655834197998,4.911206245422363
1766150076262713900,1272.6537138671874,7.44616174697876,4.088969707489014,4.899529933929443
1766150076272693200,1272.663693359375,7.450399875640869,4.087362289428711,4.894425868988037
1766150076282733600,1272.673733642578,7.459224224090576,4.089466094970703,4.879202842712402
1766150076292743200,1272.6837431640624,7.464690685272217,4.092528820037842,4.8682637214660645
1766150076312763000,1272.703762939453,7.4645466804504395,4.110345363616943,4.853451728820801
1766150076332782300,1272.7237822265624,7.462103366851807,4.125609397888184,4.844248294830322
1766150076342792200,1272.733792236328,7.4636549949646,4.1285481452941895,4.839353084564209
1766150076352801800,1272.7438017578124,7.470008850097656,4.1277899742126465,4.83018684387207
1766150076362903000,1272.7539030761718,7.471257209777832,4.126580715179443,4.829289436340332
1766150076372913000,1272.7639128417968,7.478330135345459,4.123489856719971,4.820974826812744
1766150076382922800,1272.7739228515625,7.481296539306641,4.123120307922363,4.816687107086182
1766150076392932400,1272.7839323730468,7.4868693351745605,4.124268531799316,4.807034015655518
1766150076402942200,1272.7939421386718,7.495784759521484,4.128503322601318,4.789472579956055
1766150076422931200,1272.8139311523437,7.503682613372803,4.145089626312256,4.762706756591797
1766150076432971500,1272.8239714355468,7.505741119384766,4.154465198516846,4.751280307769775
1766150076442981400,1272.8339814453125,7.509307384490967,4.1577019691467285,4.7428059577941895
1766150076452991000,1272.8439909667968,7.512190341949463,4.158452033996582,4.737580299377441
1766150076463000800,1272.8540007324218,7.515988349914551,4.155511856079102,4.734135627746582
1766150076472980000,1272.8639799804687,7.5187578201293945,4.153298377990723,4.7316789627075195
1766150076482989800,1272.8739897460937,7.527655601501465,4.145173072814941,4.724650859832764
1766150076492999700,1272.8839997558593,7.531721115112305,4.14468240737915,4.718597412109375
1766150076502978800,1272.8939787597656,7.5320000648498535,4.153299331665039,4.710569381713867
1766150076533008100,1272.9240080566406,7.520252227783203,4.186086177825928,4.700305461883545
1766150076542987500,1272.933987548828,7.518154621124268,4.188472747802734,4.701535701751709
1766150076552997000,1272.9439970703124,7.517147064208984,4.193047523498535,4.699069023132324
1766150076563007000,1272.954007080078,7.51622200012207,4.197794437408447,4.69630765914917
1766150076573016600,1272.9640166015624,7.515751838684082,4.197526931762695,4.697300910949707
1766150076582996000,1272.9739958496093,7.514646053314209,4.198087692260742,4.698569297790527
1766150076593005800,1272.984005859375,7.5118207931518555,4.202218055725098,4.699394226074219
1766150076603015400,1272.9940153808593,7.50635290145874,4.21477746963501,4.696883201599121
1766150076612994800,1273.0039948730468,7.4962263107299805,4.232348442077637,4.6972551345825195
1766150076633014300,1273.0240141601562,7.495097637176514,4.245941162109375,4.6867780685424805
1766150076643024100,1273.0340241699218,7.504364013671875,4.233127593994141,4.683538436889648
1766150076653033700,1273.0440336914062,7.514997959136963,4.220203399658203,4.6781487464904785
1766150076662982400,1273.053982421875,7.531037330627441,4.204609394073486,4.666383743286133
1766150076672992300,1273.0639921875,7.5490031242370605,4.1886138916015625,4.6517157554626465
1766150076683002000,1273.0740021972656,7.53916597366333,4.196987152099609,4.660114765167236
1766150076693011700,1273.08401171875,7.527724742889404,4.207178115844727,4.669411659240723
1766150076702991000,1273.0939912109375,7.507063865661621,4.228668212890625,4.683242321014404
1766150076713000700,1273.1040007324218,7.479591369628906,4.26273775100708,4.696293354034424
1766150076743060700,1273.1340607910156,7.3523335456848145,4.439937114715576,4.732922554016113
1766150076753070300,1273.1440703125,7.291907787322998,4.489030361175537,4.779860973358154
1766150076763080200,1273.154080078125,7.229496002197266,4.5446929931640625,4.821882247924805
1766150076773090000,1273.1640900878906,7.197020530700684,4.570619583129883,4.845897674560547
1766150076783069200,1273.1740690917968,7.08351993560791,4.554192543029785,5.0252838134765625
1766150076793109500,1273.1841096191406,7.003454208374023,4.520200729370117,5.166217803955078
1766150076803119000,1273.194119140625,6.916972637176514,4.469968318939209,5.324027061462402
1766150076813129000,1273.20412890625,6.871596813201904,4.442342281341553,5.4052886962890625
1766150076823138800,1273.2141389160156,6.716840744018555,4.340860843658447,5.675507068634033
1766150076843158300,1273.234158203125,6.501572132110596,4.153048038482666,6.05410099029541
1766150076853137700,1273.2441376953125,6.408322334289551,4.012052059173584,6.245576858520508
1766150076863116800,1273.2541166992187,6.365667819976807,3.9305920600891113,6.340276718139648
1766150076873126700,1273.2641267089843,6.278966426849365,3.5945420265197754,6.619988918304443
1766150076883136300,1273.2741362304687,6.23893404006958,3.3246734142303467,6.7965168952941895
1766150076893146000,1273.2841459960937,6.208859443664551,3.0218355655670166,6.963402271270752
1766150076903125200,1273.2941252441406,6.185911178588867,2.6912996768951416,7.117709636688232
1766150076913165600,1273.3041655273437,6.169416427612305,2.3345348834991455,7.256627082824707
1766150076923175400,1273.3141755371093,6.159383296966553,1.9604183435440063,7.3749003410339355
1766150076953143600,1273.3441435546874,6.154478073120117,0.7627864480018616,7.59677267074585
1766150076963153400,1273.3541533203124,6.162636756896973,0.33538055419921875,7.621011257171631
1766150076973163300,1273.364163330078,6.167304515838623,0.11830504238605499,7.623696804046631
1766150076983142400,1273.3741423339843,6.2042646408081055,-0.5599361658096313,7.57390022277832
1766150076993152300,1273.38415234375,6.243264198303223,-1.0270421504974365,7.492477893829346
1766150077003161900,1273.3941618652343,6.2954206466674805,-1.5018500089645386,7.367666721343994
1766150077013141200,1273.4041413574218,6.323322296142578,-1.740426778793335,7.290877342224121
1766150077023150800,1273.4141508789062,6.4269795417785645,-2.4656693935394287,6.984612464904785
1766150077033160700,1273.4241606445312,6.493335723876953,-2.958048105239868,6.727326393127441
1766150077063159600,1273.4541596679687,6.5898823738098145,-4.4929680824279785,5.705881595611572
1766150077083179000,1273.474178955078,6.511835098266602,-5.555219650268555,4.786013126373291
1766150077093188900,1273.4841889648437,6.466691493988037,-6.005972385406494,4.275580883026123
1766150077103198500,1273.494198486328,6.413823127746582,-6.407707691192627,3.738253593444824
1766150077113208300,1273.504208251953,6.363275527954102,-6.749042987823486,3.1826930046081543
1766150077123218200,1273.5142182617187,6.319346904754639,-7.031344413757324,2.606999158859253
1766150077133227800,1273.524227783203,6.273427963256836,-7.265437602996826,2.006964921951294
1766150077143207200,1273.5342072753906,6.220478534698486,-7.450131416320801,1.4041253328323364
1766150077173206000,1273.5642060546875,5.976833343505859,-7.763575077056885,-0.4180605709552765
1766150077193195000,1273.5841950683593,5.774160385131836,-7.758315563201904,-1.6241940259933472
1766150077203204600,1273.5942045898437,5.718055248260498,-7.731905460357666,-1.9214258193969727
1766150077213184000,1273.6041840820312,5.526771068572998,-7.614995956420898,-2.7635183334350586
1766150077223163100,1273.6141630859374,5.373054027557373,-7.5113935470581055,-3.298431396484375
1766150077243182600,1273.6341826171874,5.015235900878906,-7.2430901527404785,-4.30760383605957
1766150077253192400,1273.6441923828124,4.815892696380615,-7.076181888580322,-4.785940647125244
1766150077353290200,1273.744290283203,2.431864023208618,-4.937281131744385,-8.116628646850586
1766150077363330300,1273.7543303222656,2.228633403778076,-4.713930130004883,-8.305567741394043
1766150154118140000,1350.509139892578,9.640342712402344,1.7132500410079956,-0.5467795729637146
1766150154137828900,1350.5288288574218,9.647726058959961,1.6733322143554688,-0.5401204228401184
1766150154167566600,1350.5585666503907,9.693252563476562,1.4183851480484009,-0.44655901193618774
1766150154187525000,1350.5785251464845,9.749539375305176,1.0109941959381104,-0.3078152537345886
1766150154197504300,1350.5885041503907,9.77505111694336,0.764790415763855,-0.18400079011917114
1766150154217462800,1350.608462890625,9.78980827331543,0.5727574229240417,-0.04458343982696533
1766150154257410300,1350.6484104003907,9.787139892578125,-0.24671408534049988,0.5669252872467041
1766150154297357800,1350.6883579101564,9.627365112304688,-1.3390144109725952,1.3004891872406006
1766150154317377300,1350.7083771972657,9.530040740966797,-1.7403432130813599,1.5231282711029053
1766150154327356700,1350.7183566894532,9.417643547058105,-2.1314713954925537,1.7132422924041748
1766150154357355500,1350.74835546875,9.113348960876465,-2.9662609100341797,2.0781142711639404
1766150154397333500,1350.7883334960939,8.878032684326172,-3.4736976623535156,2.298769474029541
1766150154447260200,1350.8382602539064,7.9501237869262695,-4.732116222381592,3.251614570617676
1766150154487207700,1350.878207763672,7.44584321975708,-5.05254602432251,3.8989202976226807
1766150154567072300,1350.958072265625,6.2826008796691895,-5.865656852722168,4.721588134765625
1766150154577051400,1350.968051513672,6.123255729675293,-5.99666690826416,4.766142845153809
1766150154627008800,1351.0180087890626,5.29664945602417,-6.634952068328857,4.908494472503662
1766150154636988000,1351.0279877929688,5.203866481781006,-6.696050643920898,4.924740791320801
1766150154656977000,1351.0479768066407,4.9926652908325195,-6.815290451049805,4.979507923126221
1766150154666986800,1351.0579868164064,4.930721759796143,-6.857539176940918,4.983227252960205
1766150154696955000,1351.0879548339844,4.059961795806885,-7.357235908508301,5.055511951446533
1766150154706964700,1351.09796484375,3.6203773021698,-7.537171840667725,5.123894214630127
1766150154716944100,1351.107944091797,3.510500192642212,-7.578885078430176,5.138799667358398
1766150154726953700,1351.1179536132813,3.383296012878418,-7.621506214141846,5.161041736602783
1766150154736963600,1351.127963623047,3.284233808517456,-7.647426128387451,5.1866254806518555
1766150154746942700,1351.1379426269532,3.176790237426758,-7.674582481384277,5.213366985321045
1766150154756952600,1351.1479526367189,3.048841953277588,-7.715055465698242,5.229997634887695
1766150154766931700,1351.157931640625,2.895409107208252,-7.770999908447266,5.234364032745361
1766150154776911000,1351.1679111328126,2.732187271118164,-7.828404903411865,5.236567974090576
1766150154786890200,1351.1778901367188,2.5374224185943604,-7.893395900726318,5.237000942230225
1766150154836817200,1351.227817138672,2.4079484939575195,-8.0256929397583,5.09514045715332
1766150154846826800,1351.2378266601563,2.4898364543914795,-8.069997787475586,4.984602451324463
1766150154856806100,1351.2478061523439,2.565932512283325,-8.100167274475098,4.896291732788086
1766150154866815700,1351.2578156738282,2.6019511222839355,-8.12149429321289,4.8416523933410645
1766150154876795100,1351.2677951660157,2.772481679916382,-8.166189193725586,4.668735027313232
1766150154886774300,1351.277774169922,2.905404567718506,-8.191855430603027,4.541202545166016
1766150154916803600,1351.307803466797,3.373523235321045,-8.238964080810547,4.112083435058594
1766150154926813400,1351.3178134765626,3.546334743499756,-8.23878288269043,3.964388608932495
1766150154936792600,1351.3277924804688,3.634124279022217,-8.23599624633789,3.88997220993042
1766150154946802400,1351.3378024902345,3.810803174972534,-8.231483459472656,3.727045774459839
1766150154956781600,1351.3477814941407,3.984823703765869,-8.22750186920166,3.5496158599853516
1766150154966761000,1351.3577609863282,4.237059116363525,-8.219705581665039,3.264070749282837
1766150154976770600,1351.3677705078126,4.320895671844482,-8.21323013305664,3.1690871715545654
1766150391850713300,1588.2417133789063,9.74250602722168,0.3183192312717438,1.0736035108566284
1766150391879951000,1588.270951171875,9.745038032531738,0.2556399703025818,1.067366361618042
1766150391889961000,1588.2809609375,9.74901008605957,0.16786709427833557,1.048332691192627
1766150391899909600,1588.2909096679687,9.750142097473145,0.14479504525661469,1.0412235260009766
1766150391909919500,1588.3009194335937,9.751935005187988,0.10020070523023605,1.0296196937561035
1766150391919868200,1588.3108681640624,9.753341674804688,0.0573304183781147,1.019526481628418
1766150391929878000,1588.3208779296874,9.75511360168457,0.0002718372270464897,1.0040680170059204
1766150391959846100,1588.3508461914062,9.757439613342285,-0.09587205946445465,0.9765164852142334
1766150392059791400,1588.4507912597655,9.701112747192383,-1.161767840385437,0.8420740962028503
1766150392089759500,1588.4807595214843,9.580081939697266,-1.8895429372787476,0.9066670536994934
1766150392119727900,1588.510727783203,9.409835815429688,-2.543638229370117,1.0748379230499268
1766150392129707000,1588.52070703125,9.227049827575684,-3.0471584796905518,1.3216500282287598
1766150392139716900,1588.530716796875,9.05881118774414,-3.4299018383026123,1.5310463905334473
1766150392169715700,1588.5607158203125,8.398746490478516,-4.543478488922119,2.233438014984131
1766150392199683800,1588.5906838378905,7.6649322509765625,-5.347811698913574,2.969867706298828
1766150392219672800,1588.6106728515624,7.197299480438232,-5.677978038787842,3.4827919006347656
1766150392229682700,1588.6206826171874,7.082216262817383,-5.740942001342773,3.6130576133728027
1766150392239692300,1588.6306923828124,6.738335609436035,-5.9014716148376465,3.9922237396240234
1766150392279701000,1588.6707009277343,5.6089653968811035,-6.406674861907959,4.864607334136963
1766150392319709400,1588.7107094726562,4.516915798187256,-6.862879753112793,5.35432243347168
1766150392369697300,1588.760697265625,4.381767749786377,-6.8017802238464355,5.541326522827148
1766150392379707100,1588.77070703125,4.606513023376465,-6.6450934410095215,5.549158096313477
1766150392389716700,1588.780716796875,4.8613996505737305,-6.467408180236816,5.541642665863037
1766150392399696100,1588.7906960449218,5.310432434082031,-6.166181564331055,5.472465991973877
1766150392409705700,1588.8007058105468,5.632699489593506,-5.942967414855957,5.396686553955078
1766150392419685000,1588.8106850585937,5.797224044799805,-5.8254008293151855,5.350448131561279
1766150392429664300,1588.8206643066405,6.299854755401611,-5.431046009063721,5.19480037689209
1766150392439643600,1588.8306435546874,6.623513221740723,-5.1530609130859375,5.073993682861328
1766150392449622800,1588.8406228027343,6.78049373626709,-5.0127854347229,5.006722450256348
1766150392459632600,1588.8506325683593,7.062283515930176,-4.759028434753418,4.862735271453857
1766150392489631500,1588.8806315917968,7.674517631530762,-4.306262969970703,4.3276166915893555
1766150392499580200,1588.890580078125,7.8784966468811035,-4.2305097579956055,4.025228977203369
1766150392509589800,1588.90058984375,7.941338539123535,-4.20775032043457,3.924330472946167
1766150392519569200,1588.9105690917968,8.06562614440918,-4.13090181350708,3.748561143875122
1766150392529548300,1588.9205483398437,8.194156646728516,-4.031625747680664,3.573817253112793
1766150392549568000,1588.9405681152343,8.484847068786621,-3.746932029724121,3.184063196182251
1766150563157149200,1759.5481491699218,5.672214984893799,-3.2258141040802,7.320552349090576
1766150563176768800,1759.5677687988282,5.6673150062561035,-3.253124952316284,7.312257289886475
1766150563196727300,1759.587727294922,5.4800848960876465,-3.4464871883392334,7.366192817687988
1766150563226665000,1759.6176650390626,5.170942783355713,-3.7237391471862793,7.454228401184082
1766150563236674600,1759.627674560547,5.013883113861084,-3.8457186222076416,7.499454498291016
1766150563246654000,1759.6376540527344,4.76300048828125,-4.002561569213867,7.580483913421631
1766150563256633000,1759.6476330566406,4.678995609283447,-4.046206951141357,7.609572410583496
1766150563306621000,1759.6976208496094,3.9790525436401367,-4.366919994354248,7.827359676361084
1766150563316630800,1759.707630859375,3.8618385791778564,-4.435556888580322,7.847446918487549
1766150563346568400,1759.737568359375,3.4750678539276123,-4.615767955780029,7.923951148986816
1766150563376567300,1759.7675673828126,3.1202549934387207,-4.705820083618164,8.018084526062012
1766150563406505000,1759.7975048828125,2.6412646770477295,-4.787261962890625,8.141021728515625
1766150563456401200,1759.847401123047,2.330551862716675,-4.772191524505615,8.244096755981445
1766150563476329200,1759.8673291015625,2.3038618564605713,-4.7584075927734375,8.259550094604492
1766150563576182800,1759.9671828613282,2.219224214553833,-4.6379194259643555,8.350756645202637
1766150563606120400,1759.9971203613281,2.263031244277954,-4.593300819396973,8.363654136657715
1766150563616130300,1760.0071303710938,2.3092970848083496,-4.571300983428955,8.363059043884277
1766150563626170600,1760.017170654297,2.351947546005249,-4.543670654296875,8.366230964660645
1766150563636180200,1760.0271801757813,2.384237766265869,-4.520300388336182,8.369749069213867
1766150563666209500,1760.0572094726563,2.4764962196350098,-4.4838480949401855,8.36256217956543
1766150563686229200,1760.077229248047,2.538036346435547,-4.427488327026367,8.37413215637207
1766150563716227800,1760.1072277832031,2.7918431758880615,-4.308494567871094,8.3554105758667
1766150563726237700,1760.1172377929688,2.88673734664917,-4.275612831115723,8.340039253234863
1766150563736247600,1760.1272475585938,2.922010660171509,-4.255533218383789,8.338027000427246
1766150563766185200,1760.1571853027344,3.09246826171875,-4.1921706199646,8.30859375
1766150563776095000,1760.1670949707031,3.154944658279419,-4.164651393890381,8.298937797546387
1766150563786043600,1760.177043701172,3.2035090923309326,-4.127496719360352,8.298896789550781
1766150563796023000,1760.1870229492188,3.2252602577209473,-4.11331844329834,8.297510147094727
1766150563805971700,1760.1969716796875,3.2682206630706787,-4.0962018966674805,8.289165496826172
1766150563816012000,1760.2070119628906,3.305189847946167,-4.082248210906982,8.28138542175293
1766150563825991200,1760.2169912109375,3.3125648498535156,-4.078965187072754,8.280057907104492
1766150563835970300,1760.2269702148437,3.380621910095215,-4.045365333557129,8.269027709960938
1766150563845919200,1760.2369191894531,3.449929714202881,-4.008468151092529,8.258363723754883
1766150563875917800,1760.2669177246094,3.575584650039673,-3.9747869968414307,8.221109390258789
1766150563885927700,1760.276927734375,3.5770621299743652,-3.965308904647827,8.225043296813965
1766150563895968000,1760.2869680175781,3.6654293537139893,-3.9404335021972656,8.198047637939453
1766150563905977900,1760.2969777832031,3.6982038021087646,-3.923766851425171,8.19132137298584
1766150563915987500,1760.3069875488281,3.7783761024475098,-3.8872921466827393,8.172101020812988
1766150563925997300,1760.3169973144531,3.800510883331299,-3.8793625831604004,8.16560173034668
1766150563936007200,1760.3270070800781,3.853468418121338,-3.868692636489868,8.145819664001465
1766150563946016800,1760.3370168457031,3.868293523788452,-3.8593289852142334,8.143234252929688
1766150563955996200,1760.34699609375,3.9151859283447266,-3.847684383392334,8.126317024230957
1766150563965975300,1760.356975341797,3.941185474395752,-3.838074207305908,8.118290901184082
1766150563985994800,1760.376994873047,3.9634220600128174,-3.815178632736206,8.118256568908691
1766150563995974100,1760.3869741210938,3.9802446365356445,-3.8197109699249268,8.107888221740723
1766150564005953300,1760.3969533691406,3.980473041534424,-3.824556350708008,8.105491638183594
1766150564015963100,1760.4069631347656,3.978658676147461,-3.8376686573028564,8.100183486938477
1766150564025942300,1760.4169423828125,3.9633262157440186,-3.8466567993164062,8.103436470031738
1766150564035921700,1760.4269216308594,3.8948605060577393,-3.89534330368042,8.11336898803711
1766150564045900800,1760.4369008789063,3.9123120307922363,-3.915903091430664,8.09505558013916
1766150564055910700,1760.4469106445313,4.095459938049316,-3.8333992958068848,8.04379653930664
1766150564075838700,1760.466838623047,4.34000825881958,-3.7539329528808594,7.952528953552246
1766150564085817900,1760.4768178710938,4.4273762702941895,-3.778223991394043,7.892640113830566
1766150564095827700,1760.4868276367188,4.491247653961182,-3.806028366088867,7.8430376052856445
1766150564105837300,1760.4968374023438,4.5683207511901855,-3.8347787857055664,7.784299850463867
1766150564115847200,1760.5068471679688,4.654947757720947,-3.855156898498535,7.72266960144043
1766150564125857000,1760.5168569335938,4.798836708068848,-3.8176753520965576,7.652902126312256
1766150564145876500,1760.5368764648438,4.978627681732178,-3.794888496398926,7.5486741065979
1766150564155855600,1760.5468557128906,5.071146011352539,-3.8030292987823486,7.482702732086182
1766150564175875300,1760.5668752441406,5.168848991394043,-3.800499677658081,7.41684627532959
1766150564185885000,1760.5768850097656,5.185790538787842,-3.8254590034484863,7.392148017883301
1766150564195894800,1760.5868947753906,5.1868510246276855,-3.845059394836426,7.3812255859375
1766150564205843500,1760.5968435058594,5.186140060424805,-3.8808889389038086,7.362949848175049
1766150564215853300,1760.6068532714844,5.190073013305664,-3.908867120742798,7.3453593254089355
1766150564225832400,1760.6168325195313,5.187365531921387,-3.9174304008483887,7.342708587646484
1766150564235842300,1760.6268422851563,5.1667561531066895,-3.939563512802124,7.34539794921875
1766150564245821400,1760.6368215332031,5.142632007598877,-3.969428539276123,7.346249103546143
1766150564255861800,1760.6468618164063,5.131256103515625,-4.001707553863525,7.3366851806640625
1766150564275850800,1760.6668508300781,5.09204626083374,-4.052502155303955,7.336121082305908
1766150564295870200,1760.6868701171875,4.9371724128723145,-4.165056228637695,7.378821849822998
1766150564305849600,1760.696849609375,4.89338493347168,-4.201744556427002,7.387186050415039
1766150564315890000,1760.7068898925781,4.88017463684082,-4.215980529785156,7.387814521789551
1766150564325899500,1760.7168994140625,4.872774600982666,-4.220441818237305,7.390150547027588
1766150564345919200,1760.7369191894531,4.841544151306152,-4.267619609832764,7.383581638336182
1766150564355928800,1760.7469287109375,4.819138526916504,-4.297965049743652,7.380635738372803
1766150564365908200,1760.756908203125,4.818265438079834,-4.3312506675720215,7.361724853515625
1766150564385927700,1760.776927734375,4.877542972564697,-4.346845626831055,7.313336372375488
1766150564395937500,1760.7869375,4.875837326049805,-4.375054836273193,7.29763650894165
1766150564405916700,1760.796916748047,4.8564772605896,-4.440352916717529,7.271058559417725
1766150564415957000,1760.80695703125,4.840065002441406,-4.520825386047363,7.2323102951049805
1766150564425905700,1760.8169057617188,4.841980457305908,-4.5912322998046875,7.186529636383057
1766150564435885000,1760.8268850097656,4.876060485839844,-4.632271766662598,7.136979579925537
1766150564445864200,1760.8368642578125,4.979546546936035,-4.674428462982178,7.037344932556152
1766150564455874000,1760.8468740234375,5.015742778778076,-4.687078952789307,7.003143787384033
1766150564485873000,1760.8768728027344,5.042867183685303,-4.931673049926758,6.813110828399658
1766150564495882500,1760.8868825683594,5.028424263000488,-5.030824661254883,6.751010894775391
1766150564505862000,1760.8968618164063,5.025076389312744,-5.108904838562012,6.694631099700928
1766150564515841000,1760.9068410644531,5.056035041809082,-5.189593315124512,6.608707904815674
1766150564525851000,1760.9168508300781,5.12325382232666,-5.298605442047119,6.468959331512451
1766150564535860500,1760.9268605957031,5.147823810577393,-5.384634494781494,6.377775192260742
1766150564545839900,1760.93683984375,5.144071102142334,-5.49551248550415,6.285561561584473
1766150564555819000,1760.946819091797,5.096249580383301,-5.6309685707092285,6.204096794128418
1766150564565798400,1760.9567983398438,5.094546794891357,-5.683287620544434,6.157616138458252
1766150564595766500,1760.9867666015625,5.007903099060059,-6.035382270812988,5.88773775100708
1766150564605715200,1760.9967150878906,4.922177314758301,-6.178534507751465,5.8110480308532715
1766150564615694600,1761.0066945800781,4.8278985023498535,-6.318821907043457,5.738840103149414
1766150564625673700,1761.016673828125,4.747066974639893,-6.459239482879639,5.649246692657471
1766150564635653000,1761.026653076172,4.699202537536621,-6.59216833114624,5.534544467926025
1766150564645601800,1761.0366018066406,4.679794788360596,-6.714299201965332,5.402599811553955
1766150564655672600,1761.046672607422,4.652938365936279,-6.846031188964844,5.258557319641113
1766150564665621200,1761.0566213378906,4.5627546310424805,-7.0677571296691895,5.0396881103515625
1766150564675661600,1761.0666616210938,4.521487236022949,-7.145546913146973,4.966660499572754
1766150564695650600,1761.0866506347656,4.307754993438721,-7.453785419464111,4.696244239807129
1766150564705630000,1761.0966298828125,4.199108123779297,-7.5911054611206055,4.5730743408203125
1766150564715639600,1761.1066396484375,4.133676528930664,-7.7220354080200195,4.41058874130249
1766150564725619000,1761.1166188964844,4.130445957183838,-7.840750217437744,4.199099063873291
1766150564735659300,1761.1266591796875,4.086583614349365,-7.956925392150879,4.019646167755127
1766150564745668900,1761.1366689453125,3.964756488800049,-8.14391803741455,3.758683681488037
1766150564755678700,1761.1466787109375,3.908576726913452,-8.195466041564941,3.705099105834961
1766150564765688300,1761.1566882324219,3.7994983196258545,-8.31525707244873,3.548339605331421
1766150564775667700,1761.1666677246094,3.6467554569244385,-8.485221862792969,3.2973623275756836
1766150564805666600,1761.1966665039063,3.461759328842163,-8.711831092834473,2.879345417022705
1766150564815707000,1761.2067067871094,3.360825777053833,-8.795653343200684,2.740751028060913
1766150564825716500,1761.2167165527344,3.27266788482666,-8.870026588439941,2.6043543815612793
1766150564835695900,1761.2266958007813,3.201542854309082,-8.942253112792969,2.4406161308288574
1766150564845705500,1761.2367055664063,3.140727996826172,-9.033631324768066,2.167888879776001
1766150564865633500,1761.256633544922,3.015471935272217,-9.151411056518555,1.8245493173599243
1766150564875643400,1761.266643310547,2.937432050704956,-9.207137107849121,1.6644901037216187
1766150564885592000,1761.2765920410156,2.871185541152954,-9.253630638122559,1.5155872106552124
1766150564905581000,1761.2965810546875,2.791855812072754,-9.32524585723877,1.1898467540740967
1766150564915560200,1761.3065603027344,2.7843892574310303,-9.348825454711914,1.0084936618804932
1766150564925539600,1761.3165395507813,2.777637243270874,-9.36104679107666,0.9088203310966492
1766150564945467400,1761.3364672851562,2.6768484115600586,-9.42410659790039,0.4371177554130554
1766150564965487000,1761.356487060547,2.5810773372650146,-9.457796096801758,0.2418959140777588
1766150564975496700,1761.3664965820312,2.5372252464294434,-9.472554206848145,0.05992869287729263
1766150564985476000,1761.3764760742188,2.450789451599121,-9.493024826049805,-0.21560630202293396
1766150564995455200,1761.3864553222656,2.379777669906616,-9.505379676818848,-0.3934519290924072
1766150565015444200,1761.4064443359375,2.3107070922851562,-9.510655403137207,-0.6151875257492065
1766150565025454000,1761.4164541015625,2.2413759231567383,-9.508768081665039,-0.8543882369995117
1766150565035433200,1761.4264331054687,2.2202765941619873,-9.498597145080566,-1.0086535215377808
1766150565045412600,1761.4364125976563,2.171408176422119,-9.49266529083252,-1.1595914363861084
1766150565055453000,1761.4464528808594,2.1050820350646973,-9.489319801330566,-1.3006956577301025
1766150565065432000,1761.4564321289063,2.0651156902313232,-9.489837646484375,-1.3596528768539429
1766150565075442000,1761.4664418945313,2.012643575668335,-9.485840797424316,-1.4623570442199707
1766150565085421000,1761.4764211425781,1.9694912433624268,-9.470056533813477,-1.6154084205627441
1766150565095431000,1761.4864309082031,1.9501638412475586,-9.466350555419922,-1.65995192527771
1766150565115359000,1761.5063588867188,1.8658438920974731,-9.4480619430542,-1.850171685218811
1766150565135378400,1761.5263784179688,1.8360724449157715,-9.423452377319336,-1.9994466304779053
1766150565145357600,1761.5363576660156,1.8236008882522583,-9.418752670288086,-2.0327260494232178
1766150565155337000,1761.5463369140625,1.7966134548187256,-9.410059928894043,-2.0960257053375244
1766150565165316000,1761.5563161621094,1.7769358158111572,-9.401497840881348,-2.150520086288452
1766150565175326000,1761.5663259277344,1.7841991186141968,-9.388134956359863,-2.202256202697754
1766150565185335600,1761.5763354492187,1.8125479221343994,-9.36491870880127,-2.2767059803009033
1766150565195315000,1761.5863149414063,1.8140161037445068,-9.359352111816406,-2.2983150482177734
1766150565205294000,1761.5962941894531,1.7854728698730469,-9.35204029083252,-2.349848985671997
1766150565225283000,1761.6162829589844,1.793076992034912,-9.340221405029297,-2.3907225131988525
1766150565255251500,1761.6462514648438,1.692608118057251,-9.320371627807617,-2.536961317062378
1766150565265200000,1761.6562001953125,1.6749823093414307,-9.31793212890625,-2.557530641555786
1766150565275179500,1761.6661794433594,1.5945196151733398,-9.328678131103516,-2.569756507873535
1766151087126454800,2283.517454833984,9.759401321411133,-0.6857996582984924,-0.673913836479187
1766151087155823000,2283.546822998047,9.754422187805176,-0.6379316449165344,-0.7840070724487305
1766151087175542500,2283.566542480469,9.7407865524292,-0.6647801399230957,-0.9195278286933899
1766151087195531500,2283.5865314941407,9.72276782989502,-0.6704200506210327,-1.0902827978134155
1766151087205480200,2283.5964802246094,9.71206283569336,-0.6723442673683167,-1.1807565689086914
1766151087235479000,2283.6264790039063,9.68289566040039,-0.698639988899231,-1.3870197534561157
1766151087275426600,2283.666426513672,9.616921424865723,-0.6883836984634399,-1.7920222282409668
1766151087295446000,2283.686446044922,9.578225135803223,-0.6255531311035156,-2.009150266647339
1766151087315435300,2283.7064353027345,9.535408973693848,-0.5896454453468323,-2.21329927444458
1766151087325444900,2283.716444824219,9.513359069824219,-0.5730909109115601,-2.3104019165039062
1766151087335454700,2283.7264548339845,9.501927375793457,-0.5700821876525879,-2.3577048778533936
1766151087415502300,2283.8065024414063,9.209238052368164,-0.5556618571281433,-3.324389934539795
1766151087495550000,2283.886550048828,8.79678726196289,-0.6284576058387756,-4.288585186004639
1766151087575597600,2283.96659765625,8.119898796081543,-0.8574540019035339,-5.431611061096191
1766151087665593900,2284.05659375,7.14351224899292,-0.9572963714599609,-6.6501288414001465
1766151087685613300,2284.07661328125,6.900394916534424,-1.0246212482452393,-6.892393589019775
1766151087695653600,2284.086653564453,6.7092742919921875,-1.0786150693893433,-7.070545673370361
1766151087705633000,2284.0966330566407,6.643367290496826,-1.0943585634231567,-7.130107879638672
1766151087715642600,2284.106642578125,6.4677886962890625,-1.129316806793213,-7.284418106079102
1766151087725622000,2284.1166220703126,6.406212329864502,-1.145621657371521,-7.336102485656738
1766151087775640300,2284.1666403808595,5.702901363372803,-1.310805320739746,-7.869503498077393
1766151087795598600,2284.1865986328125,5.507397651672363,-1.3566718101501465,-7.999899864196777
1766151087805578000,2284.1965778808594,5.314383506774902,-1.4064228534698486,-8.120943069458008
1766151087815618300,2284.206618408203,5.181892395019531,-1.438583493232727,-8.200539588928223
1766151087825597400,2284.2165974121094,5.119555950164795,-1.4557644128799438,-8.236581802368164
1766151087835607300,2284.2266071777344,4.936557292938232,-1.5187889337539673,-8.336309432983398
1766151087845617200,2284.2366171875,4.873834609985352,-1.5401965379714966,-8.369224548339844
1766151087865606100,2284.256606201172,4.643556118011475,-1.6070514917373657,-8.486764907836914
1766151087895574300,2284.28657421875,4.277276039123535,-1.7497764825820923,-8.649484634399414
1766151087905553700,2284.2965537109376,4.160863876342773,-1.777288556098938,-8.700508117675781
1766151087915563300,2284.306563232422,4.10746431350708,-1.7870723009109497,-8.723848342895508
1766151087925542700,2284.3165427246095,3.919668436050415,-1.829552412033081,-8.801097869873047
1766151087935552300,2284.326552246094,3.86122465133667,-1.841219425201416,-8.824468612670898
1766151088015599900,2284.4065998535157,2.9070053100585938,-1.9246511459350586,-9.165992736816406
1766151092798713300,2289.189713378906,8.943540573120117,1.4152576923370361,3.7657017707824707
1766151092848331500,2289.2393315429686,8.806422233581543,1.4286855459213257,4.071384906768799
1766151092888309500,2289.2793095703123,8.606430053710938,1.5340911149978638,4.443682670593262
1766151092908298800,2289.299298828125,8.525126457214355,1.575771689414978,4.583617210388184
1766151092938236400,2289.329236328125,8.433935165405273,1.691838264465332,4.709225654602051
1766151092948246300,2289.3392463378905,8.431977272033691,1.7360153198242188,4.696637153625488
1766151092958225400,2289.3492253417967,8.43481159210205,1.7686119079589844,4.679354190826416
1766151092978214400,2289.3692143554686,8.42924976348877,1.7888727188110352,4.681673049926758
1766151092988224300,2289.379224365234,8.425150871276855,1.7853429317474365,4.690392017364502
1766151092998203400,2289.3892033691404,8.41677474975586,1.7876696586608887,4.704521179199219
1766151093008243700,2289.3992436523436,8.413683891296387,1.8258370161056519,4.695383071899414
1766151093088230400,2289.47923046875,8.583197593688965,1.9933971166610718,4.304123878479004
1766151093098209500,2289.489209472656,8.60950756072998,1.9782664775848389,4.258313179016113
1766151093108188700,2289.499188720703,8.647503852844238,1.9530295133590698,4.19246244430542
1766151093128178000,2289.5191779785155,8.684281349182129,1.9395453929901123,4.12211275100708
1766151093138157000,2289.5291569824217,8.730469703674316,1.9303665161132812,4.02777624130249
1766151093148136200,2289.5391362304686,8.7681884765625,1.9263153076171875,3.9469704627990723
1766151093158115600,2289.5491154785154,8.804409980773926,1.9417229890823364,3.8577792644500732
1766151093168156000,2289.559156005859,8.827658653259277,1.9453531503677368,3.8024234771728516
1766151093178135000,2289.5691350097654,8.884257316589355,1.9826018810272217,3.648237943649292
1766151093188114400,2289.579114501953,8.917827606201172,1.999253511428833,3.556082248687744
1766151093198063000,2289.589062988281,8.948827743530273,2.0053939819335938,3.473797559738159
1766151093208072700,2289.599072753906,8.963691711425781,2.007481336593628,3.4340410232543945
1766151093218082600,2289.609082519531,9.018465995788574,1.9777686595916748,3.3054630756378174
1766151093248051000,2289.6390510253905,9.165760040283203,1.8893989324569702,2.9307684898376465
1766151093258030000,2289.6490300292967,9.23283576965332,1.8312691450119019,2.7516491413116455
1766151093268040000,2289.6590400390623,9.274406433105469,1.7673134803771973,2.6518619060516357
1766151093278019000,2289.6690190429686,9.349178314208984,1.6865934133529663,2.4328277111053467
1766151093288059400,2289.6790593261717,9.388450622558594,1.671372890472412,2.287773370742798
1766151093298038500,2289.6890385742186,9.407661437988281,1.6694000959396362,2.208937406539917
1766151093308018000,2289.6990178222654,9.43639087677002,1.699590802192688,2.058229923248291
1766151093317966600,2289.708966552734,9.476884841918945,1.7184969186782837,1.845484972000122
1766151093327946000,2289.7189460449217,9.502152442932129,1.6991416215896606,1.7298603057861328
1766151093357883600,2289.7488835449217,9.589102745056152,1.5464915037155151,1.3519845008850098
1766151093367893200,2289.7588933105467,9.616649627685547,1.4980289936065674,1.2026411294937134
1766151093377903000,2289.7689030761717,9.639909744262695,1.4620436429977417,1.0511679649353027
1766151093387913000,2289.7789128417967,9.652215003967285,1.4419523477554321,0.9622408747673035
1766151093397922600,2289.7889226074217,9.670567512512207,1.4071123600006104,0.8188686370849609
1766151093407932400,2289.7989323730467,9.685235023498535,1.3700306415557861,0.6997317671775818
1766151093417911800,2289.808911865234,9.705647468566895,1.2979931831359863,0.5347900986671448
1766151093427891000,2289.8188908691404,9.714430809020996,1.256689190864563,0.4700603783130646
1766151093437870000,2289.8288701171873,9.734210014343262,1.155595064163208,0.2830863893032074
1766151093467808000,2289.8588081054686,9.745275497436523,1.084067702293396,-0.15746137499809265
1766151093477787100,2289.868787109375,9.745020866394043,1.0719008445739746,-0.23660404980182648
1766151093487827500,2289.878827392578,9.743550300598145,1.0206177234649658,-0.438136488199234
1766151093497806600,2289.888806640625,9.74207878112793,1.0027543306350708,-0.5067315697669983
1766151093507816400,2289.89881640625,9.734338760375977,0.9489568471908569,-0.7159056663513184
1766151093517795800,2289.9087958984373,9.731088638305664,0.9252391457557678,-0.7875487804412842
1766151093527805400,2289.9188054199217,9.722787857055664,0.884565532207489,-0.9248390793800354
1766151093537784800,2289.928784912109,9.7123441696167,0.840912401676178,-1.0647221803665161
1766151093547764000,2289.9387639160154,9.690884590148926,0.8186755180358887,-1.2597289085388184
1766151093567783400,2289.9587834472654,9.662985801696777,0.7470784187316895,-1.4963172674179077
1766151093577732400,2289.968732421875,9.624975204467773,0.6826392412185669,-1.7504973411560059
1766151093587742000,2289.978741943359,9.610100746154785,0.668256402015686,-1.8356961011886597
1766151093597690600,2289.988690673828,9.581779479980469,0.6403266191482544,-1.9874303340911865
1766151093607731000,2289.998730957031,9.553495407104492,0.6054877638816833,-2.1294357776641846
1766151093617710300,2290.0087104492186,9.506355285644531,0.48394811153411865,-2.3591058254241943
1766151093627689500,2290.018689453125,9.489705085754395,0.4477812647819519,-2.432152271270752
1766151093637668900,2290.0286689453123,9.438652038574219,0.3735847771167755,-2.6348941326141357
1766151093647678500,2290.0386784667967,9.39520263671875,0.3324991464614868,-2.7910566329956055
1766151093677616400,2290.068616455078,9.283845901489258,0.20563600957393646,-3.152510166168213
1766151093707615000,2290.098614990234,9.149882316589355,0.09394717961549759,-3.527209997177124
1766151093717594400,2290.1085944824217,9.09646987915039,0.06774073839187622,-3.6633355617523193
1766151093727604000,2290.118604003906,9.019410133361816,0.042478371411561966,-3.849522352218628
1766151093737583400,2290.128583251953,8.966065406799316,0.012688052840530872,-3.9723927974700928
1766151093747562500,2290.1385625,8.909594535827637,-0.0235520638525486,-4.097433567047119
1766151093757542000,2290.1485419921873,8.870759963989258,-0.06418096274137497,-4.180418491363525
1766151093767551500,2290.1585515136717,8.777884483337402,-0.13135112822055817,-4.370570659637451
1766151093787510000,2290.1785100097654,8.637070655822754,-0.27572059631347656,-4.63631010055542
1766151093797489400,2290.188489501953,8.538225173950195,-0.343354731798172,-4.811570167541504
1766151093807499000,2290.1984990234373,8.47385025024414,-0.38558727502822876,-4.920933723449707
1766151093817478400,2290.208478515625,8.44331169128418,-0.4062846601009369,-4.971499443054199
1766151093827457500,2290.218457519531,8.379412651062012,-0.4492805600166321,-5.074839115142822
1766151093837437000,2290.2284370117186,8.319223403930664,-0.48031187057495117,-5.1701273918151855
1766151093847446500,2290.238446533203,8.22241497039795,-0.5104914307594299,-5.31993293762207
1766151093887485700,2290.278485595703,7.957464694976807,-0.6421225666999817,-5.695333003997803
1766151093907505200,2290.298505126953,7.796954154968262,-0.72642582654953,-5.903406620025635
1766151093917453800,2290.3084538574217,7.697671890258789,-0.7558700442314148,-6.02867317199707
1766151093927494100,2290.318494140625,7.609912872314453,-0.7909666299819946,-6.134654521942139
1766151093937473500,2290.3284736328123,7.470059871673584,-0.8680364489555359,-6.294053077697754
1766151093947483100,2290.3384831542967,7.38843297958374,-0.9127699732780457,-6.383439540863037
1766151093957493000,2290.3484929199217,7.338633060455322,-0.9414295554161072,-6.436501979827881
1766151093987491800,2290.378491943359,7.079055309295654,-1.00186026096344,-6.712201118469238
1766151093997501400,2290.3885014648436,6.927034378051758,-1.0244752168655396,-6.865641117095947
1766151094007511300,2290.3985112304686,6.8817925453186035,-1.0340895652770996,-6.9095563888549805
1766151094027500300,2290.4185002441404,6.676591396331787,-1.0848157405853271,-7.100471496582031
1766151094037479400,2290.4284794921873,6.586483001708984,-1.108676552772522,-7.180492401123047
1766151094047519700,2290.4385197753904,6.491927146911621,-1.1380406618118286,-7.261551380157471
1766151094057499100,2290.4484990234373,6.403906345367432,-1.1605771780014038,-7.335764408111572
1766151094067478300,2290.458478271484,6.281793117523193,-1.2031115293502808,-7.433840274810791
1766151094087436800,2290.478436767578,6.057331562042236,-1.2491227388381958,-7.6104416847229
1766151094107456300,2290.498456298828,5.769650936126709,-1.3079216480255127,-7.8211798667907715
1766151094117435600,2290.508435546875,5.705604553222656,-1.3094029426574707,-7.867778301239014
1766151094127445200,2290.5184453125,5.612799644470215,-1.3182300329208374,-7.932790279388428
1766151094137394200,2290.528394287109,5.511883735656738,-1.3323686122894287,-8.000895500183105
1766151094157352700,2290.548352783203,5.278167724609375,-1.3705776929855347,-8.150634765625
1766151094167392800,2290.5583928222654,5.188363075256348,-1.3894001245498657,-8.204928398132324
1766151094197300200,2290.5883002929686,4.928834438323975,-1.4449219703674316,-8.353991508483887
1766151094207309800,2290.598309814453,4.801476955413818,-1.4633252620697021,-8.42465877532959
1766151100210482400,2296.601482421875,8.523697853088379,-1.728275179862976,-4.531007289886475
1766151100259731200,2296.6507312011718,8.392146110534668,-1.81699538230896,-4.737172603607178
1766151100269710600,2296.6607106933593,8.269499778747559,-1.852307915687561,-4.9350481033325195
1766151100299709400,2296.690709472656,8.006048202514648,-2.0012478828430176,-5.297979831695557
1766151100329708000,2296.7207080078124,7.817002296447754,-2.1070327758789062,-5.534010410308838
1766151100359646000,2296.7506459960937,7.489509582519531,-2.1091153621673584,-5.9690260887146
1766151100379665400,2296.7706655273437,7.277751922607422,-2.1135830879211426,-6.223944187164307
1766151100389675300,2296.7806752929687,7.225792407989502,-2.1169986724853516,-6.283043384552002
1766151100399654400,2296.790654296875,7.13078498840332,-2.1204402446746826,-6.389525890350342
1766151100409664300,2296.8006643066406,7.038754463195801,-2.1189684867858887,-6.491247653961182
1766151100419613000,2296.8106130371093,6.944787502288818,-2.1210997104644775,-6.590997695922852
1766151100439632400,2296.8306323242186,6.695829391479492,-2.1603691577911377,-6.831476211547852
1766151100449642200,2296.8406423339843,6.6475677490234375,-2.168584108352661,-6.875862121582031
1766151100459652000,2296.8506520996093,6.546195030212402,-2.197418689727783,-6.963409900665283
1766151100469661700,2296.8606616210936,6.441977500915527,-2.2367360591888428,-7.047575950622559
1766151100479610400,2296.8706103515624,6.33404541015625,-2.273678779602051,-7.133066654205322
1766151100489620200,2296.8806201171874,6.221108436584473,-2.3105132579803467,-7.220091819763184
1766151100499569000,2296.890568847656,6.050516128540039,-2.343806505203247,-7.353109359741211
1766151100509609200,2296.9006091308593,5.9417924880981445,-2.3586137294769287,-7.43656063079834
1766151100519619000,2296.910619140625,5.889379501342773,-2.365957736968994,-7.475816249847412
1766151100529598200,2296.920598144531,5.732120037078857,-2.3840785026550293,-7.591400623321533
1766151100559536000,2296.9505361328124,5.436232566833496,-2.394848108291626,-7.8027215003967285
1766151100569545700,2296.9605456542968,5.403616428375244,-2.3858039379119873,-7.828107833862305
1766151100579525000,2296.9705251464843,5.2971014976501465,-2.387730836868286,-7.899989604949951
1766151100589473800,2296.980473876953,5.120232582092285,-2.4097847938537598,-8.009153366088867
1766151100599453000,2296.9904528808593,5.005223751068115,-2.422917604446411,-8.07759952545166
1766151100609462800,2297.000462890625,4.8985371589660645,-2.434911012649536,-8.13916015625
1766151100619411500,2297.010411376953,4.800629615783691,-2.4467263221740723,-8.193770408630371
1766151100629421300,2297.0204213867187,4.752720832824707,-2.45365571975708,-8.219586372375488
1766151100659420200,2297.0504201660156,4.455689430236816,-2.4631545543670654,-8.381532669067383
1766151100669429800,2297.0604296875,4.370802402496338,-2.460433006286621,-8.426907539367676
1766151100679409200,2297.0704091796874,4.274414539337158,-2.4607954025268555,-8.476099014282227
1766151100689418800,2297.0804187011718,4.219265460968018,-2.4649109840393066,-8.502493858337402
1766151100699428600,2297.0904287109374,4.0572099685668945,-2.461611032485962,-8.581953048706055
1766151100709407700,2297.1004077148436,4.0000996589660645,-2.4638595581054688,-8.608076095581055
1766151100719387100,2297.110387207031,3.840897560119629,-2.447660207748413,-8.68486499786377
1766151100729396700,2297.1203967285155,3.740166187286377,-2.4331471920013428,-8.732772827148438
1766151100739376000,2297.130376220703,3.7016806602478027,-2.419403314590454,-8.752968788146973
1766151100749386000,2297.140385986328,3.595588207244873,-2.4030981063842773,-8.80154800415039
1766151100779323600,2297.1703237304687,3.2549633979797363,-2.356365203857422,-8.945566177368164
1766151100789364000,2297.180364013672,3.091179847717285,-2.339315891265869,-9.007919311523438
1766151100799343000,2297.190343017578,3.039618492126465,-2.3437113761901855,-9.024308204650879
1766151100809353000,2297.2003530273437,2.8850884437561035,-2.3453330993652344,-9.074474334716797
1766151100819332000,2297.21033203125,2.7828876972198486,-2.3542919158935547,-9.104023933410645
1766151217115583200,2413.506583251953,9.526026725769043,-1.9891432523727417,1.211814284324646
1766151217155361300,2413.546361328125,9.580537796020508,-1.7791095972061157,1.1038352251052856
1766151217165340400,2413.556340332031,9.602815628051758,-1.6891813278198242,1.0502310991287231
1766151217175350300,2413.566350341797,9.625205039978027,-1.59330153465271,0.9935839176177979
1766151217275264800,2413.6662646484374,9.718053817749023,-1.0996795892715454,0.7214769124984741
1766151217285244000,2413.6762438964843,9.724669456481934,-1.0476988554000854,0.7095950245857239
1766151217305233000,2413.696232910156,9.726665496826172,-1.0340478420257568,0.7022159695625305
1766151217325161000,2413.7161608886718,9.731026649475098,-1.0002626180648804,0.6906446218490601
1766151217405086500,2413.796086425781,9.690887451171875,-1.3044482469558716,0.7453173995018005
1766151217475155000,2413.866155029297,9.656756401062012,-1.4880985021591187,0.8384523391723633
1766151217515193900,2413.906193847656,9.675004959106445,-1.3889274597167969,0.7972115874290466
1766151217565212200,2413.956212158203,9.737320899963379,-0.886695384979248,0.7541530132293701
1766151217595211000,2413.9862109375,9.762194633483887,-0.57779461145401,0.732189953327179
1766151217605190100,2413.9961901855468,9.764350891113281,-0.5382705926895142,0.7335455417633057
1766151217635219500,2414.0262194824218,9.776132583618164,-0.22696460783481598,0.7389939427375793
1766151217675228200,2414.0662282714843,9.781744003295898,0.1497521549463272,0.6822390556335449
1766151217695247600,2414.0862475585936,9.7793550491333,0.24016863107681274,0.6905953288078308
1766151217705226800,2414.0962268066405,9.77823543548584,0.24464915692806244,0.7047334909439087
1766151217735225600,2414.1262255859374,9.773900985717773,0.023381387814879417,0.8004298210144043
1766151217745235500,2414.1362353515624,9.769081115722656,-0.12790946662425995,0.8479887843132019
1766151217795223300,2414.186223388672,9.681644439697266,-1.0752208232879639,1.1313881874084473
1766151217825222000,2414.216221923828,9.618681907653809,-1.465880036354065,1.2257792949676514
1766151217895198700,2414.2861987304686,9.596707344055176,-1.555051565170288,1.2866272926330566
1766151217905208600,2414.2962084960936,9.59186840057373,-1.5795906782150269,1.29280686378479
1766151217915157200,2414.3061572265624,9.591780662536621,-1.5785174369812012,1.2947674989700317
1766151217925136600,2414.31613671875,9.595308303833008,-1.5524265766143799,1.3001549243927002
1766151217935146200,2414.3261462402343,9.59843921661377,-1.5329726934432983,1.3001372814178467
1766151217945156000,2414.3361560058593,9.600264549255371,-1.523244023323059,1.2980878353118896
1766151217955135200,2414.346135253906,9.603411674499512,-1.511090636253357,1.288984775543213
1766151217965114600,2414.356114501953,9.606728553771973,-1.5033259391784668,1.2732502222061157
1766151217975063300,2414.3660632324218,9.612833023071289,-1.4809695482254028,1.253221035003662
1766151218005031700,2414.396031738281,9.653553009033203,-1.2463243007659912,1.1941388845443726
1766151218015041300,2414.4060412597655,9.665929794311523,-1.1694501638412476,1.171573281288147
1766151218025020700,2414.416020751953,9.677262306213379,-1.0995047092437744,1.1454520225524902
1766151218035030300,2414.4260302734374,9.686922073364258,-1.0378609895706177,1.1210559606552124
1766151218045040000,2414.4360400390624,9.694601058959961,-0.9829485416412354,1.1040449142456055
1766151218055050000,2414.446050048828,9.70041275024414,-0.9410277009010315,1.0894280672073364
1766151218065029000,2414.4560290527343,9.705313682556152,-0.9064756631851196,1.0749754905700684
1766151218075008300,2414.466008300781,9.7084379196167,-0.8835903406143188,1.0657756328582764
1766151218115047400,2414.506047363281,9.700662612915039,-0.9690806269645691,1.0622700452804565
