time,seconds_elapsed,z,y,x
1765548681415124700,-1.290875244140625,0.12449848651885986,-0.031124621629714966,0.026336219161748886
1765548681465112600,-1.240887451171875,0.1604115068912506,-0.7086837291717529,0.20111294090747833
1765548681475122400,-1.230877685546875,0.3519476354122162,-0.38307225704193115,-0.21547815203666687
1765548681485132000,-1.220867919921875,0.5219359993934631,-0.4141969084739685,-0.26575639843940735
1765548681495111400,-1.210888671875,0.0933738648891449,-0.5985504388809204,-0.3280056416988373
1765548681505121000,-1.20087890625,0.3423708379268646,0.22505496442317963,-0.1173158809542656
1765548681515131000,-1.190869140625,0.30885201692581177,0.4118026793003082,0.023942016065120697
1765548681555231000,-1.15076904296875,0.11013327538967133,-0.3256114423274994,-0.090979665517807
1765548681565240800,-1.14075927734375,0.20350714027881622,-0.21308395266532898,-0.22026655077934265
1765548681575250400,-1.13074951171875,0.15562310814857483,-0.004788403399288654,-0.07422025501728058
1765548681585260300,-1.12073974609375,0.12210428714752197,-0.14844051003456116,-0.21787235140800476
1765548681595239400,-1.110760498046875,-0.0071826050989329815,-0.14365209639072418,-0.3208230137825012
1765548681605279700,-1.10072021484375,0.002394201699644327,0.08858546614646912,-0.22744916379451752
1765548681615259100,-1.090740966796875,-0.028730420395731926,0.2825157940387726,-0.07661445438861847
1765548681625268700,-1.080731201171875,0.08858546614646912,0.304063618183136,-0.14604631066322327
1765548681665277400,-1.04072265625,0.090979665517807,0.1149216815829277,-0.07661445438861847
1765548681675256600,-1.030743408203125,0.13407529890537262,0.12928688526153564,-0.07900865375995636
1765548681685297000,-1.020703125,0.1412578970193863,0.08858546614646912,-0.014365210197865963
1765548681695306800,-1.010693359375,0.24420857429504395,-0.038307227194309235,0.011971008032560349
1765548681705286000,-1.000714111328125,0.1149216815829277,-0.17477671802043915,0.009576806798577309
1765548681715265300,-0.990734619140625,0.15322890877723694,-0.2849099934101105,-0.06464344263076782
1765548681735284700,-0.97071533203125,0.11252748221158981,-0.08140286058187485,-0.090979665517807
1765548681765283600,-0.94071630859375,0.11013327538967133,0.090979665517807,-0.05267243832349777
1765548681775293200,-0.930706787109375,0.20111294090747833,0.05746084079146385,-0.12689268589019775
1765548681785303000,-0.920697021484375,0.1412578970193863,-0.002394201699644327,0.028730420395731926
1765548681795313000,-0.91068701171875,0.1173158809542656,-0.11971008777618408,0.08140286058187485
1765548681805292000,-0.9007080078125,0.19153612852096558,0.05027823522686958,0.0071826050989329815
1765548681815271200,-0.890728759765625,0.14604631066322327,0.2106897532939911,-0.0071826050989329815
1765548681825281000,-0.880718994140625,0.12449848651885986,0.05985504388809204,-0.047884032130241394
1765548681835260200,-0.87073974609375,0.1412578970193863,0.0454898327589035,-0.15801730751991272
1765548681865289500,-0.84071044921875,0.19871874153614044,0.07182604819536209,-0.08140286058187485
1765548681875268900,-0.830731201171875,0.2346317619085312,0.08140286058187485,-0.05267243832349777
1765548681885278500,-0.820721435546875,0.15562310814857483,-0.05267243832349777,-0.016759412363171577
1765548681895257900,-0.8107421875,0.1388636976480484,-0.16519992053508759,0.009576806798577309
1765548681905237000,-0.800762939453125,0.10295066982507706,-0.10773907601833344,0
1765548681915246800,-0.790753173828125,0.10534487664699554,-0.033518824726343155,-0.021547814831137657
1765548681925256700,-0.780743408203125,0.17717093229293823,-0.0694318488240242,-0.009576806798577309
1765548681935266300,-0.770733642578125,0.1628057211637497,0.028730420395731926,0.033518824726343155
1765548681945276200,-0.760723876953125,0.15801730751991272,0.05506663769483566,-0.05746084079146385
1765548681975305500,-0.730694580078125,0.10534487664699554,0.002394201699644327,-0.07900865375995636
1765548681985315300,-0.7206845703125,0.06703764945268631,0.014365210197865963,-0.05027823522686958
1765548681995264000,-0.710736083984375,0.06224924325942993,-0.026336219161748886,0.05267243832349777
1765548682005304300,-0.70069580078125,0.09816227108240128,-0.038307227194309235,-0.10295066982507706
1765548682015314000,-0.69068603515625,0.09816227108240128,-0.05506663769483566,-0.038307227194309235
1765548682025293300,-0.680706787109375,0.09816227108240128,-0.05267243832349777,-0.038307227194309235
1765548682035303000,-0.670697021484375,0.15562310814857483,0.0071826050989329815,0.06464344263076782
1765548682045312800,-0.660687255859375,0.10055647045373917,0.08619125932455063,0.026336219161748886
1765548682055322600,-0.650677490234375,0.031124621629714966,0.10773907601833344,-0.016759412363171577
1765548682075342000,-0.630657958984375,-0.047884032130241394,0.2106897532939911,-0.023942016065120697
1765548682085352000,-0.62064794921875,0.05027823522686958,-0.06703764945268631,-0.014365210197865963
1765548682095331000,-0.6106689453125,0.08619125932455063,-0.15801730751991272,-0.004788403399288654
1765548682105341000,-0.6006591796875,0.08619125932455063,-0.31364041566848755,-0.028730420395731926
1765548682125421300,-0.58057861328125,0.09576806426048279,-0.24899697303771973,-0.0071826050989329815
1765548682135431200,-0.57056884765625,0.08619125932455063,-0.10295066982507706,-0.0071826050989329815
1765548682145441000,-0.56055908203125,0.15083470940589905,0.08858546614646912,0.016759412363171577
1765548682155481300,-0.5505185546875,0.12210428714752197,-0.038307227194309235,-0.019153613597154617
1765548682165491000,-0.540509033203125,0.13168109953403473,-0.031124621629714966,-0.033518824726343155
1765548682175500800,-0.530499267578125,0.12928688526153564,0.047884032130241394,0.06464344263076782
1765548682195550700,-0.51044921875,0.031124621629714966,0.24660277366638184,0.033518824726343155
1765548682205560600,-0.500439453125,0.09576806426048279,0.08379705995321274,0.05267243832349777
1765548682215539700,-0.490460205078125,0.21308395266532898,-0.05027823522686958,0.05506663769483566
1765548682225580000,-0.480419921875,0.2825157940387726,-0.19632454216480255,0.05506663769483566
1765548682235559400,-0.470440673828125,0.2801215946674347,-0.19632454216480255,0.038307227194309235
1765548682245569000,-0.460430908203125,0.29209262132644653,-0.15801730751991272,-0.090979665517807
1765548682255579000,-0.450421142578125,0.2513911724090576,-0.09816227108240128,-0.047884032130241394
1765548682265588700,-0.440411376953125,0.2561795711517334,-0.16998831927776337,-0.07900865375995636
1765548682285608200,-0.420391845703125,0.2825157940387726,-0.019153613597154617,-0.0694318488240242
1765548682295618000,-0.4103818359375,0.3064578175544739,-0.11013327538967133,-0.08858546614646912
1765548682305658000,-0.400341796875,0.2322375625371933,-0.0454898327589035,-0.014365210197865963
1765548682315668000,-0.39033203125,0.16759411990642548,-0.016759412363171577,0.019153613597154617
1765548682325677800,-0.380322265625,0.11252748221158981,0.047884032130241394,-0.0454898327589035
1765548682335657000,-0.370343017578125,0.15562310814857483,0.0071826050989329815,-0.07661445438861847
1765548682345666800,-0.360333251953125,0.1173158809542656,0.07661445438861847,0.07182604819536209
1765548682365686300,-0.340313720703125,0.10055647045373917,-0.2346317619085312,0.05985504388809204
1765548682375665700,-0.330334228515625,0.14604631066322327,-0.11013327538967133,0.12928688526153564
1765548682405695000,-0.300304931640625,0.6368576288223267,0.10773907601833344,0.031124621629714966
1765548682415704600,-0.29029541015625,0.5315127968788147,-0.4213795065879822,-0.19153612852096558
1765548682425714400,-0.28028564453125,0.6392518281936646,0.6392518281936646,-0.7374141216278076
1765548682435724000,-0.27027587890625,0.3471592366695404,-0.06224924325942993,-0.043095629662275314
1765548682445703400,-0.260296630859375,0.11013327538967133,-0.5027823448181152,-0.08619125932455063
1765548682455682600,-0.2503173828125,0.011971008032560349,-0.3064578175544739,-0.5506663918495178
1765548682465692400,-0.2403076171875,0.2537853717803955,-0.05027823522686958,-0.47644615173339844
1765548682475702300,-0.230297607421875,0.2106897532939911,0.16759411990642548,-0.181959331035614
1765548682505731600,-0.200268310546875,-0.44771572947502136,0.06703764945268631,-0.22744916379451752
1765548682515710700,-0.190289306640625,-0.5339069962501526,0.47884035110473633,-0.2346317619085312
1765548682525751000,-0.1802490234375,-0.5650315880775452,0.1628057211637497,-0.2992752194404602
1765548682535761000,-0.170239013671875,-0.3734954595565796,-0.0694318488240242,-0.4165911078453064
1765548682545770500,-0.1602294921875,-0.19153612852096558,0.07422025501728058,-0.42616790533065796
1765548682555780400,-0.1502197265625,-0.05506663769483566,0.14604631066322327,-0.31842881441116333
1765548682565790000,-0.1402099609375,-0.10055647045373917,0.1628057211637497,-0.3734954595565796
1765548682575799800,-0.1302001953125,-0.29209262132644653,0.608127236366272,-0.42377370595932007
1765548682585809700,-0.1201904296875,-0.2082955539226532,0.8164227604866028,-0.5793967843055725
1765548682625787600,-0.08021240234375,0.07422025501728058,-0.17477671802043915,0.18914192914962769
1765548682635766800,-0.070233154296875,0.10295066982507706,-0.9097966551780701,0.019153613597154617
1765548682645776600,-0.060223388671875,0.08140286058187485,-0.9624691009521484,0.11971008777618408
1765548682655786500,-0.050213623046875,0.13168109953403473,-0.6177040338516235,0.26575639843940735
1765548682675806000,-0.030194091796875,-0.2968810200691223,-0.43095630407333374,0.22266076505184174
1765548682685815800,-0.02018408203125,-0.507570743560791,-0.8379706144332886,0.47405192255973816
1765548682715784000,0.009783935546875,-0.5626373887062073,-1.2713210582733154,0.828393816947937
1765548682725763300,0.019763427734375,-0.4644751250743866,-1.1348515748977661,0.6967126727104187
1765548682735742500,0.029742431640625,-0.3232172429561615,-0.8858546018600464,0.646434485912323
1765548682745752300,0.03975244140625,-0.1628057211637497,-0.629675030708313,0.608127236366272
1765548682755762000,0.049761962890625,-0.0071826050989329815,-0.40940847992897034,0.35913026332855225
1765548682765771800,0.059771728515625,0.009576806798577309,-0.021547814831137657,0.08619125932455063
1765548682775751000,0.0697509765625,0.1364694982767105,0.19393034279346466,-0.18914192914962769
1765548682785791200,0.079791259765625,-0.0071826050989329815,0.3902548849582672,-0.26575639843940735
1765548682795770600,0.0897705078125,0,-0.0071826050989329815,-0.2968810200691223
1765548682845849900,0.139849853515625,0.40701428055763245,-0.7350199222564697,0.6368576288223267
1765548682855859700,0.149859619140625,-0.2106897532939911,-1.1779472827911377,0.5530605912208557
1765548682865869300,0.159869384765625,0.1628057211637497,-1.4484920501708984,0.42377370595932007
1765548682875848700,0.1698486328125,0.2825157940387726,-1.0055646896362305,0.3232172429561615
1765548682885827800,0.179827880859375,-0.2322375625371933,-1.8698714971542358,-0.26096799969673157
1765548682895807200,0.18980712890625,-0.5674257874488831,-2.10210919380188,0.011971008032560349
1765548682905816800,0.19981689453125,-0.4572925269603729,-1.6400281190872192,0.6655880808830261
1765548682925805800,0.219805908203125,-0.15322890877723694,-1.0462661981582642,0.3711012601852417
1765548682935785200,0.22978515625,-0.10295066982507706,-1.37906014919281,0
1765548682945795000,0.239795166015625,0.14365209639072418,-1.3335703611373901,-0.15801730751991272
1765548682955774200,0.249774169921875,0.1388636976480484,-0.7852981686592102,0.043095629662275314
1765548682965814500,0.259814453125,0.24181437492370605,-0.3926490843296051,0.12928688526153564
1765548682975793700,0.269793701171875,0.14844051003456116,-0.272938996553421,0.07182604819536209
1765548682985803500,0.279803466796875,-0.14365209639072418,-0.22744916379451752,-0.12928688526153564
1765548682995782700,0.28978271484375,-0.2298433631658554,-0.24420857429504395,-0.2849099934101105
1765548683005792500,0.29979248046875,-0.19153612852096558,-0.29209262132644653,-0.26575639843940735
1765548683015802400,0.30980224609375,-0.033518824726343155,-0.5195417404174805,-0.36152446269989014
1765548683035791400,0.329791259765625,0.16519992053508759,-0.730231523513794,-0.42377370595932007
1765548683045801000,0.339801025390625,0.08858546614646912,-0.5889736413955688,-0.3519476354122162
1765548683055780400,0.3497802734375,0.05746084079146385,-0.31842881441116333,-0.2298433631658554
1765548683065790000,0.3597900390625,-0.2753331959247589,-0.22026655077934265,-0.15083470940589905
1765548683075799800,0.3697998046875,-0.30885201692581177,-0.17477671802043915,-0.17956513166427612
1765548683085809700,0.3798095703125,-0.4381389021873474,-0.6655880808830261,-0.4189853072166443
1765548683095788800,0.389788818359375,-0.47884035110473633,-1.3215993642807007,-0.6871358752250671
1765548683105829000,0.3998291015625,-0.5841852426528931,-1.5825673341751099,-0.7589619159698486
1765548683115808300,0.409808349609375,-0.7924807667732239,-1.4963760375976562,-0.6823474764823914
1765548683135858400,0.4298583984375,-1.015141487121582,-0.7015010714530945,0.023942016065120697
1765548683155847400,0.449847412109375,-0.8475474119186401,-0.8619126081466675,0.33039984107017517
1765548683165887700,0.4598876953125,-0.545877993106842,-0.8571242094039917,0.3519476354122162
1765548683175867000,0.469866943359375,-0.4692635238170624,-0.8475474119186401,0.304063618183136
1765548683185907200,0.4799072265625,-0.3256114423274994,-0.6847416758537292,0.4141969084739685
1765548683195917000,0.4899169921875,-0.15801730751991272,-0.6919242739677429,0.4620809257030487
1765548683205927000,0.499927001953125,-0.24899697303771973,-0.6033388376235962,0.47644615173339844
1765548683215906000,0.509906005859375,-0.26096799969673157,-0.524330198764801,0.5506663918495178
1765548683225916000,0.519916015625,-0.2298433631658554,-0.5626373887062073,0.49559974670410156
1765548683255884000,0.549884033203125,-0.3711012601852417,-0.009576806798577309,0.43095630407333374
1765548683265894000,0.559893798828125,-0.40222588181495667,-0.047884032130241394,0.38067805767059326
1765548683275873000,0.569873046875,-0.2849099934101105,0.09816227108240128,0.3447650372982025
1765548683285913300,0.579913330078125,-0.12210428714752197,-0.040701430290937424,0.3016694188117981
1765548683295892500,0.589892578125,-0.08379705995321274,-0.17238251864910126,0.22505496442317963
1765548683305902300,0.59990234375,-0.05267243832349777,-0.31603461503982544,0.1412578970193863
1765548683315912200,0.609912109375,0.002394201699644327,-0.45010992884635925,0.0454898327589035
1765548683325921800,0.619921875,0.040701430290937424,-0.3232172429561615,0.033518824726343155
1765548683335901200,0.629901123046875,-0.002394201699644327,-0.016759412363171577,0.047884032130241394
1765548683355920600,0.649920654296875,-0.181959331035614,0.3423708379268646,0.05506663769483566
1765548683385950000,0.679949951171875,-0.5363011956214905,0.8643068075180054,-0.021547814831137657
1765548683415948800,0.70994873046875,-1.5298948287963867,0.038307227194309235,-0.26096799969673157
1765548683435937800,0.729937744140625,-2.212242364883423,0.1628057211637497,-0.18914192914962769
1765548683445947600,0.73994775390625,-2.3750481605529785,0.24420857429504395,-0.11013327538967133
1765548683455987700,0.74998779296875,-2.5067291259765625,0.4213795065879822,-0.12928688526153564
1765548683496087800,0.790087890625,-2.0901381969451904,0.3519476354122162,0.031124621629714966
1765548683526025700,0.820025634765625,-2.3774423599243164,0.19871874153614044,0.304063618183136
1765548683586053600,0.8800537109375,-1.86508309841156,-0.8619126081466675,1.3646949529647827
1765548683596033000,0.890032958984375,-1.3766659498214722,-1.01753568649292,1.4508862495422363
1765548683626092800,0.9200927734375,-0.608127236366272,-1.338358759880066,1.1228805780410767
1765548683646112300,0.9401123046875,-0.7948749661445618,-1.4437036514282227,1.1420341730117798
1765548683746057500,1.040057373046875,-0.5985504388809204,-2.0614075660705566,0.4644751250743866
1765548683756067000,1.050067138671875,-0.5363011956214905,-2.3056161403656006,0.4812345504760742
1765548683766077000,1.060076904296875,-0.569819986820221,-2.3965959548950195,0.4836287498474121
1765548683786127000,1.080127197265625,-0.48602294921875,-2.1954829692840576,0.07422025501728058
1765548683796106200,1.090106201171875,-0.6272808313369751,-2.070984363555908,-0.11252748221158981
1765548683816125700,1.110125732421875,-0.7661445140838623,-1.8938134908676147,-0.07182604819536209
1765548683826105000,1.12010498046875,-0.8140285611152649,-1.558625340461731,-0.17238251864910126
1765548683836114700,1.13011474609375,-0.8331822156906128,-1.3120225667953491,-0.14365209639072418
1765548683846124500,1.14012451171875,-0.9385270476341248,-1.0821791887283325,-0.026336219161748886
1765548683856134400,1.150134521484375,-0.9648633003234863,-0.8858546018600464,0.031124621629714966
1765548683866174500,1.160174560546875,-1.0630255937576294,-0.6536170840263367,-0.0071826050989329815
1765548705253889800,22.547889892578127,-0.5554547905921936,0.4213795065879822,-0.33279404044151306
1765548705263699500,22.557699462890625,9.99100399017334,10.828974723815918,-0.8834604024887085
1765548705273378800,22.56737890625,-0.11252748221158981,-0.043095629662275314,-0.028730420395731926
1765548705283219200,22.57721923828125,-0.09576806426048279,-0.10534487664699554,-0.047884032130241394
1765548705313048300,22.60704833984375,-0.47884035110473633,0.26096799969673157,0.07182604819536209
1765548705323058200,22.61705810546875,-0.3280056416988373,0.22505496442317963,-0.021547814831137657
1765548705333006800,22.6270068359375,-0.26336219906806946,0.2849099934101105,-0.2537853717803955
1765548705343047200,22.637047119140625,-0.05985504388809204,0.4165911078453064,-0.23702596127986908
1765548705352995800,22.646995849609375,0.035913024097681046,0.3471592366695404,-0.24420857429504395
1765548705363005700,22.657005615234375,0.27054479718208313,0.24899697303771973,-0.05506663769483566
1765548705382994700,22.67699462890625,-0.1364694982767105,0.1867477297782898,0.2322375625371933
1765548705442992000,22.7369921875,1.678335428237915,-1.0438719987869263,-1.5682021379470825
1765548705472991000,22.766990966796875,2.3750481605529785,-1.2042834758758545,-2.4444799423217773
1765548705552977700,22.846977783203126,1.3000515699386597,-0.9050082564353943,-3.136404275894165
1765548705563018000,22.85701806640625,1.2761094570159912,-0.6057330369949341,-3.138798475265503
1765548705572936200,22.866936279296876,1.091755986213684,-0.22026655077934265,-2.9951462745666504
1765548705592986000,22.886986083984375,0.5363011956214905,-0.06224924325942993,-2.8826189041137695
1765548705602965500,22.896965576171876,0.33518823981285095,0.12928688526153564,-2.7964274883270264
1765548705612944600,22.906944580078125,0.0454898327589035,0.26096799969673157,-2.7030537128448486
1765548705622954500,22.91695458984375,-0.06224924325942993,0.2849099934101105,-2.6192567348480225
1765548705632964000,22.926964111328125,-0.24181437492370605,-0.035913024097681046,-2.695871114730835
1765548705642943500,22.936943603515626,-0.3064578175544739,-0.181959331035614,-2.669534921646118
1765548705652953000,22.946953125,-0.363918662071228,-0.12210428714752197,-2.561795711517334
1765548705662963000,22.956962890625,-0.45489832758903503,-0.11252748221158981,-2.456450939178467
1765548705672942000,22.966942138671875,-0.7182605266571045,-0.09576806426048279,-2.2888567447662354
1765548705682921500,22.97692138671875,-0.8212111592292786,-0.028730420395731926,-1.9345149993896484
1765548705692931300,22.986931396484376,-0.9744400978088379,-0.05506663769483566,-1.4437036514282227
1765548705712920300,23.00692041015625,-1.338358759880066,-0.2561795711517334,-0.7230489253997803
1765548705752959200,23.046959228515625,-1.7525556087493896,0.19632454216480255,-0.10055647045373917
1765548705762999600,23.05699951171875,-1.9919757843017578,0.23702596127986908,0.009576806798577309
1765548705772978700,23.066978759765625,-2.2385785579681396,0.3998316824436188,-0.023942016065120697
1765548705782988500,23.076988525390625,-2.4612393379211426,0.45250412821769714,-0.023942016065120697
1765548705802977500,23.0969775390625,-3.07415509223938,0.7852981686592102,-0.3495534360408783
1765548705812987400,23.1069873046875,-3.5266590118408203,0.5937620401382446,-0.4118026793003082
1765548705822966500,23.116966552734375,-3.9025487899780273,0.5315127968788147,-0.5985504388809204
1765548705832946000,23.12694580078125,-4.223371982574463,0.8403648138046265,-0.7158663272857666
1765548705842955500,23.13695556640625,-4.6040496826171875,1.0223240852355957,-0.9409212470054626
1765548705852935000,23.146934814453125,-4.90571928024292,1.357512354850769,-1.0989385843276978
1765548705862944500,23.156944580078125,-5.216965675354004,1.5131354331970215,-1.0821791887283325
1765548705872924000,23.166923828125,-5.679046630859375,1.5897499322891235,-1.1444283723831177
1765548705882964200,23.176964111328125,-5.719748020172119,1.8267759084701538,-1.2066776752471924
1765548705892973800,23.186973876953125,-6.270414352416992,1.8746598958969116,-1.3407529592514038
1765548705902953200,23.196953125,-6.710947513580322,1.6543933153152466,-1.5275006294250488
1765548705932921300,23.22692138671875,-7.3238630294799805,0.8690952062606812,-2.322375535964966
1765548705942931200,23.23693115234375,-7.469909191131592,0.5339069962501526,-2.5067291259765625
1765548705952941000,23.246941162109376,-7.412448406219482,0.5195417404174805,-2.6240451335906982
1765548705962950700,23.25695068359375,-7.134721279144287,0.6272808313369751,-2.674323320388794
1765548705972930000,23.266929931640625,-6.900089263916016,0.9074024558067322,-2.6192567348480225
1765548705992919000,23.2869189453125,-6.378153324127197,1.1755530834197998,-2.7078421115875244
1765548706002928600,23.2969287109375,-6.244078159332275,1.2018892765045166,-2.806004285812378
1765548706092955600,23.38695556640625,-2.2170307636260986,-1.7621324062347412,-3.406949043273926
1765548706112944600,23.406944580078125,-0.6871358752250671,-3.8355112075805664,-3.6511576175689697
1765548706122954500,23.41695458984375,0.31603461503982544,-4.93923807144165,-3.5003228187561035
1765548706132964000,23.426964111328125,0.9983820915222168,-4.754884719848633,-3.799597978591919
1765548706142974000,23.436973876953125,1.01753568649292,-4.223371982574463,-4.072536945343018
1765548706152983800,23.44698388671875,1.0558429956436157,-4.2329487800598145,-4.173093795776367
1765548706162963000,23.456962890625,0.849941611289978,-4.903325080871582,-4.395754337310791
1765548706172911600,23.46691162109375,1.1899182796478271,-5.564124584197998,-4.659116744995117
1765548706182921500,23.47692138671875,2.38462495803833,-7.3238630294799805,-5.324704647064209
1765548706192870100,23.4868701171875,3.375824451446533,-8.485051155090332,-5.643133640289307
1765548706202941000,23.49694091796875,4.072536945343018,-8.908824920654297,-5.808333396911621
1765548706232939800,23.526939697265625,3.488351821899414,-9.346963882446289,-3.4572272300720215
1765548706242949600,23.53694970703125,3.2776620388031006,-8.813055992126465,-2.427720546722412
1765548706252898300,23.546898193359375,3.2106244564056396,-8.020575523376465,-1.338358759880066
1765548706262877400,23.55687744140625,3.157952070236206,-7.1251444816589355,-0.2059013396501541
1765548706272826000,23.566826171875,3.308786630630493,-6.390124320983887,0.9385270476341248
1765548706282866400,23.576866455078125,3.529053211212158,-5.846640586853027,1.525106430053711
1765548706292876300,23.586876220703125,3.7158010005950928,-5.736507415771484,1.6376339197158813
1765548706302886100,23.59688623046875,3.7253777980804443,-5.882553577423096,1.6304513216018677
1765548706342925000,23.636925048828125,6.133944988250732,-6.064512729644775,0.5626373887062073
1765548706362944500,23.656944580078125,6.141127586364746,-7.354987621307373,1.0630255937576294
1765548706372954400,23.666954345703125,4.527435302734375,-6.550535678863525,1.7262194156646729
1765548706382964200,23.676964111328125,2.8443117141723633,-4.774038314819336,1.2497732639312744
1765548706402983700,23.696983642578125,1.1516109704971313,-1.9177556037902832,2.3343467712402344
1765548706412902000,23.70690185546875,1.094150185585022,-0.43095630407333374,3.0789434909820557
1765548706432921300,23.72692138671875,-0.7972691655158997,0.9840168952941895,3.361459255218506
1765548706442931200,23.73693115234375,-1.599326729774475,0.16998831927776337,3.1507694721221924
1765548706482939600,23.776939697265625,-0.6560112833976746,0.37828385829925537,1.0773907899856567
1765548706523009300,23.81700927734375,-2.456450939178467,-1.2042834758758545,0.7829039692878723
1765548706542998300,23.836998291015625,-2.9712042808532715,-1.7884687185287476,0.3519476354122162
1765548706552977700,23.846977783203126,-3.7445313930511475,-1.8148049116134644,-0.2801215946674347
1765548706562987300,23.8569873046875,-3.97916316986084,-2.7676970958709717,-1.194706678390503
1765548706572997000,23.8669970703125,-3.3854012489318848,-2.8443117141723633,-1.98958158493042
1765548706583007000,23.877007080078126,-3.313575267791748,-1.7501614093780518,-2.1356279850006104
1765548706602996000,23.896995849609375,-2.255337953567505,0.6512228846549988,-1.0893617868423462
1765548706613005600,23.907005615234375,-1.824381709098816,1.1037269830703735,-0.9744400978088379
1765548706623015400,23.917015380859375,-1.8100165128707886,1.357512354850769,-0.5841852426528931
1765548706673064200,23.967064208984375,-1.5514427423477173,0.24181437492370605,0.7924807667732239
1765548706693114400,23.9871142578125,-0.22744916379451752,0.36152446269989014,0.6775590777397156
1765548706713103400,24.007103271484375,0.1867477297782898,0.2968810200691223,0.2944868206977844
1765548706723113200,24.01711328125,-0.019153613597154617,0.07182604819536209,0.5722141861915588
1765548706753111800,24.04711181640625,0.5339069962501526,0.45250412821769714,0.2825157940387726
1765548706773100800,24.067100830078125,-0.0933738648891449,1.0630255937576294,1.0223240852355957
1765548706783110700,24.077110595703125,-0.10773907601833344,0.35434186458587646,1.0462661981582642
1765548706793089800,24.08708984375,0.08619125932455063,-0.2537853717803955,0.4141969084739685
1765548706803099600,24.097099609375,0.0933738648891449,-0.7589619159698486,-0.2298433631658554
1765548706813079000,24.1070791015625,-0.15322890877723694,-2.255337953567505,-0.6057330369949341
1765548706823119000,24.117119140625,-0.9361328482627869,-3.31118106842041,-1.0749965906143188
1765548706833068000,24.127068115234376,-1.2545616626739502,-3.3949780464172363,-1.6304513216018677
1765548706853057000,24.14705712890625,0.05267243832349777,-1.2210428714752197,-1.9632453918457031
1765548706873076500,24.167076416015625,0.3926490843296051,-1.3958195447921753,-1.6424223184585571
1765548706883086300,24.17708642578125,1.113303780555725,-1.1755530834197998,-1.3742717504501343
1765548706893065500,24.1870654296875,1.7357962131500244,-0.1867477297782898,-0.6655880808830261
1765548706903105800,24.197105712890625,2.3989901542663574,0.6129156351089478,-0.26815059781074524
1765548706913085000,24.2070849609375,3.318363666534424,1.5969325304031372,-0.7038952708244324
1765548706923064300,24.217064208984375,4.278438568115234,3.294421434402466,-1.036689281463623
1765548706933043500,24.22704345703125,3.9408559799194336,3.9001545906066895,-0.5530605912208557
1765548707003142400,24.297142333984375,-1.6735470294952393,-0.043095629662275314,-0.6272808313369751
1765548707033141200,24.327141357421876,-4.76924991607666,-2.9041666984558105,-2.229001760482788
1765548707043150800,24.33715087890625,-5.521028995513916,-3.450044631958008,-2.911349296569824
1765548707073210600,24.367210693359375,-3.9815573692321777,-3.002328872680664,-1.4221558570861816
1765548707093169200,24.387169189453125,-2.3798365592956543,-2.4468741416931152,-1.1444283723831177
1765548707103179000,24.397178955078125,-2.252943754196167,-3.117250680923462,-0.9959878921508789
1765548707113158100,24.407158203125,-2.293645143508911,-3.778050184249878,-0.5817909836769104
1765548715197340400,32.49134033203125,-0.5363011956214905,-2.607285737991333,-1.2545616626739502
1765548715207380700,32.501380615234375,-1.968033790588379,11.908759117126465,9.670180320739746
1765548715217290500,32.51129052734375,0.07900865375995636,-0.16759411990642548,-0.5650315880775452
1765548715236879400,32.53087939453125,-0.15801730751991272,-0.09576806426048279,-0.646434485912323
1765548715326898000,32.62089794921875,-0.689530074596405,0.2753331959247589,-1.216254472732544
1765548715336877000,32.630876953125,-0.24660277366638184,0.2513911724090576,-0.9983820915222168
1765548715346856400,32.6408564453125,0.0694318488240242,0.47644615173339844,-0.751779317855835
1765548715356866000,32.65086596679687,-0.033518824726343155,0.05267243832349777,-0.6512228846549988
1765548715366845400,32.660845458984376,-0.28969839215278625,0.22026655077934265,-0.5339069962501526
1765548715376855000,32.67085498046875,-0.5506663918495178,0.2968810200691223,-0.47165772318840027
1765548715386865000,32.680864990234376,-0.49799394607543945,-0.11971008777618408,-0.47165772318840027
1765548715396813600,32.6908134765625,-0.31364041566848755,-0.4118026793003082,-0.6775590777397156
1765548715406884400,32.70088427734375,-0.2322375625371933,-0.6584054827690125,-1.0031704902648926
1765548715486871000,32.78087109375,-0.3064578175544739,0.31842881441116333,-0.6057330369949341
1765548715526849000,32.82084912109375,-0.5195417404174805,0.038307227194309235,-1.01753568649292
1765548715536889300,32.830889404296876,-0.5674257874488831,-0.3878606855869293,-0.9696516990661621
1765548715546899200,32.840899169921876,-0.5195417404174805,-0.12449848651885986,-0.7493851184844971
1765548715556847900,32.850847900390626,-0.47884035110473633,-0.0454898327589035,-0.6799532771110535
1765548715566888200,32.86088818359375,-0.4620809257030487,0.08140286058187485,-0.7374141216278076
1765548715576867300,32.870867431640626,-0.6272808313369751,0.5267243981361389,-0.7829039692878723
1765548715586907600,32.88090771484375,-0.7972691655158997,0.6488286852836609,-0.7565677165985107
1765548715596856300,32.89085620117187,-0.9696516990661621,0.8595184087753296,-0.9576807022094727
1765548715606896600,32.900896728515626,-1.2473790645599365,0.6967126727104187,-1.1276689767837524
1765548715616906500,32.910906494140626,-1.2617442607879639,0.5530605912208557,-1.292868971824646
1765548715646935800,32.940935791015626,-1.1994950771331787,0.5291185975074768,-1.2449848651885986
1765548715656915000,32.9509150390625,-1.1348515748977661,0.5746083855628967,-1.0414776802062988
1765548715666894300,32.960894287109376,-1.2761094570159912,0.8523358106613159,-1.1683704853057861
1765548715676873500,32.97087353515625,-1.5179238319396973,0.8786720037460327,-1.2617442607879639
1765548715686913800,32.980913818359376,-1.6615760326385498,1.280897855758667,-1.501164436340332
1765548715696923600,32.990923583984376,-1.6065093278884888,1.8579005002975464,-2.0231003761291504
1765548715706902800,33.00090283203125,-1.5466543436050415,2.1523873805999756,-2.2888567447662354
1765548715716912600,33.01091259765625,-1.7357962131500244,2.2673089504241943,-2.31758713722229
1765548715726922200,33.02092211914062,-1.6615760326385498,2.319981336593628,-1.9967641830444336
1765548715746942000,33.04094189453125,-1.8842366933822632,2.2816741466522217,-1.7286136150360107
1765548715756890600,33.050890625,-1.941697597503662,2.296039342880249,-1.6639702320098877
1765548715776940500,33.0709404296875,-1.7956513166427612,2.691082715988159,-1.644816517829895
1765548715796929500,33.09092944335937,-1.742978811264038,3.5625722408294678,-1.8770540952682495
1765548715806939400,33.100939453125,-1.9752163887023926,4.185064792633057,-1.9776105880737305
1765548715816949200,33.11094921875,-2.1116859912872314,4.532223701477051,-1.9153614044189453
1765548715826958800,33.12095874023437,-2.1499931812286377,4.764461517333984,-1.8052281141281128
1765548715836938200,33.130938232421876,-2.3702597618103027,4.565742492675781,-1.8124107122421265
1765548715846978600,33.140978515625,-2.580949544906616,4.5394062995910645,-2.097320795059204
1765548715866967600,33.160967529296876,-2.676717519760132,4.6040496826171875,-2.1930887699127197
1765548715886987000,33.180987060546876,-2.5713725090026855,4.7189717292785645,-2.140416383743286
1765548715896966100,33.19096606445312,-2.671929121017456,4.3191399574279785,-2.051830768585205
1765548715907006500,33.20100634765625,-2.8826189041137695,4.098873138427734,-1.6352397203445435
1765548715917016300,33.211016357421876,-2.9305028915405273,3.7636849880218506,-1.3479355573654175
1765548715927026200,33.221026123046876,-2.875436305999756,3.2561142444610596,-1.3335703611373901
1765548715937005300,33.23100537109375,-2.5282769203186035,2.846705913543701,-1.6519991159439087
1765548715957024800,33.25102465820312,-2.1092917919158936,2.0685901641845703,-2.185906171798706
1765548715967034600,33.26103466796875,-1.9536685943603516,2.1164743900299072,-1.9488801956176758
1765548715977013800,33.271013671875,-1.7190368175506592,1.7884687185287476,-2.032677173614502
1765548715987054000,33.28105419921875,-1.556231141090393,1.525106430053711,-2.205059766769409
1765548715997033500,33.291033447265626,-1.6663644313812256,0.9696516990661621,-2.3942017555236816
1765548716007073800,33.30107373046875,-1.577778935432434,0.08379705995321274,-2.7269957065582275
1765548716017083400,33.31108349609375,-1.0558429956436157,-0.33039984107017517,-2.75812029838562
1765548716027093200,33.32109326171875,-0.33758243918418884,-0.6368576288223267,-2.7078421115875244
1765548716037072400,33.331072265625,0.08379705995321274,-0.7374141216278076,-2.940079689025879
1765548716047082200,33.341082275390626,0.20111294090747833,-0.8451532125473022,-2.868253707885742
1765548716067071200,33.3610712890625,0.14604631066322327,-0.6823474764823914,-2.8586769104003906
1765548716077081000,33.3710810546875,0.06464344263076782,-0.9361328482627869,-2.7437551021575928
1765548716087151900,33.38115185546875,-0.043095629662275314,-1.05105459690094,-2.3271639347076416
1765548716097161500,33.39116137695312,0.17238251864910126,-1.0534487962722778,-1.941697597503662
1765548716107171300,33.40117138671875,0.3495534360408783,-1.0055646896362305,-1.525106430053711
1765548716117181200,33.41118115234375,0.4118026793003082,-1.1659762859344482,-0.828393816947937
1765548716127190800,33.42119067382812,0.7326257228851318,-1.5155296325683594,0.009576806798577309
1765548716137200600,33.43120068359375,1.05105459690094,-1.9560627937316895,0.6512228846549988
1765548716147210500,33.44121044921875,1.0965443849563599,-2.389413356781006,1.0558429956436157
1765548716167230000,33.46122998046875,1.0199298858642578,-2.7317841053009033,1.0654197931289673
1765548716177239800,33.47123974609375,1.158793568611145,-2.7437551021575928,1.0079588890075684
1765548716187249400,33.48124951171875,1.3120225667953491,-2.7222073078155518,1.0989385843276978
1765548716197198000,33.49119799804687,1.3287819623947144,-2.5234885215759277,1.0534487962722778
1765548716207238400,33.50123828125,1.3287819623947144,-1.9632453918457031,1.1683704853057861
1765548716217248300,33.511248291015626,1.3503297567367554,-1.3742717504501343,1.0989385843276978
1765548716227258000,33.521258056640626,1.699883222579956,-1.0582371950149536,1.1683704853057861
1765548716237267700,33.531267822265626,2.1978771686553955,-0.9720458984375,0.9888052940368652
1765548716257256700,33.55125659179687,2.5929205417633057,-1.3958195447921753,1.0223240852355957
1765548716287286000,33.5812861328125,1.8602946996688843,-2.935291290283203,1.3551181554794312
1765548716297265400,33.591265380859376,1.7070658206939697,-2.7964274883270264,1.0462661981582642
1765548716307305700,33.6013056640625,1.6831238269805908,-2.7509377002716064,0.9193734526634216
1765548716317315300,33.6113154296875,1.7836803197860718,-2.8107926845550537,0.7541735172271729
1765548716327294700,33.621294677734376,1.843535304069519,-2.7293899059295654,0.8619126081466675
1765548716337334800,33.63133471679687,1.7860745191574097,-2.6360161304473877,0.9265560507774353
1765548716347344600,33.6413447265625,1.6950948238372803,-2.185906171798706,0.8068459630012512
1765548716357354500,33.6513544921875,1.5322890281677246,-1.9560627937316895,0.5937620401382446
1765548716397424000,33.691424072265626,2.142810583114624,-1.2282254695892334,0.6153098344802856
1765548716407433700,33.701433837890626,2.4181437492370605,-1.2282254695892334,0.6009446382522583
1765548716417443600,33.711443603515626,2.494758129119873,-1.4724340438842773,0.40462008118629456
1765548716427453200,33.721453125,2.341529369354248,-1.8507179021835327,0.08140286058187485
1765548716437432600,33.7314326171875,2.252943754196167,-2.229001760482788,0.16998831927776337
1765548716467492400,33.761492431640626,2.229001760482788,-2.604891538619995,-0.08379705995321274
1765548716527581400,33.82158154296875,1.5490485429763794,-2.365471363067627,-0.7852981686592102
1765548716537591300,33.83159130859375,1.6855180263519287,-1.9800047874450684,-1.0319008827209473
1765548716547601000,33.84160083007812,1.9081788063049316,-1.8339585065841675,-1.1348515748977661
1765548716557610800,33.85161083984375,1.946485996246338,-1.5729905366897583,-1.170764684677124
1765548716567681500,33.861681640625,1.9369091987609863,-1.644816517829895,-1.1803414821624756
1765548716577691400,33.87169140625,2.056619167327881,-1.8770540952682495,-1.5442601442337036
1765548716587731700,33.881731689453126,2.0661959648132324,-2.1930887699127197,-1.98958158493042
1765548716597741300,33.8917412109375,2.0829553604125977,-2.4803929328918457,-2.2146365642547607
1765548716607751200,33.901751220703126,2.319981336593628,-2.8227639198303223,-2.3319525718688965
1765548716617761000,33.911760986328126,2.6240451335906982,-2.7461493015289307,-2.5306711196899414
1765548716627770600,33.9217705078125,2.7916390895843506,-3.136404275894165,-2.715024709701538
1765548716637750000,33.93175,3.021482467651367,-3.3446998596191406,-2.7126305103302
1765548716647790300,33.941790283203126,3.2154128551483154,-3.4572272300720215,-2.454056739807129
1765548716657800000,33.951800048828126,3.2824504375457764,-3.268085241317749,-2.3965959548950195
1765548716667809800,33.961809814453126,3.3638534545898438,-2.956839084625244,-2.3965959548950195
1765548716677789000,33.97178881835937,3.7660791873931885,-2.983175277709961,-2.3942017555236816
1765548716707757300,34.00175732421875,5.432443618774414,-4.07014274597168,-1.8914192914962769
1765548716717767000,34.01176684570312,6.258443355560303,-4.4508209228515625,-1.7836803197860718
1765548716727807200,34.02180712890625,6.323086738586426,-4.577713489532471,-1.7310078144073486
1765548716737817000,34.031817138671876,6.069301128387451,-4.41969633102417,-1.867477297782898
1765548716747827000,34.041826904296876,5.286397457122803,-4.343081951141357,-2.0039467811584473
1765548716757867000,34.05186694335937,4.4532151222229,-4.49870491027832,-1.987187385559082
1765548716767876900,34.061876953125,3.914519786834717,-4.225766181945801,-1.867477297782898
1765548716777886700,34.07188671875,3.8522706031799316,-3.9647979736328125,-2.2625205516815186
1765548716817895200,34.111895263671876,1.1324573755264282,-0.07422025501728058,-1.9273324012756348
1765548716877953800,34.171953857421876,-1.9249382019042969,-1.115697979927063,1.316810965538025
1765548716887963600,34.181963623046876,-2.535459518432617,-1.113303780555725,1.7286136150360107
1765548716948022300,34.242022216796876,-1.158793568611145,2.0877439975738525,0.2753331959247589
1765548716988061200,34.282061279296876,-1.3000515699386597,-0.10534487664699554,0.7829039692878723
1765548716998071000,34.292071044921876,-1.0845733880996704,-0.27054479718208313,0.7374141216278076
1765548717008080600,34.30208056640625,-0.9193734526634216,-0.7350199222564697,-0.08858546614646912
1765548717018090500,34.312090576171876,-1.2880805730819702,-0.6033388376235962,-0.7110779285430908
1765548717028100400,34.322100341796876,-1.4915876388549805,0.5410895943641663,-1.2282254695892334
1765548717038079500,34.33207958984375,-1.45806884765625,1.5969325304031372,-1.821987509727478
1765548717068139300,34.36213916015625,-1.8962076902389526,3.023876667022705,-2.2697031497955322
1765548717088128300,34.38212817382812,-1.8794482946395874,1.5729905366897583,-2.6623523235321045
1765548717118157600,34.41215747070312,-1.2617442607879639,0.5793967843055725,-4.189853191375732
1765548717128167400,34.42216748046875,-0.8427590131759644,1.3024457693099976,-4.728548526763916
1765548717138177300,34.43217724609375,-0.28969839215278625,2.0638017654418945,-4.8722004890441895
1765548717158196700,34.45219677734375,0.24181437492370605,2.161964178085327,-4.862623691558838
1765548717168175900,34.46217578125,0.31364041566848755,1.4460978507995605,-4.742913722991943
1765548717178185700,34.472185791015626,0.28730419278144836,1.01753568649292,-4.891354084014893
1765548717188195600,34.482195556640626,0.38067805767059326,0.9864110946655273,-5.018246650695801
1765548717198174700,34.4921748046875,0.5339069962501526,0.9289502501487732,-5.25527286529541
1765548717208184600,34.5021845703125,0.569819986820221,1.1875240802764893,-5.250484466552734
1765548717218225000,34.512224853515626,0.7948749661445618,1.2713210582733154,-5.250484466552734
1765548717238214000,34.5322138671875,0.9624691009521484,1.625662922859192,-5.17626428604126
1765548717248223500,34.54222338867187,0.3519476354122162,1.659181833267212,-5.092466831207275
1765548717288232200,34.582232177734376,-0.12928688526153564,0.5099649429321289,-5.135562419891357
1765548717308251600,34.602251708984376,0.014365210197865963,0.15801730751991272,-5.679046630859375
1765548717318261500,34.612261474609376,0,0.23942017555236816,-6.277596950531006
1765548717328271000,34.62227099609375,-0.038307227194309235,-0.18914192914962769,-6.763619899749756
1765548717338281000,34.632281005859376,-0.15083470940589905,-0.5339069962501526,-7.333439826965332
1765548717348260000,34.64226000976562,-0.3711012601852417,-0.8882488012313843,-7.805097579956055
1765548717368279800,34.66227978515625,-0.6272808313369751,-0.40701428055763245,-7.663839817047119
1765548717378289400,34.67228930664062,-0.5099649429321289,-0.3256114423274994,-7.632715225219727
1765548717388329700,34.682329833984376,-0.7852981686592102,-0.07900865375995636,-7.7643961906433105
1765548717398339600,34.692339599609376,-1.2689268589019775,0.1412578970193863,-7.762001991271973
1765548717408318700,34.70231860351562,-1.8148049116134644,-0.30885201692581177,-7.860164165496826
1765548717418298000,34.712298095703126,-2.075772762298584,-0.9074024558067322,-8.26478385925293
1765548717428307700,34.7223076171875,-1.8602946996688843,-1.194706678390503,-8.118738174438477
1765548725138786000,42.4327861328125,-1.9560627937316895,-0.9433154463768005,-5.724536418914795
1765548725148526300,42.4425263671875,5.114014625549316,-6.538564682006836,7.86734676361084
1765548725158166500,42.45216650390625,-0.021547814831137657,-0.5530605912208557,-2.185906171798706
1765548725167676400,42.461676513671875,0.047884032130241394,0.047884032130241394,-1.9177556037902832
1765548725177386000,42.47138598632812,0.31842881441116333,0.629675030708313,-1.8315643072128296
1765548725187095800,42.481095703125,0.5817909836769104,1.05105459690094,-1.9608511924743652
1765548725236744700,42.53074462890625,0.031124621629714966,-0.8667010068893433,-1.944091796875
1765548725306843600,42.60084375,0.14365209639072418,-1.0031704902648926,-3.5027170181274414
1765548725316822800,42.61082275390625,0.3495534360408783,-0.9169792532920837,-3.2561142444610596
1765548725326863000,42.62086303710937,0.8140285611152649,-1.0127472877502441,-3.177105665206909
1765548725336842200,42.63084228515625,1.1420341730117798,-1.2425906658172607,-2.9664158821105957
1765548725346852000,42.64085205078125,1.5155296325683594,-1.403002142906189,-2.7892448902130127
1765548725356862000,42.65086206054688,1.7262194156646729,-1.7764976024627686,-2.557007312774658
1765548725366871600,42.66087158203125,1.5921441316604614,-1.7190368175506592,-2.5258827209472656
1765548725436909600,42.73090966796875,3.4739866256713867,-2.4396915435791016,-1.6903064250946045
1765548725446949600,42.74094970703125,3.2561142444610596,-2.559401512145996,-1.699883222579956
1765548725456959500,42.75095947265625,3.2848446369171143,-2.121262788772583,-1.4389152526855469
1765548725466938600,42.76093872070312,3.224989652633667,-1.8818424940109253,-1.173158884048462
1765548725476918000,42.77091796875,3.0142998695373535,-1.680729627609253,-1.1875240802764893
1765548725486928000,42.78092797851563,2.851494312286377,-1.7501614093780518,-1.3239935636520386
1765548725496937500,42.7909375,2.7102363109588623,-1.6639702320098877,-0.9720458984375
1765548725506947300,42.800947265625,2.5115175247192383,-1.5155296325683594,-0.545877993106842
1765548725526936300,42.82093627929687,2.3367409706115723,-1.5394717454910278,-0.38067805767059326
1765548725536915500,42.83091552734375,1.9153614044189453,-1.580173134803772,-0.19153612852096558
1765548725546894800,42.84089477539062,1.5179238319396973,-1.3239935636520386,-0.019153613597154617
1765548725556904400,42.85090454101562,1.1851298809051514,-0.8954314589500427,0.0694318488240242
1765548725566944800,42.86094482421875,0.8978256583213806,-0.36152446269989014,-0.035913024097681046
1765548725576924200,42.87092407226562,0.47405192255973816,-0.021547814831137657,-0.22026655077934265
1765548725586903300,42.8809033203125,0,0.13407529890537262,-0.22266076505184174
1765548725606861800,42.90086181640625,-0.5746083855628967,0.17717093229293823,0.33279404044151306
1765548725636891100,42.93089111328125,-0.667982280254364,0.1173158809542656,0.11013327538967133
1765548725646901000,42.94090087890625,-1.0079588890075684,0.2825157940387726,0.181959331035614
1765548725656910600,42.95091064453125,-1.41257905960083,0.3974374830722809,0.2968810200691223
1765548725666890000,42.96088989257812,-1.965639591217041,0.8307880163192749,-0.1388636976480484
1765548725676869000,42.970869140625,-2.1930887699127197,1.335964560508728,-0.40940847992897034
1765548725686879000,42.98087890625,-2.209848165512085,1.2665326595306396,-0.4213795065879822
1765548725696858000,42.99085815429687,-2.209848165512085,1.1851298809051514,-0.45489832758903503
1765548725706868000,43.00086791992187,-2.31758713722229,1.3287819623947144,-0.35673606395721436
1765548725716877800,43.0108779296875,-2.403778553009033,1.1180921792984009,-0.6847416758537292
1765548725756855800,43.05085571289062,-2.7940332889556885,0.6943184733390808,-1.4987702369689941
1765548725766835000,43.0608349609375,-2.8802247047424316,0.9265560507774353,-0.811634361743927
1765548725776814300,43.070814453125,-2.557007312774658,0.28969839215278625,-0.3256114423274994
1765548725786824000,43.08082397460937,-2.166752576828003,0.05746084079146385,-1.0893617868423462
1765548725796833800,43.09083374023437,-2.099714994430542,0.304063618183136,-1.821987509727478
1765548725806813000,43.10081298828125,-2.2912509441375732,0.7445967197418213,-1.944091796875
1765548725816822800,43.11082275390625,-2.6001031398773193,1.0749965906143188,-2.248155355453491
1765548725826832600,43.12083251953125,-2.9233202934265137,1.4939818382263184,-2.3511061668395996
1765548725856800800,43.15080078125,-2.6144683361053467,1.9967641830444336,-2.0231003761291504
1765548725866841000,43.16084106445312,-2.408566951751709,1.235408067703247,-1.3072341680526733
1765548725876851000,43.17085083007812,-2.279279947280884,0.5099649429321289,-1.4293384552001953
1765548725886860500,43.18086059570312,-2.497152328491211,-0.12210428714752197,-1.9991583824157715
1765548725896870400,43.19087036132812,-2.8227639198303223,-0.2944868206977844,-2.779668092727661
1765548725906880300,43.20088037109375,-3.265691041946411,0.06703764945268631,-3.1028854846954346
1765548725916889900,43.21088989257812,-3.1675288677215576,0.38546648621559143,-3.203441858291626
1765548725926869200,43.220869140625,-2.7317841053009033,0.6392518281936646,-3.576937437057495
1765548725956867800,43.25086791992187,-2.185906171798706,1.2952631711959839,-3.7277719974517822
1765548726006855700,43.30085571289062,-2.4205379486083984,-0.3711012601852417,-4.376600742340088
1765548726016865500,43.31086547851562,-2.27209734916687,-0.5602431893348694,-4.185064792633057
1765548726026875400,43.32087548828125,-2.0661959648132324,-0.6775590777397156,-4.6471452713012695
1765548726036885000,43.33088500976562,-1.8483237028121948,-0.5195417404174805,-5.051765441894531
1765548726056904400,43.35090454101562,-1.5610195398330688,0.6847416758537292,-5.178658485412598
1765548726066883800,43.3608837890625,-1.599326729774475,1.0821791887283325,-5.123591423034668
1765548726076863000,43.37086303710937,-1.8267759084701538,0.7038952708244324,-5.125985622406006
1765548726086872800,43.38087280273437,-1.8195933103561401,0.40940847992897034,-5.058948040008545
1765548726096882700,43.39088256835937,-1.8315643072128296,-0.22026655077934265,-4.704606533050537
1765548726106892300,43.40089233398437,-1.6400281190872192,-0.8403648138046265,-4.752490520477295
1765548726116902100,43.41090209960937,-1.5107412338256836,-1.4532804489135742,-5.104437828063965
1765548726126912000,43.420912109375,-1.2832920551300049,-1.5538369417190552,-5.228936672210693
1765548726136891100,43.43089111328125,-1.0989385843276978,-1.091755986213684,-5.463568210601807
1765548726146901000,43.44090087890625,-1.1061211824417114,-0.7015010714530945,-5.652710437774658
1765548726176869000,43.470869140625,-0.9720458984375,-1.3503297567367554,-6.572083473205566
1765548726186879000,43.48087890625,-1.194706678390503,-1.4772224426269531,-6.9240312576293945
1765548726196858000,43.49085815429687,-1.5059528350830078,-1.5059528350830078,-7.084442615509033
1765548726206898400,43.5008984375,-1.6519991159439087,-1.7501614093780518,-7.280767440795898
1765548726216877800,43.5108779296875,-1.7741034030914307,-1.5322890281677246,-7.146692276000977
1765548726226887400,43.52088745117187,-1.7262194156646729,-1.2856862545013428,-6.94079065322876
1765548726236866800,43.53086669921875,-1.678335428237915,-1.2473790645599365,-6.701370716094971
1765548726246876400,43.54087646484375,-1.4460978507995605,-1.4939818382263184,-6.399701118469238
1765548726256855800,43.55085571289062,-1.479616641998291,-1.900996208190918,-5.9735331535339355
1765548726287892200,43.58189233398438,-2.2888567447662354,-2.612074136734009,-4.738125324249268
1765548726297901800,43.59190185546875,-2.3319525718688965,-3.0142998695373535,-4.213795185089111
1765548726317890800,43.61189086914062,-1.8171991109848022,-1.7860745191574097,-3.5458126068115234
1765548726327900700,43.62190063476562,-1.4628572463989258,-1.0055646896362305,-3.093308687210083
1765548726337910500,43.63191064453125,-1.2066776752471924,-0.5171475410461426,-2.276885747909546
1765548726347920100,43.64192016601562,-1.0007762908935547,-0.47405192255973816,-1.7166426181793213
1765548726357930000,43.65192993164062,-1.1683704853057861,-0.5482721924781799,-1.3239935636520386
1765548726387989800,43.68198974609375,-1.314416766166687,-2.3798365592956543,-1.414973258972168
1765548726397999600,43.69199951171875,-1.2521674633026123,-2.207453966140747,-1.8602946996688843
1765548726408009200,43.70200927734375,-1.5298948287963867,-1.5705963373184204,-1.9393033981323242
1765548726418019000,43.71201904296875,-1.8746598958969116,-0.6153098344802856,-2.049436569213867
1765548726427998200,43.72199829101562,-2.2577321529388428,0.22505496442317963,-1.824381709098816
1765548726437977600,43.7319775390625,-2.454056739807129,0.31842881441116333,-1.5442601442337036
1765548726457966600,43.75196655273437,-2.8993782997131348,-0.1628057211637497,-1.3024457693099976
1765548726467976400,43.7619765625,-2.808398485183716,-0.5817909836769104,-1.4484920501708984
1765548726487996000,43.78199584960937,-2.8586769104003906,-0.9193734526634216,-2.4636335372924805
1765548726498005800,43.792005859375,-3.1675288677215576,0.002394201699644327,-2.762908697128296
1765548726508015400,43.80201538085937,-3.4955344200134277,0.7805097699165344,-2.719813108444214
1765548726518025200,43.81202514648437,-3.883395195007324,1.4437036514282227,-2.564189910888672
1765548726528034800,43.82203491210937,-4.359841346740723,1.8411411046981812,-2.63362193107605
1765548726538044700,43.83204467773437,-5.015852451324463,2.4803929328918457,-3.294421434402466
1765548726548054500,43.84205444335937,-5.566518783569336,3.313575267791748,-3.9647979736328125
1765548726558033700,43.85203369140625,-6.0190229415893555,4.259284973144531,-4.333505153656006
1765548726568074000,43.86207397460937,-6.627150535583496,5.243301868438721,-4.572925090789795
1765548726598103300,43.89210327148437,-7.692570209503174,6.3518171310424805,-4.529829502105713
1765548726608235000,43.90223510742187,-8.08282470703125,6.081272125244141,-4.637568473815918
1765548726618122800,43.91212280273437,-8.911218643188477,5.513846397399902,-4.649539470672607
1765548726628132600,43.92213256835937,-9.864110946655273,4.771644115447998,-4.865017890930176
1765548726638111700,43.93211181640625,-10.656591415405273,4.146757125854492,-4.972756862640381
1765548726648243700,43.94224365234375,-11.082759857177734,3.821146011352539,-4.888959884643555
1765548726668171800,43.962171875,-10.584765434265137,3.5170822143554688,-4.481945514678955
1765548726678181400,43.97218139648437,-10.089165687561035,3.2632968425750732,-4.501099109649658
1765548726708241200,44.0022412109375,-8.425195693969727,2.296039342880249,-4.299986362457275
1765548726718190000,44.01219018554688,-7.560888767242432,2.406172752380371,-4.228160381317139
1765548726728230100,44.02223022460937,-6.347028732299805,2.3774423599243164,-3.9480385780334473
1765548726748188700,44.04218872070312,-5.4228668212890625,2.051830768585205,-3.8331170082092285
1765548726758168000,44.05216796875,-4.9368438720703125,1.8626888990402222,-3.6727054119110107
1765548726768208400,44.06220849609375,-4.503493309020996,1.8411411046981812,-3.203441858291626
1765548726778218000,44.07221801757812,-4.335899353027344,1.460463047027588,-2.87064790725708
1765548726788227800,44.08222778320312,-4.065354347229004,0.9696516990661621,-2.851494312286377
1765548726818226700,44.11222680664063,-5.0900726318359375,0.7374141216278076,-2.341529369354248
1765548726828236300,44.122236328125,-5.477933406829834,0.6368576288223267,-2.0159177780151367
1765548726838215700,44.13221557617187,-5.858611583709717,0.33039984107017517,-1.86508309841156
1765548726848225300,44.14222534179687,-5.834669589996338,-0.0933738648891449,-1.7621324062347412
1765548726858265600,44.152265625,-5.882553577423096,-0.37828385829925537,-1.8770540952682495
1765548726868275500,44.162275390625,-5.674258232116699,-0.7110779285430908,-1.8818424940109253
1765548726878285000,44.17228515625,-5.461174011230469,-1.3239935636520386,-1.8267759084701538
1765548726888325400,44.18232543945312,-5.305551052093506,-2.10210919380188,-1.778891921043396
1765548726898304800,44.1923046875,-4.99669885635376,-2.9664158821105957,-2.0254945755004883
1765548726928242400,44.22224243164062,-4.24970817565918,-4.165910720825195,-1.5753847360610962
1765548726938282800,44.23228271484375,-4.089296340942383,-4.271255970001221,-1.4053963422775269
1765548726948262000,44.24226196289062,-4.036623954772949,-4.302380561828613,-1.4053963422775269
1765548726958241300,44.2522412109375,-3.957615375518799,-4.4077253341674805,-1.6328455209732056
1765548726968220400,44.26222045898437,-3.7876269817352295,-4.343081951141357,-1.659181833267212
1765548726978260700,44.2722607421875,-3.5170822143554688,-4.2951979637146,-1.5466543436050415
1765548726988240100,44.282240234375,-3.157952070236206,-4.46518611907959,-1.3479355573654175
1765548726998219300,44.29221923828125,-3.07415509223938,-4.398148536682129,-0.912190854549408
1765548727038197200,44.332197265625,-2.851494312286377,-4.67827033996582,-0.0694318488240242
1765548727048207000,44.34220703125,-3.0095114707946777,-5.130774021148682,-0.35913026332855225
1765548727058247400,44.35224731445312,-3.5218706130981445,-5.061342239379883,-0.6392518281936646
1765548727068257000,44.36225708007812,-4.173093795776367,-4.759673118591309,-0.06224924325942993
1765548727078236400,44.372236328125,-4.716577529907227,-4.965574264526367,0.7038952708244324
1765548727088246000,44.38224609375,-4.685452938079834,-5.286397457122803,1.414973258972168
1765548727098256000,44.392255859375,-4.266467571258545,-5.398924827575684,1.86508309841156
1765548727108265700,44.402265625,-3.576937437057495,-5.521028995513916,1.766920804977417
1765548727158284000,44.45228393554687,-2.494758129119873,-5.442020416259766,1.1971008777618408
1765548727168293600,44.46229370117187,-2.3367409706115723,-5.585672378540039,1.259350061416626
1765548727178303500,44.47230346679687,-2.2673089504241943,-5.623979568481445,0.9169792532920837
1765548727188282600,44.48228271484375,-2.4372973442077637,-5.363011837005615,0.9864110946655273
1765548727198262000,44.49226196289062,-2.3247697353363037,-5.032611846923828,1.5203180313110352
1765548727208272000,44.50227197265625,-2.2673089504241943,-4.666299343109131,2.099714994430542
1765548727218251000,44.5122509765625,-2.0877439975738525,-4.462791919708252,2.2864625453948975
1765548727248249900,44.54224975585937,-2.779668092727661,-5.461174011230469,1.4772224426269531
1765548727258290200,44.55229028320313,-2.853888511657715,-5.430049419403076,1.821987509727478
1765548727268299800,44.5622998046875,-2.7437551021575928,-5.214571475982666,2.1045033931732178
1765548727278309600,44.5723095703125,-2.6599581241607666,-5.011064052581787,2.2170307636260986
1765548727289357000,44.58335717773438,-2.655169725418091,-4.716577529907227,2.389413356781006
1765548727299366700,44.59336669921875,-2.5522189140319824,-4.513070106506348,2.3702597618103027
1765548727319355600,44.61335571289062,-2.0805611610412598,-4.642356872558594,1.8171991109848022
1765548727339405800,44.63340576171875,-2.27209734916687,-4.671087741851807,1.6352397203445435
1765548727359425300,44.65342529296875,-2.2433669567108154,-5.003881454467773,1.7405846118927002
1765548727369435100,44.66343505859375,-2.094926595687866,-4.819528102874756,1.7549498081207275
1765548727379414300,44.67341430664062,-1.9369091987609863,-4.812345504760742,1.8914192914962769
1765548727389424000,44.68342407226562,-1.9369091987609863,-4.666299343109131,2.118868589401245
1765548727399403300,44.6934033203125,-1.8986018896102905,-4.829104900360107,2.3965959548950195
1765548727409382700,44.70338256835937,-1.843535304069519,-4.98472785949707,2.473210334777832
1765548727419392300,44.71339233398437,-1.6687586307525635,-4.850652694702148,2.647987127304077
1765548727429402000,44.72340209960937,-1.6160861253738403,-4.63517427444458,2.628833532333374
1765548727449391000,44.74339111328125,-1.2545616626739502,-3.8163576126098633,2.5450363159179688
1765548727459401000,44.75340087890625,-1.6136919260025024,-3.4356794357299805,2.873042106628418
1765548727469441300,44.76344116210937,-1.5418659448623657,-3.3854012489318848,3.4596214294433594
1765548727479420400,44.77342041015625,-1.4317326545715332,-3.2106244564056396,3.3710360527038574
1765548727489460700,44.78346069335937,-1.1899182796478271,-2.956839084625244,3.8115692138671875
1765548727499470600,44.793470703125,-0.7086837291717529,-2.9712042808532715,3.77565598487854
1765548727509480200,44.80348022460937,-0.2777273952960968,-3.2106244564056396,3.622427225112915
1765548727519428900,44.81342895507812,-0.19393034279346466,-3.1866824626922607,3.579331636428833
1765548727529408300,44.823408203125,-0.31842881441116333,-2.849100112915039,3.8163576126098633
1765548727539418000,44.83341821289063,-0.6368576288223267,-2.2816741466522217,4.333505153656006
1765548727569447200,44.863447265625,-1.158793568611145,-2.5258827209472656,4.072536945343018
1765548727659413000,44.9534130859375,-2.3750481605529785,-2.070984363555908,2.9041666984558105
1765548727709431300,45.00343139648437,-1.3072341680526733,-2.5234885215759277,2.5977089405059814
1765548727719441200,45.01344116210937,-1.2401964664459229,-2.3918075561523438,2.7030537128448486
1765548727729420500,45.02342065429688,-1.2497732639312744,-2.4636335372924805,2.6671407222747803
1765548727739430100,45.03343017578125,-1.3287819623947144,-2.559401512145996,2.5091233253479004
1765548727749470500,45.04347045898437,-1.280897855758667,-2.873042106628418,2.33913516998291
1765548727759480300,45.05348022460937,-0.9911994934082031,-3.1507694721221924,2.0685901641845703
1765548727769490000,45.06348999023437,-0.7230489253997803,-3.375824451446533,1.7860745191574097
1765548727779530200,45.0735302734375,-0.7374141216278076,-3.3303346633911133,1.8507179021835327
1765548727789540000,45.0835400390625,-0.9864110946655273,-3.3255462646484375,1.9321208000183105
1765548727849598700,45.1435986328125,-1.403002142906189,-3.5194764137268066,1.3096283674240112
1765548727859608300,45.1536083984375,-1.381454348564148,-3.5482068061828613,0.8978256583213806
1765548727909687800,45.20368774414062,-1.968033790588379,-1.3934253454208374,-0.4692635238170624
1765548727929646300,45.22364624023437,-2.5091233253479004,-1.6089035272598267,-0.2801215946674347
1765548727949665800,45.24366577148437,-2.717418909072876,-2.2912509441375732,-0.8212111592292786
1765548727959645000,45.25364501953125,-3.0142998695373535,-2.382230758666992,-1.2401964664459229
1765548727969685200,45.26368530273437,-3.28963303565979,-2.118868589401245,-1.5921441316604614
1765548727979725600,45.2737255859375,-3.7014358043670654,-1.6615760326385498,-1.5203180313110352
1765548727999745000,45.2937451171875,-4.774038314819336,-1.0199298858642578,-1.37906014919281
1765548728049794000,45.3437939453125,-5.420472621917725,-1.8602946996688843,-2.207453966140747
1765548728059834400,45.35383447265625,-5.360617637634277,-1.599326729774475,-2.494758129119873
1765548728069844000,45.36384399414062,-5.698200225830078,-1.2689268589019775,-2.4133553504943848
1765548728079823400,45.3738232421875,-6.102819919586182,-1.137245774269104,-2.3965959548950195
1765548728089802500,45.38380249023437,-6.490680694580078,-1.2617442607879639,-2.2601263523101807
1765548728099812400,45.39381225585937,-6.67982292175293,-1.2689268589019775,-2.3558945655822754
1765548728129872100,45.4238720703125,-6.435614109039307,-0.5195417404174805,-2.410961151123047
1765548728139881700,45.4338818359375,-6.165069580078125,-0.7661445140838623,-2.2697031497955322
1765548728149891600,45.4438916015625,-6.335057735443115,-1.0678139925003052,-2.449268341064453
1765548728169880600,45.46388061523437,-6.210559368133545,-1.4724340438842773,-2.2625205516815186
1765548728179890400,45.47389038085937,-6.117185115814209,-1.5322890281677246,-2.3989901542663574
1765548728189900300,45.483900390625,-5.999869346618652,-1.9752163887023926,-2.6623523235321045
1765548728199879400,45.49387939453125,-5.825092792510986,-2.2385785579681396,-2.896984100341797
1765548728229908700,45.52390869140625,-6.57926607131958,-2.051830768585205,-2.276885747909546
1765548728239918600,45.53391870117188,-6.430825710296631,-1.9919757843017578,-1.987187385559082
1765548728249928200,45.54392822265625,-6.1052141189575195,-1.9081788063049316,-1.6615760326385498
1765548728259907600,45.55390747070312,-5.717353820800781,-2.1595699787139893,-1.6400281190872192
1765548759176112400,76.4701123046875,-5.592854976654053,-2.580949544906616,-1.5705963373184204
1765548759225530600,76.51953051757812,-2.382230758666992,0.10295066982507706,-0.7565677165985107
1765548759235540500,76.52954052734376,-2.6001031398773193,-0.40940847992897034,-0.43335050344467163
1765548759335607600,76.62960766601563,-2.4875755310058594,0.7589619159698486,-1.9560627937316895
1765548759355596500,76.64959643554687,-3.4117374420166016,1.4413094520568848,-2.454056739807129
1765548759365576000,76.65957592773438,-4.668693542480469,1.4293384552001953,-2.9017724990844727
1765548759375616300,76.6696162109375,-5.549759387969971,1.6639702320098877,-2.9017724990844727
1765548759425604000,76.71960400390626,-5.580883979797363,1.6831238269805908,-3.2082302570343018
1765548759485693200,76.77969311523438,-5.822698593139648,4.960785865783691,-3.071760892868042
1765548759565679600,76.8596796875,-5.2480902671813965,2.942473888397217,-2.96162748336792
1765548759575659000,76.86965893554688,-5.310339450836182,2.494758129119873,-2.343923568725586
1765548759585668600,76.87966870117188,-5.339069843292236,1.702277421951294,-1.8315643072128296
1765548759595648000,76.88964794921876,-5.214571475982666,1.4700398445129395,-1.9297266006469727
1765548759605627100,76.89962719726563,-4.752490520477295,2.126051187515259,-1.9584569931030273
1765548759615606500,76.9096064453125,-4.304774761199951,3.6296098232269287,-1.9584569931030273
1765548759625616100,76.9196162109375,-3.4979286193847656,4.750096321105957,-1.7046716213226318
1765548759635565000,76.92956494140626,-2.628833532333374,5.547365188598633,-1.7549498081207275
1765548759675543000,76.96954296875,-2.3989901542663574,0.26336219906806946,-2.1116859912872314
1765548759695562500,76.9895625,-0.026336219161748886,3.8810009956359863,-0.9792284965515137
1765548759705572400,76.999572265625,0.569819986820221,4.19224739074707,0.16519992053508759
1765548759715582000,77.00958203125,0.10534487664699554,2.3104045391082764,0.8379706144332886
1765548759725591800,77.019591796875,-0.5291185975074768,0.9744400978088379,0.7996633648872375
1765548759735601700,77.0296015625,-0.8906430602073669,0.7589619159698486,0.304063618183136
1765548759745580800,77.03958081054688,-1.213860273361206,1.0965443849563599,-0.40940847992897034
1765548759775549200,77.06954907226563,-2.293645143508911,0.5985504388809204,-1.3096283674240112
1765548759795568600,77.08956860351563,-1.824381709098816,1.5969325304031372,-1.192312479019165
1765548759815588000,77.10958813476563,-1.1444283723831177,1.5155296325683594,-0.9983820915222168
1765548759845648000,77.13964794921876,-1.4221558570861816,-0.9217676520347595,-0.9576807022094727
1765548759875585800,77.16958569335938,-0.0071826050989329815,-0.4141969084739685,-1.414973258972168
1765548759885595400,77.17959545898438,0.5650315880775452,1.0749965906143188,-1.7357962131500244
1765548759895605200,77.18960522460938,0.8906430602073669,1.7310078144073486,-1.9033904075622559
1765548759915594200,77.20959423828126,0.7613561153411865,-0.22266076505184174,-1.5155296325683594
1765548759925604000,77.21960400390626,1.1348515748977661,-0.950498104095459,-0.667982280254364
1765548759935613700,77.22961376953126,1.5418659448623657,-1.0055646896362305,-0.09576806426048279
1765548759945593000,77.23959301757813,1.8076223134994507,-0.6129156351089478,0.26336219906806946
1765548759955602700,77.24960278320313,1.9369091987609863,-0.1604115068912506,0.3232172429561615
1765548759975591700,77.269591796875,2.030282974243164,-0.4429273009300232,-0.07422025501728058
1765548759985601500,77.2796015625,2.0805611610412598,-0.9026140570640564,0.035913024097681046
1765548759995611400,77.289611328125,1.8363527059555054,-0.9624691009521484,-0.2944868206977844
1765548760005651700,77.29965161132813,1.7764976024627686,-1.5203180313110352,-0.038307227194309235
1765548760015630800,77.309630859375,1.6065093278884888,-1.8339585065841675,0.028730420395731926
1765548760025610000,77.31960986328124,1.4628572463989258,-1.7764976024627686,-0.23942017555236816
1765548760035619800,77.32961987304688,1.2952631711959839,-1.7046716213226318,-0.5554547905921936
1765548760045629700,77.33962963867188,1.1635819673538208,-1.278503656387329,-1.0127472877502441
1765548760055608800,77.34960888671876,1.41257905960083,-0.8882488012313843,-1.2521674633026123
1765548760065618700,77.35961865234376,1.723825216293335,-0.6584054827690125,-1.3455413579940796
1765548760105566200,77.39956616210938,2.896984100341797,-2.073378562927246,-0.9983820915222168
1765548760115515000,77.40951489257813,2.8443117141723633,-2.2026655673980713,-1.2545616626739502
1765548760125494000,77.41949389648437,2.7222073078155518,-2.1811177730560303,-1.359906554222107
1765548760135473400,77.42947338867188,2.655169725418091,-2.2649147510528564,-1.7262194156646729
1765548760145483300,77.43948315429688,2.719813108444214,-2.2673089504241943,-1.6663644313812256
1765548760155492900,77.44949291992188,2.691082715988159,-2.5929205417633057,-1.5849615335464478
1765548760165502700,77.45950268554688,2.7892448902130127,-2.6001031398773193,-1.6136919260025024
1765548760175451400,77.46945141601563,2.920926094055176,-2.6886885166168213,-1.5873557329177856
1765548760205480700,77.49948071289063,3.5649664402008057,-3.0119056701660156,-1.7980455160140991
1765548760215490600,77.50949047851563,3.847482204437256,-2.7317841053009033,-1.7884687185287476
1765548760225469700,77.5194697265625,3.706224203109741,-2.647987127304077,-1.6831238269805908
1765548760235479600,77.5294794921875,3.579331636428833,-2.425326347351074,-1.577778935432434
1765548760245458700,77.53945874023438,3.627215623855591,-2.3367409706115723,-1.4317326545715332
1765548760255468500,77.54946850585938,3.5889084339141846,-2.6024973392486572,-1.4915876388549805
1765548760265478100,77.55947802734374,3.3279404640197754,-2.808398485183716,-1.558625340461731
1765548760275427000,77.56942700195313,3.090914487838745,-2.5546131134033203,-1.8339585065841675
1765548760285467400,77.57946728515626,3.136404275894165,-2.4444799423217773,-2.0015525817871094
1765548760315466000,77.60946606445313,3.19865345954895,-2.3750481605529785,-2.3989901542663574
1765548760325475800,77.61947583007813,3.1699230670928955,-2.8419175148010254,-2.2912509441375732
1765548760335455000,77.629455078125,3.2106244564056396,-3.2130186557769775,-2.1595699787139893
1765548760345464800,77.63946484375,3.3494882583618164,-3.488351821899414,-1.8770540952682495
1765548760355444000,77.64944384765624,3.423708438873291,-3.466804027557373,-1.987187385559082
1765548760365453800,77.65945385742188,3.426102638244629,-3.4117374420166016,-2.2673089504241943
1765548760375402500,77.66940258789063,3.3662476539611816,-3.5410242080688477,-2.5450363159179688
1765548760385412400,77.67941235351563,3.552995204925537,-3.531447410583496,-2.801215887069702
1765548760415411200,77.7094111328125,4.788403511047363,-2.765302896499634,-2.8778305053710938
1765548760425390300,77.71939038085938,5.006275653839111,-3.0310592651367188,-2.8443117141723633
1765548760435400200,77.72940014648438,4.982333660125732,-3.4811692237854004,-2.8419175148010254
1765548760445409800,77.73940991210938,4.90571928024292,-3.5889084339141846,-2.920926094055176
1765548760455358700,77.74935864257813,4.596867084503174,-3.6367924213409424,-2.9161376953125
1765548760465368300,77.75936840820313,4.659116744995117,-3.31118106842041,-2.7772738933563232
1765548760475408600,77.76940869140626,4.884171485900879,-3.141192674636841,-2.631227731704712
1765548760495397600,77.78939770507813,5.166687488555908,-3.864241600036621,-2.628833532333374
1765548760515417300,77.80941723632813,5.0469770431518555,-3.691859006881714,-2.229001760482788
1765548760525396500,77.819396484375,4.910507678985596,-3.5386300086975098,-2.0398597717285156
1765548760535375600,77.82937573242188,4.58968448638916,-3.3638534545898438,-1.968033790588379
1765548760545385500,77.83938549804688,4.127603530883789,-3.177105665206909,-2.1068975925445557
1765548760555395300,77.84939526367188,3.6152446269989014,-2.82515811920166,-1.8626888990402222
1765548760565405000,77.85940502929688,3.184288263320923,-2.652775526046753,-1.4317326545715332
1765548760575414800,77.86941479492188,2.7940332889556885,-2.190694570541382,-1.0654197931289673
1765548760585424600,77.87942456054688,2.4636335372924805,-1.98958158493042,-0.7230489253997803
1765548760595403800,77.88940380859376,1.9345149993896484,-2.0590133666992188,-0.6177040338516235
1765548760625402600,77.91940258789063,1.1228805780410767,-1.647210717201233,-0.15562310814857483
1765548760635412200,77.929412109375,1.0103530883789062,-1.5107412338256836,-0.0933738648891449
1765548760645422000,77.93942211914063,0.7158663272857666,-1.2545616626739502,-0.22744916379451752
1765548760655432000,77.94943188476563,0.31364041566848755,-0.8212111592292786,-0.36152446269989014
1765548760665411000,77.9594111328125,-0.043095629662275314,-0.3495534360408783,-0.6536170840263367
1765548760675421000,77.9694208984375,-0.47644615173339844,-0.05746084079146385,-0.7134721279144287
1765548760685430500,77.97943041992187,-0.8307880163192749,0.5602431893348694,-0.9026140570640564
1765548760695440400,77.9894404296875,-1.2282254695892334,1.137245774269104,-0.7613561153411865
1765548760705450200,77.9994501953125,-1.7405846118927002,1.6328455209732056,-0.7589619159698486
1765548760735479600,78.0294794921875,-3.184288263320923,1.6831238269805908,0.17238251864910126
1765548760745489200,78.0394892578125,-3.2154128551483154,1.0989385843276978,0.2537853717803955
1765548760755499000,78.0494990234375,-3.1675288677215576,0.3758896589279175,-0.1867477297782898
1765548760765539300,78.05953930664063,-3.1052796840667725,0.30885201692581177,-0.5195417404174805
1765548760775549200,78.06954907226563,-2.719813108444214,0.47165772318840027,-0.9672574996948242
1765548760785528300,78.0795283203125,-2.5474305152893066,0.8451532125473022,-1.2976573705673218
1765548760795538200,78.0895380859375,-2.652775526046753,1.2617442607879639,-1.414973258972168
1765548760805547800,78.0995478515625,-2.559401512145996,1.4963760375976562,-1.1444283723831177
1765548760815527200,78.10952709960938,-2.2433669567108154,1.5945383310317993,-0.9169792532920837
1765548760825536800,78.11953686523438,-2.248155355453491,1.8148049116134644,-0.8212111592292786
1765548760835546600,78.12954663085938,-2.2840683460235596,1.5873557329177856,-1.1492167711257935
1765548760845525800,78.13952587890626,-2.387019157409668,1.2042834758758545,-1.4460978507995605
1765548760855505200,78.14950512695313,-2.741360902786255,1.091755986213684,-1.403002142906189
1765548760865515000,78.15951489257813,-2.691082715988159,0.8643068075180054,-1.3096283674240112
1765548760875494100,78.169494140625,-2.6455929279327393,0.4572925269603729,-1.338358759880066
1765548760885504000,78.17950390625,-2.559401512145996,0.40462008118629456,-1.5322890281677246
1765548760895483100,78.18948315429688,-2.492363929748535,0.7757213711738586,-1.5394717454910278
1765548760905493000,78.19949291992188,-2.6360161304473877,1.194706678390503,-1.436521053314209
1765548760915502600,78.20950268554688,-2.497152328491211,1.501164436340332,-1.2258312702178955
1765548760935522300,78.22952221679688,-2.513911724090576,1.0893617868423462,-1.0582371950149536
1765548760945532000,78.23953198242188,-2.7892448902130127,0.9552865028381348,-1.2856862545013428
1765548760955541800,78.24954174804688,-2.7916390895843506,1.314416766166687,-1.4101848602294922
1765548760965551600,78.25955151367188,-2.693476915359497,1.3910311460494995,-1.338358759880066
1765548760975561200,78.26956127929688,-1.9823989868164062,0.7876923680305481,-1.3551181554794312
1765548760985571000,78.27957104492188,-1.6136919260025024,-0.2825157940387726,-1.745373010635376
1765548760995550200,78.28955029296876,-1.37906014919281,-0.6344634294509888,-1.867477297782898
1765548761005560000,78.29956005859376,-1.2282254695892334,-0.5051765441894531,-1.8818424940109253
1765548761015508700,78.3095087890625,-1.7381904125213623,-0.0071826050989329815,-1.9823989868164062
1765548761035497700,78.32949780273438,-2.427720546722412,0.5482721924781799,-1.9393033981323242
1765548761045538000,78.3395380859375,-2.0853497982025146,0.22266076505184174,-1.9823989868164062
1765548761065527000,78.35952709960938,-1.2282254695892334,-0.395043283700943,-2.652775526046753
1765548761075475700,78.36947583007813,-0.8547300100326538,-0.7613561153411865,-3.1483752727508545
1765548761085485600,78.37948559570313,-0.9026140570640564,-0.5195417404174805,-3.7205893993377686
1765548761095465000,78.38946484375,-1.158793568611145,-0.014365210197865963,-3.907337188720703
1765548761105505000,78.39950512695313,-1.4532804489135742,0.36152446269989014,-4.019864559173584
1765548761115484400,78.409484375,-1.3862427473068237,0.4213795065879822,-4.015076160430908
1765548761135473400,78.42947338867188,-0.849941611289978,-0.395043283700943,-4.426878929138184
1765548761165502700,78.45950268554688,-0.45250412821769714,0.3926490843296051,-4.683058738708496
1765548761175481900,78.46948193359376,-1.292868971824646,0.47405192255973816,-4.347870349884033
1765548761185491700,78.47949169921876,-2.049436569213867,-0.038307227194309235,-4.144362926483154
1765548761195470800,78.48947094726563,-2.4181437492370605,-0.43335050344467163,-4.1874589920043945
1765548761205480700,78.49948071289063,-2.2864625453948975,-0.8307880163192749,-4.4508209228515625
1765548761225500200,78.51950024414063,-1.2258312702178955,-0.7182605266571045,-5.008669853210449
1765548761255468500,78.54946850585938,-0.8212111592292786,-1.556231141090393,-5.434837818145752
1765548761265478100,78.55947802734374,-1.1827356815338135,-1.6400281190872192,-5.767632007598877
1765548761275457500,78.56945751953126,-1.5849615335464478,-1.8124107122421265,-5.758055210113525
1765548761285467400,78.57946728515626,-1.4867992401123047,-1.8722656965255737,-5.506663799285889
1765548761295446500,78.58944653320313,-1.7956513166427612,-2.250549554824829,-5.580883979797363
1765548761305486800,78.59948681640626,-1.8076223134994507,-2.470816135406494,-5.851428985595703
1765548761315466000,78.60946606445313,-1.0342950820922852,-2.1140801906585693,-6.258443355560303
1765548761325445400,78.6194453125,-0.3471592366695404,-1.4891934394836426,-6.4164605140686035
1765548761335424500,78.62942456054688,-0.1388636976480484,-1.534683346748352,-6.160281181335449
1765548761395483100,78.68948315429688,-2.2146365642547607,-3.5003228187561035,-5.2696380615234375
1765548761405493000,78.69949291992188,-2.3295583724975586,-3.7158010005950928,-5.382165431976318
1765548761415472000,78.70947216796876,-2.2816741466522217,-3.6511576175689697,-5.635950565338135
1765548761425482000,78.71948193359376,-2.319981336593628,-3.0621838569641113,-5.468356609344482
1765548761435461000,78.72946118164063,-2.4205379486083984,-2.5665841102600098,-5.104437828063965
1765548761445440500,78.7394404296875,-2.346317768096924,-2.4803929328918457,-4.654327869415283
1765548761465429500,78.75942944335938,-2.432508945465088,-1.800439715385437,-3.7660791873931885
1765548761475408600,78.76940869140626,-2.540247917175293,-1.436521053314209,-3.622427225112915
1765548761485449000,78.77944897460938,-2.918531894683838,-1.41257905960083,-3.4835634231567383
1765548761495397600,78.78939770507813,-3.1914708614349365,-1.8555063009262085,-3.5242648124694824
1765548761505377000,78.799376953125,-3.450044631958008,-1.922544002532959,-3.5242648124694824
1765548761515386600,78.80938671875,-3.6583402156829834,-2.3989901542663574,-3.469198226928711
1765548761525366000,78.81936596679688,-3.804386615753174,-2.698265314102173,-3.823540210723877
1765548761535375600,78.82937573242188,-3.971980571746826,-2.786850690841675,-4.125209331512451
1765548761565466000,78.85946606445313,-3.907337188720703,-0.5195417404174805,-5.408501625061035
1765548761585455000,78.879455078125,-4.07014274597168,0.42856210470199585,-5.03021764755249
1765548761595434200,78.88943432617188,-3.892971992492676,0.45250412821769714,-5.236119270324707
1765548761605444000,78.89944409179688,-3.442862033843994,1.2330138683319092,-5.600037574768066
1765548761615423200,78.90942333984376,-2.8107926845550537,1.3982137441635132,-6.066906929016113
1765548761625463600,78.91946362304688,-2.470816135406494,1.5322890281677246,-6.598419666290283
1765548761635443000,78.92944287109376,-3.112462282180786,1.5394717454910278,-6.799532890319824
1765548761645483300,78.93948315429688,-4.388571739196777,2.1954829692840576,-6.576871871948242
1765548761665502700,78.95950268554688,-6.835445880889893,2.4636335372924805,-5.102043628692627
1765548761675512300,78.96951220703124,-7.481880187988281,2.118868589401245,-4.98472785949707
1765548761685552600,78.979552734375,-7.666234016418457,2.6216509342193604,-5.592854976654053
1765548761695532000,78.98953198242188,-7.838616371154785,2.9448680877685547,-6.033388137817383
1765548761705541600,78.99954174804688,-8.128314971923828,2.389413356781006,-6.189011573791504
1765548761715551500,79.00955151367188,-8.607154846191406,1.678335428237915,-6.210559368133545
1765548761735540500,79.02954052734376,-9.059659004211426,1.6041151285171509,-5.894524574279785
1765548761745550300,79.03955029296876,-9.306262016296387,1.525106430053711,-5.774814605712891
1765548761755560000,79.04955981445312,-9.639056205749512,0.9720458984375,-5.731719017028809
1765548761775549200,79.06954907226563,-9.459490776062012,0.38067805767059326,-6.1985883712768555
1765548761785558800,79.07955883789063,-8.650250434875488,0.871489405632019,-6.110002517700195
1765548761795538200,79.0895380859375,-7.422025203704834,1.4867992401123047,-5.789179801940918
1765548761805517300,79.09951733398438,-6.2201361656188965,1.8579005002975464,-5.4228668212890625
1765548761815496400,79.10949633789062,-5.214571475982666,2.2026655673980713,-5.020640850067139
1765548761825475800,79.11947583007813,-4.28322696685791,2.1739351749420166,-4.501099109649658
1765548761835455000,79.129455078125,-3.869029998779297,1.525106430053711,-4.3191399574279785
1765548761845495300,79.13949536132813,-3.7684733867645264,0.7924807667732239,-4.2951979637146
1765548761855444000,79.14944384765624,-3.93367338180542,0.20111294090747833,-4.084507942199707
1765548761875463700,79.16946362304688,-3.6559460163116455,-0.3423708379268646,-3.488351821899414
1765548761885504000,79.17950390625,-3.5913026332855225,-0.002394201699644327,-3.294421434402466
1765548761895452700,79.18945263671876,-4.185064792633057,0.395043283700943,-3.1914708614349365
1765548761905431800,79.19943188476563,-4.702212333679199,0.7158663272857666,-3.047818660736084
1765548761915411200,79.2094111328125,-5.317522048950195,0.5889736413955688,-2.978386878967285
1765548761925420800,79.2194208984375,-5.74129581451416,0.38067805767059326,-2.5234885215759277
1765548761935430700,79.2294306640625,-6.078877925872803,0.2346317619085312,-2.5665841102600098
1765548761945440500,79.2394404296875,-6.052541732788086,-0.4812345504760742,-2.298433542251587
1765548761955389200,79.24938916015626,-6.1315507888793945,-1.4221558570861816,-2.274491548538208
1765548761985388000,79.27938793945313,-6.481103897094727,-3.205836057662964,-3.1651346683502197
1765548762035375600,79.32937573242188,-4.563348293304443,-4.0078935623168945,-2.580949544906616
1765548762045385500,79.33938549804688,-4.24970817565918,-3.6176388263702393,-2.6192567348480225
1765548762055395300,79.34939526367188,-4.541800498962402,-3.706224203109741,-2.367865562438965
1765548762065374500,79.35937451171876,-4.850652694702148,-4.089296340942383,-1.8148049116134644
1765548762075353900,79.36935375976563,-5.142745018005371,-5.339069843292236,-1.5490485429763794
1765548762085363500,79.37936352539063,-5.0876784324646,-5.793968200683594,-1.5945383310317993
1765548762105352400,79.3993525390625,-4.268861770629883,-6.0405707359313965,-2.1978771686553955
1765548762115331800,79.40933178710938,-3.914519786834717,-5.872976779937744,-2.276885747909546
1765548762125341400,79.41934155273438,-3.490746021270752,-5.760449409484863,-1.9800047874450684
1765548762135290400,79.42929028320313,-3.1459810733795166,-5.410895824432373,-1.4963760375976562
1765548762145330400,79.43933032226562,-2.784456491470337,-4.991910457611084,-1.2401964664459229
1765548762155340300,79.44934033203126,-2.4013843536376953,-4.876988887786865,-1.0749965906143188
1765548762165380600,79.45938061523438,-2.3319525718688965,-4.4292731285095215,-0.9600749015808105
1765548762175359700,79.46935986328126,-2.535459518432617,-4.3406877517700195,-0.5171475410461426
1765548762185400000,79.47940014648438,-2.734178304672241,-4.912901878356934,-0.19871874153614044
1765548762195410000,79.48940991210938,-2.7054479122161865,-5.456385612487793,-0.0694318488240242
1765548762225469700,79.5194697265625,-2.5905263423919678,-6.739677906036377,-0.2082955539226532
1765548762235479600,79.5294794921875,-2.671929121017456,-6.418854713439941,0.15083470940589905
1765548762245489200,79.5394892578125,-2.7437551021575928,-6.086060523986816,0.3280056416988373
1765548762255468500,79.54946850585938,-2.300827741622925,-5.566518783569336,0.5626373887062073
1765548762265447700,79.55944775390626,-2.032677173614502,-5.183446884155273,0.4405331015586853
1765548762275457500,79.56945751953126,-1.5873557329177856,-4.663905143737793,0.23942017555236816
1765548762285497900,79.57949780273438,-1.3623007535934448,-4.213795185089111,0.07182604819536209
1765548762295477000,79.58947705078126,-1.192312479019165,-3.9384617805480957,0.026336219161748886
1765548762305486800,79.59948681640626,-1.1085153818130493,-3.711012601852417,0.17956513166427612
1765548762335455000,79.629455078125,-2.070984363555908,-5.092466831207275,0.8523358106613159
1765548762345464800,79.63946484375,-1.6711528301239014,-5.207388877868652,0.9145850539207458
1765548762355474700,79.649474609375,-1.292868971824646,-5.564124584197998,0.45250412821769714
1765548762365484300,79.659484375,-1.290474772453308,-5.370194435119629,0.2322375625371933
1765548762375494100,79.669494140625,-1.2952631711959839,-4.788403511047363,0.44532153010368347
1765548762385504000,79.67950390625,-1.381454348564148,-4.424484729766846,0.48602294921875
1765548762395513600,79.689513671875,-1.522712230682373,-3.8810009956359863,0.4668693244457245
1765548762405523500,79.6995234375,-0.7469909191131592,-3.2968156337738037,0.40940847992897034
1765548762435491600,79.72949169921876,-0.3734954595565796,-3.1244332790374756,-0.4908113479614258
1765548762445501400,79.73950146484376,-0.6057330369949341,-3.002328872680664,-0.2992752194404602
1765548762455480600,79.74948046875,-0.9696516990661621,-2.894589900970459,0.26815059781074524
1765548762465490400,79.75949047851563,-0.7110779285430908,-3.272873640060425,0.7134721279144287
1765548762475500300,79.76950024414063,-0.507570743560791,-3.758896589279175,0.6344634294509888
1765548762485510000,79.77951000976563,-0.07422025501728058,-3.801992416381836,0.3902548849582672
1765548762495519700,79.78951977539063,0.10773907601833344,-3.4308910369873047,0.14604631066322327
1765548762505529600,79.79952954101563,-0.13168109953403473,-2.9448680877685547,0.31603461503982544
1765548762515539200,79.80953930664063,-0.6344634294509888,-2.7988216876983643,0.7422025203704834
1765548762535528200,79.82952807617187,-1.4676456451416016,-3.31118106842041,1.414973258972168
1765548762545507600,79.83950756835938,-1.2186486721038818,-3.4763808250427246,1.5322890281677246
1765548762555486700,79.84948681640626,-0.5770025849342346,-3.157952070236206,1.070208191871643
1765548762565496600,79.85949658203126,0.016759412363171577,-2.6839001178741455,0.8738836050033569
1765548762575475700,79.86947583007813,0.6177040338516235,-1.7884687185287476,1.0845733880996704
1765548762585485600,79.87948559570313,0.7206547260284424,-1.3718775510787964,1.0103530883789062
1765548762595495400,79.88949536132813,1.0821791887283325,-0.9840168952941895,1.5705963373184204
1765548762605505000,79.89950512695313,1.3479355573654175,-1.0630255937576294,1.9800047874450684
1765548762615515000,79.90951489257813,1.5849615335464478,-1.1061211824417114,2.1475989818573
1765548762645483300,79.93948315429688,1.4652514457702637,-1.8579005002975464,1.3335703611373901
1765548762655462400,79.94946240234376,1.1563993692398071,-2.008735179901123,1.625662922859192
1765548762665441500,79.95944165039063,0.7709329724311829,-2.1739351749420166,2.013523578643799
1765548762675421000,79.9694208984375,0.6631938815116882,-2.3032219409942627,2.276885747909546
1765548762685461200,79.97946118164063,0.4118026793003082,-2.0829553604125977,2.1092917919158936
1765548762695440400,79.9894404296875,0.3495534360408783,-1.946485996246338,1.7142484188079834
1765548762705450200,79.9994501953125,0.4596867263317108,-1.5466543436050415,1.8315643072128296
1765548762715459800,80.0094599609375,0.5817909836769104,-1.45806884765625,2.0015525817871094
1765548762725469700,80.0194697265625,0.7948749661445618,-1.522712230682373,2.1978771686553955
1765548762785497900,80.07949780273438,0.4644751250743866,-1.4963760375976562,2.7509377002716064
1765548762795507500,80.08950756835938,0.2537853717803955,-1.4963760375976562,2.695871114730835
1765548762805517300,80.09951733398438,0.14844051003456116,-1.6041151285171509,2.631227731704712
1765548762815496400,80.10949633789062,0.10534487664699554,-1.5921441316604614,2.561795711517334
1765548762825536800,80.11953686523438,0.043095629662275314,-1.4867992401123047,2.164358377456665
1765548762845587000,80.1395869140625,-0.2968810200691223,-1.6759412288665771,1.7190368175506592
1765548762865576000,80.15957592773438,-0.5985504388809204,-0.8619126081466675,1.7573440074920654
1765548762895544000,80.1895439453125,-0.6033388376235962,-1.5610195398330688,1.01753568649292
1765548762905584400,80.19958447265626,-0.6607996821403503,-1.941697597503662,0.8738836050033569
1765548762925573400,80.21957348632813,-0.7996633648872375,-2.540247917175293,1.3694833517074585
1765548762965643000,80.25964306640626,-0.6105214357376099,-2.1739351749420166,1.2617442607879639
1765548762985693200,80.27969311523438,-0.8906430602073669,-2.0614075660705566,0.7398083209991455
1765548762995702800,80.28970288085938,-1.1540051698684692,-1.6424223184585571,0.4141969084739685
1765548763025762600,80.31976245117187,-1.3623007535934448,-0.8092401623725891,-0.6488286852836609
1765548763075781000,80.36978100585938,-2.367865562438965,-0.20111294090747833,-0.22744916379451752
1765548763085790700,80.37979077148438,-2.6360161304473877,-0.3974374830722809,-0.28969839215278625
1765548763095800600,80.38980053710938,-2.829946517944336,-0.8355764150619507,-0.6224924325942993
1765548763105810200,80.39981005859374,-3.1292216777801514,-1.0127472877502441,-0.9361328482627869
1765548763115820000,80.40982006835938,-3.450044631958008,-1.0749965906143188,-1.2952631711959839
1765548763125799400,80.41979931640626,-3.8163576126098633,-0.811634361743927,-1.45806884765625
1765548763135809000,80.42980908203126,-4.027047157287598,-0.26575639843940735,-1.7142484188079834
1765548763175848200,80.46984814453126,-4.2090067863464355,1.1228805780410767,-1.6496049165725708
1765548763185857800,80.47985791015626,-4.618414878845215,0.8068459630012512,-1.6711528301239014
1765548763195837200,80.48983715820313,-4.867412090301514,0.15562310814857483,-1.778891921043396
1765548763205847000,80.49984692382813,-5.173870086669922,-0.1843535304069519,-1.9297266006469727
1765548763215795700,80.50979565429688,-5.410895824432373,-0.40940847992897034,-1.8555063009262085
1765548763225805300,80.51980541992188,-5.640739440917969,-0.5482721924781799,-1.8483237028121948
1765548763235815200,80.52981518554688,-5.851428985595703,-0.8355764150619507,-2.0374655723571777
1765548763245825000,80.53982495117188,-6.27280855178833,-0.8619126081466675,-2.4636335372924805
1765548763285772500,80.5797724609375,-6.66785192489624,-1.0773907899856567,-2.322375535964966
1765548763295782100,80.5897822265625,-6.744466304779053,-1.280897855758667,-2.207453966140747
1765548763305792000,80.5997919921875,-6.8593878746032715,-1.2976573705673218,-2.190694570541382
1765548763315771100,80.60977124023438,-6.931213855743408,-1.1180921792984009,-2.1332337856292725
1765548763325811500,80.6198115234375,-6.943184852600098,-0.7996633648872375,-2.346317768096924
1765548763335760100,80.62976000976562,-6.845022678375244,-0.8259995579719543,-2.580949544906616
1765548937309163500,254.60316357421874,-6.868964672088623,-2.099714994430542,-2.762908697128296
1765548937319003600,254.61300366210938,-4.333505153656006,0.2346317619085312,-1.1971008777618408
1765548937328782800,254.62278295898437,-0.47165772318840027,1.2521674633026123,-0.3064578175544739
1765548937348602400,254.6426022949219,-1.0965443849563599,1.1276689767837524,-0.40701428055763245
1765548937358612200,254.6526123046875,-1.1899182796478271,1.2114660739898682,-0.3878606855869293
1765548937378601200,254.67260131835937,-1.2401964664459229,1.0773907899856567,-0.912190854549408
1765548937388611000,254.68261108398437,-1.3431471586227417,1.2306196689605713,-1.0223240852355957
1765548937408630500,254.70263061523437,-1.357512354850769,1.216254472732544,-0.9744400978088379
1765548937428589000,254.72258911132812,-0.9313444495201111,1.5322890281677246,-0.8882488012313843
1765548937448608500,254.7426083984375,-0.17238251864910126,1.4413094520568848,-1.1516109704971313
1765548937458618400,254.75261840820312,-0.019153613597154617,1.0749965906143188,-1.1061211824417114
1765548937468567000,254.76256713867187,-0.0071826050989329815,0.9385270476341248,-0.9696516990661621
1765548937478577000,254.77257690429687,-0.181959331035614,0.7422025203704834,-0.8355764150619507
1765548937488586500,254.78258642578126,-0.3998316824436188,0.6177040338516235,-0.6560112833976746
1765548937498596400,254.79259643554687,-0.5386953949928284,0.6751648783683777,-0.30885201692581177
1765548937508575500,254.80257543945314,-0.608127236366272,0.8882488012313843,-0.2753331959247589
1765548937518585300,254.81258544921874,-0.5339069962501526,0.6512228846549988,-0.4357447028160095
1765548937548614700,254.84261474609374,-0.5051765441894531,1.094150185585022,-0.2801215946674347
1765548937568603600,254.86260375976562,-0.5674257874488831,1.2713210582733154,-0.3495534360408783
1765548937578583000,254.8725830078125,-0.6584054827690125,0.9409212470054626,-0.5722141861915588
1765548937588562200,254.88256225585937,-0.7134721279144287,0.608127236366272,-0.6703764796257019
1765548937608581600,254.90258154296876,-0.4908113479614258,1.139639973640442,-0.23702596127986908
1765548937628570600,254.92257055664064,-0.6224924325942993,1.5658079385757446,-0.4141969084739685
1765548937688568300,254.982568359375,-0.7134721279144287,2.5043349266052246,-0.4429273009300232
1765548937708587800,255.002587890625,-1.3670891523361206,3.205836057662964,-0.4644751250743866
1765548937728546300,255.02254638671874,-1.802833914756775,3.5003228187561035,-0.5291185975074768
1765548937738525400,255.032525390625,-2.049436569213867,3.6128504276275635,-0.6344634294509888
1765548937768554800,255.0625546875,-3.4787750244140625,3.1316158771514893,-2.070984363555908
1765548937778564600,255.07256469726562,-3.823540210723877,2.8562827110290527,-2.477998733520508
1765548937798553600,255.0925537109375,-3.8738183975219727,3.004723072052002,-2.875436305999756
1765548937808533000,255.10253295898437,-3.9671921730041504,3.2992098331451416,-2.983175277709961
1765548937818542600,255.11254248046876,-4.077325344085693,3.8594532012939453,-3.093308687210083
1765548937828522000,255.12252197265624,-4.1180267333984375,4.345476150512695,-3.157952070236206
1765548937838531600,255.13253149414064,-4.036623954772949,4.853046894073486,-3.308786630630493
1765548937848541400,255.14254150390624,-3.936067581176758,4.999093055725098,-3.423708438873291
1765548937868561000,255.16256079101564,-3.6320040225982666,4.458003520965576,-3.469198226928711
1765548937928619500,255.22261962890624,-3.2130186557769775,4.812345504760742,-2.8634653091430664
1765548937968567000,255.26256713867187,-3.050212860107422,5.408501625061035,-1.8291701078414917
1765548937998535400,255.29253540039062,-3.44765043258667,3.378218650817871,-2.123656988143921
1765548938068451000,255.362451171875,-2.9281086921691895,1.2641384601593018,-3.0334534645080566
1765548938108459500,255.40245947265626,-2.0039467811584473,-0.19393034279346466,-3.6822822093963623
1765548938118469400,255.41246948242187,-1.7812861204147339,-0.9552865028381348,-3.6152446269989014
1765548938128448800,255.42244873046874,-1.678335428237915,-1.5275006294250488,-3.4835634231567383
1765548938138488800,255.43248876953126,-1.5945383310317993,-2.360682964324951,-3.3063924312591553
1765548938148468200,255.44246826171874,-1.6496049165725708,-2.8131868839263916,-2.808398485183716
1765548938158508500,255.45250854492187,-1.235408067703247,-3.3063924312591553,-2.2649147510528564
1765548938168487700,255.46248779296874,-0.5027823448181152,-3.6822822093963623,-1.5131354331970215
1765548938198486500,255.49248657226562,0.3016694188117981,-4.9368438720703125,-0.811634361743927
1765548938218414600,255.51241455078124,0.2106897532939911,-5.348646640777588,-0.3734954595565796
1765548938228393700,255.52239379882812,0.5267243981361389,-5.683835029602051,-0.6153098344802856
1765548938268402200,255.5624020996094,0.7158663272857666,-5.245696067810059,-0.20350714027881622
1765548938288360700,255.58236059570314,1.0319008827209473,-5.286397457122803,-0.0933738648891449
1765548938298370600,255.59237060546874,1.2545616626739502,-5.2480902671813965,-0.12449848651885986
1765548938308380400,255.60238037109374,1.2473790645599365,-5.082890033721924,-0.26815059781074524
1765548938318390000,255.61239013671874,1.1683704853057861,-5.1331682205200195,-0.3687070608139038
1765548938328400000,255.62239990234374,1.3718775510787964,-5.020640850067139,-0.45010992884635925
1765548938338409500,255.63240942382814,1.644816517829895,-4.797980308532715,-0.49320554733276367
1765548938348419300,255.64241943359374,1.8626888990402222,-4.314351558685303,-0.3447650372982025
1765548938358429200,255.65242919921874,1.766920804977417,-4.034229755401611,-0.2346317619085312
1765548938368438800,255.66243872070314,1.6711528301239014,-3.974374771118164,-0.3232172429561615
1765548938408508400,255.70250830078126,1.5203180313110352,-4.750096321105957,0.181959331035614
1765548938418518300,255.71251831054687,1.7286136150360107,-5.200206279754639,0.49559974670410156
1765548938428527900,255.72252783203126,1.968033790588379,-5.463568210601807,0.8188169598579407
1765548938438537700,255.73253784179687,2.2242133617401123,-5.992686748504639,1.280897855758667
1765548938448547600,255.74254760742187,2.434903144836426,-6.308721542358398,1.946485996246338
1765548938458526700,255.75252661132814,2.846705913543701,-6.5912370681762695,2.389413356781006
1765548938468536600,255.76253662109374,3.1938650608062744,-6.658275127410889,2.6408045291900635
1765548938478577000,255.77257690429687,3.5218706130981445,-6.691793918609619,3.0142998695373535
1765548938488556000,255.78255615234374,3.4356794357299805,-6.584054470062256,3.248931646347046
1765548938508545000,255.802544921875,3.5625722408294678,-6.557718276977539,3.598485231399536
1765548938518555000,255.81255493164062,3.557783842086792,-6.885724067687988,3.490746021270752
1765548938528534000,255.8225339355469,3.5625722408294678,-6.981492042541504,3.2609026432037354
1765548938538543900,255.8325439453125,3.3518824577331543,-6.7708024978637695,3.1723172664642334
1765548938548553700,255.8425537109375,3.004723072052002,-6.576871871948242,2.9233202934265137
1765548938558593800,255.85259375,2.717418909072876,-6.4380083084106445,2.7054479122161865
1765548938568603600,255.86260375976562,2.540247917175293,-5.8442463874816895,2.427720546722412
1765548938578613500,255.87261352539062,2.252943754196167,-5.188235282897949,2.027888774871826
1765548938608612400,255.9026123046875,1.4844050407409668,-4.292803764343262,1.5083470344543457
1765548938628601300,255.92260131835937,1.5873557329177856,-3.60566782951355,0.6105214357376099
1765548938638611000,255.93261083984376,1.4437036514282227,-3.3686418533325195,0.4812345504760742
1765548938648620800,255.94262084960937,1.2306196689605713,-2.985569477081299,0.5434837937355042
1765548938658630700,255.95263061523437,1.1228805780410767,-2.2912509441375732,0.2968810200691223
1765548938668609800,255.96260986328124,1.1252747774124146,-1.680729627609253,0.2825157940387726
1765548938678619600,255.97261962890624,0.8140285611152649,-1.5538369417190552,0.10773907601833344
1765548938688598800,255.98259887695312,0.7493851184844971,-1.4676456451416016,0.0933738648891449
1765548938698608600,255.99260864257812,0.8092401623725891,-1.139639973640442,0.06224924325942993
1765548938738586600,256.0325866699219,0.44771572947502136,0.2968810200691223,0.12689268589019775
1765548938748596500,256.0425964355469,0.31842881441116333,0.5291185975074768,0.031124621629714966
1765548938758606000,256.0526062011719,0.07422025501728058,0.6751648783683777,-0.016759412363171577
1765548938768616000,256.0626159667969,-0.24660277366638184,0.8786720037460327,-0.12449848651885986
1765548938778625500,256.07262548828123,-0.5315127968788147,0.8140285611152649,-0.2968810200691223
1765548938788574500,256.08257446289065,-0.6320692300796509,0.6703764796257019,-0.24899697303771973
1765548938798553600,256.0925537109375,-0.6775590777397156,0.3232172429561615,-0.3711012601852417
1765548938818542600,256.11254248046873,-0.7661445140838623,-0.38067805767059326,-0.7948749661445618
1765548938838531600,256.1325314941406,-1.6663644313812256,-0.9361328482627869,-1.4508862495422363
1765548938848511000,256.14251098632815,-1.8962076902389526,-0.8643068075180054,-1.6831238269805908
1765548938858551300,256.1525512695313,-1.9800047874450684,-0.7158663272857666,-2.2194249629974365
1765548938868530400,256.16253051757815,-2.032677173614502,-0.3878606855869293,-2.937685489654541
1765548938878570800,256.1725708007813,-2.6168625354766846,0.16759411990642548,-3.485957622528076
1765548938888580600,256.1825805664063,-3.2992098331451416,0.7158663272857666,-3.7277719974517822
1765548938898590200,256.1925900878906,-3.6583402156829834,0.768538773059845,-3.3518824577331543
1765548938908600000,256.2026000976563,-3.7014358043670654,0.8020575642585754,-2.978386878967285
1765548938918609700,256.2126096191406,-3.428496837615967,0.6727706789970398,-2.920926094055176
1765548938928589000,256.22258911132815,-3.2345664501190186,0.6416460275650024,-3.043030261993408
1765548938938599000,256.23259887695315,-3.0813376903533936,0.689530074596405,-3.181894063949585
1765548938948608500,256.2426083984375,-2.9233202934265137,0.811634361743927,-3.5482068061828613
1765548938958588000,256.252587890625,-2.8419175148010254,1.0893617868423462,-3.663128614425659
1765548938968567000,256.2625671386719,-2.717418909072876,1.359906554222107,-3.4787750244140625
1765548938978577000,256.2725769042969,-2.604891538619995,1.5610195398330688,-3.4955344200134277
1765548938988586500,256.28258642578123,-2.360682964324951,1.802833914756775,-3.670311212539673
1765548938998596400,256.2925964355469,-2.0207061767578125,1.8962076902389526,-3.861847400665283
1765548939008606200,256.3026062011719,-1.9560627937316895,1.8626888990402222,-4.1874589920043945
1765548939038635500,256.3326354980469,-2.279279947280884,1.965639591217041,-5.257667064666748
1765548939058655000,256.3526550292969,-2.655169725418091,2.403778553009033,-6.086060523986816
1765548939068664800,256.3626647949219,-2.7724854946136475,2.408566951751709,-5.9088897705078125
1765548939078674400,256.37267431640623,-3.1435868740081787,2.166752576828003,-5.971138954162598
1765548939088623000,256.382623046875,-3.507505416870117,2.0614075660705566,-5.875370979309082
1765548939098633000,256.39263305664065,-3.5721490383148193,2.2385785579681396,-6.011840343475342
1765548939108642800,256.40264282226565,-3.7493197917938232,2.4372973442077637,-6.287173748016357
1765548939118652400,256.41265234375,-3.8738183975219727,2.695871114730835,-6.811503887176514
1765548939158661000,256.4526611328125,-4.54419469833374,2.207453966140747,-7.357381820678711
1765548939168670700,256.46267065429686,-4.72376012802124,1.659181833267212,-7.33583402633667
1765548939178650000,256.4726501464844,-4.824316501617432,1.1683704853057861,-7.393294811248779
1765548939188659700,256.48265966796873,-4.6471452713012695,0.9600749015808105,-7.615955829620361
1765548939198700000,256.49269995117186,-4.69024133682251,1.2856862545013428,-7.690176010131836
1765548939228699000,256.5226989746094,-4.434061527252197,2.0925323963165283,-7.24485445022583
1765548939248718300,256.54271826171873,-3.3470940589904785,2.470816135406494,-6.766014099121094
1765548939258728200,256.5527282714844,-3.0550012588500977,2.3127987384796143,-6.588842868804932
1765548939268707300,256.5627072753906,-3.00711727142334,1.6424223184585571,-6.418854713439941
1765548939278747600,256.57274755859373,-3.045424461364746,0.7445967197418213,-6.18182897567749
1765548939288757500,256.5827575683594,-3.1292216777801514,-0.15562310814857483,-5.995080947875977
1765548939298736600,256.5927365722656,-3.179499864578247,-0.49559974670410156,-6.36378812789917
1765548939308746500,256.6027465820313,-3.272873640060425,-0.5003881454467773,-6.768408298492432
1765548939318756400,256.6127563476563,-3.4620156288146973,-0.05027823522686958,-7.134721279144287
1765548939328766000,256.6227658691406,-3.818751811981201,0.7637503147125244,-7.2568254470825195
1765548939348785700,256.6427856445313,-4.642356872558594,1.8291701078414917,-7.319074630737305
1765548939358795300,256.6527951660156,-4.845864295959473,2.0829553604125977,-7.134721279144287
1765548939368774700,256.66277465820315,-4.458003520965576,1.7549498081207275,-6.737283706665039
1765548939378753800,256.67275390625,-3.9887399673461914,1.625662922859192,-6.354211330413818
1765548939388763600,256.682763671875,-3.713406801223755,1.5418659448623657,-6.368576526641846
1765548939398742800,256.69274267578123,-3.778050184249878,1.5083470344543457,-6.811503887176514
1765548939408722200,256.7027221679688,-4.046200752258301,1.6041151285171509,-7.122750282287598
1765548939418701300,256.71270141601565,-4.185064792633057,1.8986018896102905,-7.3669586181640625
1765548939428680700,256.7226806640625,-4.505887508392334,2.1045033931732178,-7.450755596160889
1765548939438720800,256.732720703125,-4.608838081359863,2.27209734916687,-7.196970462799072
1765548939468719600,256.7627197265625,-4.606443881988525,2.319981336593628,-6.3518171310424805
1765548939478729500,256.7727294921875,-4.486733913421631,2.183511972427368,-6.809109687805176
1765548939488708600,256.78270849609373,-4.687847137451172,2.557007312774658,-7.1490864753723145
1765548939498718500,256.7927185058594,-4.853046894073486,3.071760892868042,-7.393294811248779
1765548939508728000,256.80272802734373,-4.8937482833862305,3.4955344200134277,-7.311892032623291
1765548939518768400,256.81276831054686,-4.728548526763916,3.950432777404785,-7.015010833740234
1765548939528747800,256.8227478027344,-4.446032524108887,4.084507942199707,-6.746860504150391
1765548939538788000,256.8327880859375,-4.417302131652832,4.050989151000977,-6.785167694091797
1765548939568817400,256.8628173828125,-4.819528102874756,4.795586109161377,-6.763619899749756
1765548939578827000,256.87282690429686,-4.946420669555664,5.169081687927246,-6.464344501495361
1765548939588867300,256.88286743164065,-4.910507678985596,5.305551052093506,-5.9974751472473145
1765548939598877200,256.89287719726565,-5.027823448181152,5.190629482269287,-5.784391403198242
1765548939608856300,256.90285620117186,-5.152322292327881,5.018246650695801,-5.70777702331543
1765548939618866200,256.9128662109375,-5.135562419891357,5.0014872550964355,-5.647922039031982
1765548939628845300,256.92284521484373,-4.967968463897705,4.960785865783691,-5.537788391113281
1765548939638855200,256.9328552246094,-5.035006046295166,4.608838081359863,-5.700594425201416
1765548939668884500,256.9628845214844,-5.310339450836182,4.946420669555664,-6.327875137329102
1765548939678924800,256.9729248046875,-5.434837818145752,5.295974254608154,-6.607996463775635
1765548939688934400,256.98293432617186,-5.585672378540039,5.461174011230469,-6.72531270980835
1765548939698944300,256.9929443359375,-5.652710437774658,5.458779811859131,-6.854599475860596
1765548939708923400,257.00292333984373,-5.834669589996338,5.394136428833008,-6.799532890319824
1765548939718902800,257.0129028320313,-5.767632007598877,5.341464042663574,-6.825869083404541
1765548939728851500,257.0228515625,-5.5329999923706055,4.862623691558838,-6.9455790519714355
1765548939748932000,257.0429321289063,-5.2049946784973145,3.5027170181274414,-7.407660007476807
1765548939778961400,257.0729614257813,-4.357447147369385,1.3646949529647827,-7.615955829620361
1765548939788940500,257.0829404296875,-4.458003520965576,0.9624691009521484,-7.38132381439209
1765548939798950400,257.09295043945315,-4.4532151222229,0.7924807667732239,-7.398083209991455
1765548939808899000,257.1028991699219,-4.489128112792969,0.7230489253997803,-7.445967197418213
1765548939818909000,257.1129089355469,-4.299986362457275,0.4692635238170624,-7.29034423828125
1765548939828949200,257.12294921875,-3.8163576126098633,0.08379705995321274,-7.259219646453857
1765548939838989300,257.1329892578125,-3.7014358043670654,0.1364694982767105,-7.022193431854248
1765548939848999200,257.14299926757815,-3.375824451446533,0.15562310814857483,-6.787561893463135
1765548939859009000,257.15300903320315,-3.0310592651367188,-0.12928688526153564,-6.418854713439941
1765548939889007600,257.18300756835936,-2.7940332889556885,-0.9074024558067322,-6.121973514556885
1765548939899017500,257.193017578125,-2.382230758666992,-1.5322890281677246,-5.683835029602051
1765548939909027300,257.20302734375,-1.7262194156646729,-2.212242364883423,-5.228936672210693
1765548939919006500,257.21300634765623,-1.170764684677124,-2.140416383743286,-4.671087741851807
1765548939929016300,257.2230163574219,-0.6943184733390808,-2.0422539710998535,-4.410119533538818
1765548939939026000,257.23302587890623,-0.507570743560791,-2.1116859912872314,-3.9480385780334473
1765548939949005300,257.2430053710938,-0.646434485912323,-1.764526605606079,-3.44765043258667
1765548939959045600,257.2530456542969,-0.6799532771110535,-1.8363527059555054,-2.7892448902130127
1765548939989105400,257.28310546875,-0.3663128614425659,-2.470816135406494,-2.1547815799713135
1765548939999084500,257.29308447265623,-0.24420857429504395,-2.9759926795959473,-2.073378562927246
1765548940009033500,257.30303344726565,-0.06703764945268631,-3.339911460876465,-2.1068975925445557
1765548940019012600,257.3130126953125,-0.14604631066322327,-3.1938650608062744,-1.8291701078414917
1765548940029022500,257.3230224609375,-0.4141969084739685,-3.026270866394043,-1.7118542194366455
1765548940039032000,257.33303198242186,-0.5578489899635315,-2.75812029838562,-1.436521053314209
1765548940049042000,257.3430419921875,-0.44532153010368347,-2.3774423599243164,-1.3263877630233765
1765548940059051800,257.3530517578125,-0.49559974670410156,-2.126051187515259,-1.5394717454910278
1765548940089050400,257.38305029296873,-0.7613561153411865,-2.5450363159179688,-1.2258312702178955
1765548940099060200,257.3930603027344,-0.47644615173339844,-2.7102363109588623,-1.137245774269104
1765548940109070000,257.4030700683594,-0.14604631066322327,-3.1076738834381104,-1.1755530834197998
1765548940119079700,257.41307958984373,0.0933738648891449,-3.1268274784088135,-1.1324573755264282
1765548940129059000,257.4230590820313,0.15562310814857483,-3.1531636714935303,-1.1420341730117798
1765548940139068700,257.4330686035156,0.24660277366638184,-3.1962592601776123,-0.9409212470054626
1765548940149017600,257.443017578125,0.45250412821769714,-3.1890766620635986,-0.4213795065879822
1765548940159057700,257.4530576171875,0.6200982332229614,-3.56017804145813,-0.181959331035614
1765548940169067500,257.46306762695315,0.6009446382522583,-3.620033025741577,-0.0071826050989329815
1765548940219116300,257.5131162109375,0.47405192255973816,-4.146757125854492,0.395043283700943
1765548940229095700,257.523095703125,0.2082955539226532,-4.022258758544922,0.4213795065879822
1765548940239105300,257.53310522460936,0.15322890877723694,-3.6846764087677,0.40462008118629456
1765548940249115100,257.543115234375,0.36152446269989014,-3.7660791873931885,0.28730419278144836
1765548940259125000,257.553125,0.42616790533065796,-3.4404678344726562,0.38067805767059326
1765548940269134600,257.56313452148436,0.5410895943641663,-2.851494312286377,0.30885201692581177
1765548940279114000,257.5731140136719,0.4812345504760742,-2.8993782997131348,0.05027823522686958
1765548940309082000,257.60308203125,1.3910311460494995,-2.8155810832977295,-0.021547814831137657
1765548940319122400,257.6131223144531,1.5203180313110352,-2.8993782997131348,0.2082955539226532
1765548940329101800,257.62310180664065,1.5729905366897583,-2.9520506858825684,0.2849099934101105
1765548940339111400,257.633111328125,1.6400281190872192,-3.0885202884674072,0.507570743560791
1765548940349090800,257.6430908203125,1.6376339197158813,-3.138798475265503,0.42856210470199585
1765548940359100400,257.65310034179686,1.6400281190872192,-3.1459810733795166,0.43095630407333374
1765548940369079800,257.6630798339844,1.6208745241165161,-3.1100680828094482,0.33039984107017517
1765548940389099300,257.6830993652344,1.5969325304031372,-2.8826189041137695,0.2801215946674347
1765548940409088300,257.7030881347656,1.742978811264038,-2.451662540435791,0.2322375625371933
1765548940419098000,257.7130981445313,1.623268723487854,-2.1547815799713135,0.2298433631658554
1765548940429077200,257.7230771484375,1.256955862045288,-1.7286136150360107,-0.06224924325942993
1765548940439087000,257.73308715820315,0.8762778043746948,-1.5705963373184204,-0.28730419278144836
1765548940449097000,257.74309692382815,0.31124621629714966,-1.5442601442337036,-0.5099649429321289
1765548940459076000,257.753076171875,0.047884032130241394,-1.8387469053268433,-0.36152446269989014
1765548940469055200,257.76305517578123,0.19153612852096558,-1.941697597503662,-0.5674257874488831
1765548940479095600,257.77309545898436,0.27054479718208313,-2.094926595687866,-0.9217676520347595
1765548940489105400,257.78310546875,0.14604631066322327,-2.2816741466522217,-1.1875240802764893
1765548940529083400,257.8230834960938,-1.501164436340332,-2.142810583114624,-1.941697597503662
1765548940539093200,257.8330932617188,-1.7070658206939697,-1.968033790588379,-2.1499931812286377
1765548940549102800,257.8431027832031,-1.5418659448623657,-1.6615760326385498,-2.1954829692840576
1765548940559082200,257.85308227539065,-1.4053963422775269,-1.580173134803772,-2.492363929748535
1765548940569061400,257.86306127929686,-1.3455413579940796,-1.1013327836990356,-2.382230758666992
1765548940579071200,257.8730712890625,-1.0127472877502441,-0.6129156351089478,-2.188300371170044
1765548940589050400,257.88305029296873,-1.0582371950149536,-0.42377370595932007,-2.473210334777832
1765548940599060200,257.8930603027344,-1.359906554222107,0.06703764945268631,-2.7533318996429443
1765548940619079700,257.91307958984373,-2.382230758666992,-0.20111294090747833,-3.2752678394317627
1765548940629028600,257.92302856445315,-2.3558945655822754,-0.004788403399288654,-3.0621838569641113
1765548940639038200,257.9330380859375,-1.944091796875,-0.13168109953403473,-2.82515811920166
1765548940649017600,257.943017578125,-1.6280571222305298,-0.22266076505184174,-2.8658595085144043
1765548940659027200,257.95302709960936,-1.7764976024627686,-0.22026655077934265,-3.2824504375457764
1765548940669037000,257.963037109375,-1.9704279899597168,-0.14844051003456116,-3.397372245788574
1765548940679047000,257.973046875,-2.2242133617401123,-0.21787235140800476,-3.5482068061828613
1765548940689026000,257.9830261230469,-2.319981336593628,-0.7158663272857666,-4.034229755401611
1765548940719025000,258.0130249023438,-3.1675288677215576,-0.9959878921508789,-4.99669885635376
1765548940728943000,258.0229431152344,-3.251325845718384,-0.828393816947937,-5.3127336502075195
1765548940738922200,258.0329221191406,-3.4356794357299805,-0.17717093229293823,-5.485116004943848
1765548940748932000,258.0429321289063,-3.576937437057495,-0.10773907601833344,-5.523423194885254
1765548940758911200,258.0529111328125,-3.754108190536499,0.40222588181495667,-5.219359874725342
1765548940768890600,258.062890625,-3.890577793121338,0.5602431893348694,-4.987122058868408
1765548940778900200,258.07290014648436,-3.931279182434082,0.5506663918495178,-4.766855716705322
1765548940788849200,258.0828491210938,-3.756502389907837,0.3064578175544739,-4.687847137451172
1765548940798858800,258.0928586425781,-3.442862033843994,0.11013327538967133,-4.572925090789795
1765548940838806300,258.13280615234373,-3.5673606395721436,-0.08140286058187485,-4.656722068786621
1765548940848816000,258.1428161621094,-3.3231520652770996,0.33997663855552673,-4.788403511047363
1765548940858825700,258.15282568359373,-3.313575267791748,0.26096799969673157,-4.661510944366455
1765548940868835600,258.1628356933594,-3.4739866256713867,0.090979665517807,-4.513070106506348
1765548940878745300,258.1727453613281,-3.4524388313293457,-0.10055647045373917,-4.381389141082764
1765548940888724700,258.18272485351565,-3.265691041946411,-0.4884171485900879,-4.062960147857666
1765548940898704000,258.19270385742186,-2.786850690841675,-0.8427590131759644,-3.56017804145813
1765548940908713700,258.20271362304686,-2.2385785579681396,-0.6991068720817566,-3.0406360626220703
1765548940928641500,258.2226416015625,-1.6974890232086182,-0.5051765441894531,-3.098097085952759
1765548940938681900,258.2326818847656,-1.965639591217041,0.12449848651885986,-3.112462282180786
1765548940948691700,258.2426916503906,-2.3271639347076416,0.7206547260284424,-3.2824504375457764
1765548940958701300,258.2527014160156,-2.6408045291900635,1.0414776802062988,-3.466804027557373
1765548940968711200,258.2627111816406,-2.7557260990142822,1.4101848602294922,-3.490746021270752
1765548940988639200,258.28263916015624,-2.6815059185028076,1.6927006244659424,-3.31118106842041
1765548940998648800,258.29264892578124,-2.717418909072876,1.6400281190872192,-3.248931646347046
1765548941028678100,258.32267822265624,-2.319981336593628,1.6065093278884888,-4.077325344085693
1765548941038657500,258.3326574707031,-2.542642116546631,2.209848165512085,-4.259284973144531
1765548941048697900,258.34269775390624,-3.0095114707946777,2.8227639198303223,-4.271255970001221
1765548941058677000,258.3526770019531,-3.7493197917938232,3.4572272300720215,-4.247313976287842
1765548941078696400,258.3726965332031,-4.3622355461120605,3.6966474056243896,-3.9480385780334473
1765548941088675800,258.38267578125,-3.976768970489502,3.797203779220581,-3.88818359375
1765548941098655000,258.39265502929686,-3.5458126068115234,3.6822822093963623,-3.955221176147461
1765548941108664800,258.40266479492186,-3.222595453262329,3.7708675861358643,-3.9456443786621094
1765548941138694100,258.43269409179686,-3.794809579849243,4.077325344085693,-5.102043628692627
1765548941148673300,258.44267333984374,-4.000710964202881,4.54419469833374,-5.140350818634033
1765548941158713600,258.45271362304686,-3.976768970489502,5.0469770431518555,-4.922478675842285
1765548941168723500,258.46272338867186,-4.036623954772949,5.578489780426025,-4.855441093444824
1765548941198691600,258.4926916503906,-4.086902141571045,6.337451934814453,-4.534617900848389
1765548941208701400,258.5027014160156,-4.256890773773193,6.291962146759033,-4.417302131652832
1765548941218711300,258.5127111816406,-4.517858505249023,6.107608318328857,-4.163516521453857
1765548941248679400,258.54267944335936,-4.185064792633057,5.3582234382629395,-3.1531636714935303
1765548941258658800,258.5526589355469,-3.97916316986084,4.855441093444824,-3.0861260890960693
1765548941268668400,258.56266845703124,-3.9264907836914062,4.6734819412231445,-3.0621838569641113
1765548941288657400,258.5826574707031,-3.971980571746826,4.987122058868408,-2.8371291160583496
1765548941298636800,258.59263671875,-4.065354347229004,5.04218864440918,-2.583343744277954
1765548941308616000,258.60261596679686,-3.8570590019226074,5.008669853210449,-2.564189910888672
1765548941318656300,258.61265625,-3.4979286193847656,5.147533416748047,-2.5689783096313477
1765548941338614800,258.63261474609374,-2.9735984802246094,4.8482584953308105,-2.760514497756958
1765548941348594000,258.6425939941406,-2.8778305053710938,4.663905143737793,-2.940079689025879
1765548941358573300,258.6525732421875,-2.980781078338623,3.993528366088867,-3.112462282180786
1765548941368552400,258.66255249023436,-3.220201253890991,3.24414324760437,-3.2848446369171143
1765548941378562300,258.67256225585936,-3.514688014984131,2.9017724990844727,-3.0597896575927734
1765548941388572200,258.682572265625,-3.4572272300720215,2.4444799423217773,-2.75812029838562
1765548941398551300,258.69255126953124,-3.4380736351013184,2.011129379272461,-2.650381326675415
1765548941418540300,258.7125402832031,-2.868253707885742,1.1180921792984009,-2.4181437492370605
1765548941428550100,258.7225500488281,-2.6791117191314697,0.5219359993934631,-2.434903144836426
