time,seconds_elapsed,z,y,x
1765548681415124700,-1.290875244140625,-0.01466076634824276,-0.03420845419168472,-0.045204028487205505
1765548681465112600,-1.240887451171875,0.030543262138962746,0.06841690838336945,-0.04153883829712868
1765548681475122400,-1.230877685546875,-0.05864306539297104,0.0708603709936142,-0.0012217304902151227
1765548681485132000,-1.220867919921875,-0.01466076634824276,0.06352998316287994,0.0354301854968071
1765548681495111400,-1.210888671875,-0.013439035043120384,0.030543262138962746,0.1820378452539444
1765548681505121000,-1.20087890625,0.01710422709584236,0.010995574295520782,0.23579397797584534
1765548681515131000,-1.190869140625,0.015882495790719986,0.004886921960860491,0.04398229718208313
1765548681545221000,-1.16077880859375,0.004886921960860491,0.0024434609804302454,-0.042760565876960754
1765548681555231000,-1.15076904296875,0,0.0024434609804302454,-0.00366519158706069
1765548681565240800,-1.14075927734375,-0.02687807008624077,0.009773843921720982,0.009773843921720982
1765548681575250400,-1.13074951171875,-0.05619960278272629,0.015882495790719986,-0.02687807008624077
1765548681585260300,-1.12073974609375,-0.05497787147760391,0.00855211354792118,-0.06230825558304787
1765548681595239400,-1.110760498046875,-0.03420845419168472,-0.00733038317412138,-0.0403171069920063
1765548681605279700,-1.10072021484375,-0.03176499158143997,-0.024434609338641167,-0.0012217304902151227
1765548681615259100,-1.090740966796875,-0.04153883829712868,-0.025656340643763542,0.00366519158706069
1765548681625268700,-1.080731201171875,-0.04642575979232788,-0.024434609338641167,0.00366519158706069
1765548681665277400,-1.04072265625,-0.030543262138962746,-0.015882495790719986,0.0659734457731247
1765548681675256600,-1.030743408203125,-0.021991148591041565,-0.01710422709584236,0.05375614017248154
1765548681685297000,-1.020703125,-0.025656340643763542,-0.015882495790719986,0.04764748737215996
1765548681695306800,-1.010693359375,-0.045204028487205505,-0.004886921960860491,0.04886921867728233
1765548681705286000,-1.000714111328125,-0.06108652427792549,0.009773843921720982,0.06475171446800232
1765548681715265300,-0.990734619140625,-0.06719517707824707,0.00855211354792118,0.0708603709936142
1765548681735284700,-0.97071533203125,-0.059864792972803116,-0.010995574295520782,0.04642575979232788
1765548681765283600,-0.94071630859375,-0.03176499158143997,-0.00733038317412138,0.01466076634824276
1765548681775293200,-0.930706787109375,-0.028099801391363144,-0.0024434609804302454,0.01710422709584236
1765548681785303000,-0.920697021484375,-0.021991148591041565,-0.0024434609804302454,0.028099801391363144
1765548681795313000,-0.91068701171875,-0.006108652334660292,-0.00366519158706069,0.04153883829712868
1765548681805292000,-0.9007080078125,0,-0.00733038317412138,0.05375614017248154
1765548681815271200,-0.890728759765625,-0.010995574295520782,-0.0024434609804302454,0.04398229718208313
1765548681825281000,-0.880718994140625,-0.021991148591041565,0.00733038317412138,0.03420845419168472
1765548681835260200,-0.87073974609375,-0.02687807008624077,0.004886921960860491,0.030543262138962746
1765548681865289500,-0.84071044921875,-0.039095375686883926,-0.01710422709584236,-0.012217304669320583
1765548681875268900,-0.830731201171875,-0.0403171069920063,-0.02076941914856434,-0.02932153269648552
1765548681885278500,-0.820721435546875,-0.03420845419168472,-0.021991148591041565,-0.04153883829712868
1765548681905237000,-0.800762939453125,-0.021991148591041565,-0.03176499158143997,-0.02321287989616394
1765548681915246800,-0.790753173828125,-0.02321287989616394,-0.03176499158143997,-0.01710422709584236
1765548681925256700,-0.780743408203125,-0.012217304669320583,-0.01710422709584236,-0.013439035043120384
1765548681935266300,-0.770733642578125,-0.0024434609804302454,-0.013439035043120384,-0.00855211354792118
1765548681945276200,-0.760723876953125,-0.0024434609804302454,-0.012217304669320583,0
1765548681975305500,-0.730694580078125,-0.00855211354792118,0,-0.010995574295520782
1765548681985315300,-0.7206845703125,-0.004886921960860491,-0.00366519158706069,-0.019547687843441963
1765548681995264000,-0.710736083984375,-0.0012217304902151227,-0.004886921960860491,-0.030543262138962746
1765548682005304300,-0.70069580078125,0.012217304669320583,-0.0024434609804302454,-0.02687807008624077
1765548682015314000,-0.69068603515625,0.01710422709584236,-0.0012217304902151227,-0.024434609338641167
1765548682025293300,-0.680706787109375,0.01710422709584236,-0.0012217304902151227,-0.024434609338641167
1765548682035303000,-0.670697021484375,0.012217304669320583,-0.00366519158706069,-0.021991148591041565
1765548682045312800,-0.660687255859375,0.009773843921720982,-0.00366519158706069,-0.01466076634824276
1765548682055322600,-0.650677490234375,0.013439035043120384,0,0.0012217304902151227
1765548682075342000,-0.630657958984375,0.01466076634824276,-0.0024434609804302454,0.019547687843441963
1765548682085352000,-0.62064794921875,0.00855211354792118,-0.0012217304902151227,-0.0024434609804302454
1765548682095331000,-0.6106689453125,0.00366519158706069,-0.0024434609804302454,-0.028099801391363144
1765548682105341000,-0.6006591796875,0.004886921960860491,-0.004886921960860491,-0.042760565876960754
1765548682115350500,-0.5906494140625,0.009773843921720982,-0.0012217304902151227,-0.05375614017248154
1765548682125421300,-0.58057861328125,0.015882495790719986,0,-0.06963863968849182
1765548682145441000,-0.56055908203125,0.00366519158706069,0.00855211354792118,-0.11850785464048386
1765548682155481300,-0.5505185546875,0.00366519158706069,0.006108652334660292,-0.09651670604944229
1765548682165491000,-0.540509033203125,0.00366519158706069,0.006108652334660292,-0.09651670604944229
1765548682175500800,-0.530499267578125,0.00366519158706069,0.00733038317412138,-0.07452555745840073
1765548682195550700,-0.51044921875,0.036651913076639175,-0.0012217304902151227,-0.05497787147760391
1765548682205560600,-0.500439453125,0.03176499158143997,-0.006108652334660292,-0.05253441259264946
1765548682215539700,-0.490460205078125,0.021991148591041565,-0.00855211354792118,-0.04153883829712868
1765548682225580000,-0.480419921875,0.013439035043120384,-0.015882495790719986,-0.024434609338641167
1765548682235559400,-0.470440673828125,0.012217304669320583,-0.024434609338641167,-0.0012217304902151227
1765548682245569000,-0.460430908203125,0.00855211354792118,-0.030543262138962746,0.013439035043120384
1765548682255579000,-0.450421142578125,0.00366519158706069,-0.030543262138962746,0.00855211354792118
1765548682265588700,-0.440411376953125,0.00733038317412138,-0.03298672288656235,-0.006108652334660292
1765548682285608200,-0.420391845703125,0.012217304669320583,-0.036651913076639175,-0.02687807008624077
1765548682295618000,-0.4103818359375,0.006108652334660292,-0.039095375686883926,-0.039095375686883926
1765548682305658000,-0.400341796875,0,-0.03420845419168472,-0.05497787147760391
1765548682315668000,-0.39033203125,0.00366519158706069,-0.03298672288656235,-0.06475171446800232
1765548682325677800,-0.380322265625,0.010995574295520782,-0.03176499158143997,-0.07330382615327835
1765548682335657000,-0.370343017578125,0.019547687843441963,-0.028099801391363144,-0.08674286305904388
1765548682345666800,-0.360333251953125,0.025656340643763542,-0.02321287989616394,-0.09529497474431992
1765548682365686300,-0.340313720703125,0.02321287989616394,0.028099801391363144,-0.08552113175392151
1765548682375665700,-0.330334228515625,0.02076941914856434,0.0354301854968071,-0.08796459436416626
1765548682405695000,-0.300304931640625,-0.030543262138962746,-0.009773843921720982,-0.2480112910270691
1765548682415704600,-0.29029541015625,-0.04886921867728233,-0.08429940044879913,-0.2480112910270691
1765548682425714400,-0.28028564453125,0.02076941914856434,-0.1270599663257599,-0.24190263450145721
1765548682435724000,-0.27027587890625,-0.028099801391363144,-0.13439035415649414,-0.21380282938480377
1765548682445703400,-0.260296630859375,0.01466076634824276,-0.12095131725072861,-0.12828169763088226
1765548682455682600,-0.2503173828125,0.04153883829712868,-0.14294247329235077,-0.03298672288656235
1765548682465692400,-0.2403076171875,0.06841690838336945,-0.16493362188339233,-0.02076941914856434
1765548682475702300,-0.230297607421875,0.08307767659425735,-0.16982053220272064,-0.08796459436416626
1765548682505731600,-0.200268310546875,0.1014036312699318,-0.13072516024112701,-0.15515977144241333
1765548682515710700,-0.190289306640625,0.13072516024112701,-0.11850785464048386,-0.17470745742321014
1765548682525751000,-0.1802490234375,0.14049901068210602,-0.09651670604944229,-0.1771509200334549
1765548682535761000,-0.170239013671875,0.15760323405265808,-0.08796459436416626,-0.1514945775270462
1765548682545770500,-0.1602294921875,0.1869247704744339,-0.09896016865968704,-0.1514945775270462
1765548682555780400,-0.1502197265625,0.20525072515010834,-0.11239920556545258,-0.1869247704744339
1765548682565790000,-0.1402099609375,0.22846360504627228,-0.13316862285137177,-0.2541199326515198
1765548682575799800,-0.1302001953125,0.27122417092323303,-0.1563815027475357,-0.3335324227809906
1765548682585809700,-0.1201904296875,0.31154128909111023,-0.1820378452539444,-0.4434881806373596
1765548682625787600,-0.08021240234375,0.49235737323760986,-0.2125810980796814,-0.9272934198379517
1765548682635766800,-0.070233154296875,0.4862487316131592,-0.2064724564552307,-0.911410927772522
1765548682645776600,-0.060223388671875,0.5180137157440186,-0.22846360504627228,-0.8613200187683105
1765548682655786500,-0.050213623046875,0.5656611919403076,-0.24923302233219147,-0.8576548099517822
1765548682675806000,-0.030194091796875,0.598647952079773,-0.2724458873271942,-1.009149432182312
1765548682685815800,-0.02018408203125,0.618195652961731,-0.27122417092323303,-1.0494664907455444
1765548682715784000,0.009783935546875,0.5595525503158569,-0.19914206862449646,-0.9712757468223572
1765548682725763300,0.019763427734375,0.5473352670669556,-0.1612684279680252,-0.8967501521110535
1765548682735742500,0.029742431640625,0.5424483418464661,-0.12339477986097336,-0.8454375267028809
1765548682745752300,0.03975244140625,0.5229006409645081,-0.0806342139840126,-0.8307767510414124
1765548682755762000,0.049761962890625,0.5094616413116455,-0.06230825558304787,-0.827111542224884
1765548682765771800,0.059771728515625,0.5167919993400574,-0.06841690838336945,-0.8442157506942749
1765548682775751000,0.0697509765625,0.5326744914054871,-0.09040805697441101,-0.8857545852661133
1765548682785791200,0.079791259765625,0.5754350423812866,-0.13927727937698364,-0.9321803450584412
1765548682795770600,0.0897705078125,0.5668829679489136,-0.24556782841682434,-1.1887437105178833
1765548682845849900,0.139849853515625,0.7086036801338196,-0.28955012559890747,-1.4037683010101318
1765548682855859700,0.149859619140625,0.5827654600143433,-0.2981022298336029,-1.5210545063018799
1765548682865869300,0.159869384765625,0.6487388610839844,-0.3237585723400116,-1.4257594347000122
1765548682875848700,0.1698486328125,0.769690215587616,-0.3433062732219696,-1.2119566202163696
1765548682885827800,0.179827880859375,0.6218608021736145,-0.3591887652873993,-1.1948524713516235
1765548682895807200,0.18980712890625,0.4691445231437683,-0.4105014503002167,-1.1484266519546509
1765548682905816800,0.19981689453125,0.5375614166259766,-0.43615779280662537,-0.9651671051979065
1765548682925805800,0.219805908203125,0.46670106053352356,-0.41172316670417786,-0.9468411207199097
1765548682935785200,0.22978515625,0.3604104816913605,-0.3982841372489929,-0.9957103729248047
1765548682945795000,0.239795166015625,0.375071257352829,-0.4105014503002167,-0.9553932547569275
1765548682955774200,0.249774169921875,0.4092797040939331,-0.42271876335144043,-0.9492846131324768
1765548682965814500,0.259814453125,0.39706242084503174,-0.4153883755207062,-1.0506882667541504
1765548682975793700,0.269793701171875,0.37140607833862305,-0.4092797040939331,-1.1814134120941162
1765548682985803500,0.279803466796875,0.3689626157283783,-0.4105014503002167,-1.2974777221679688
1765548682995782700,0.28978271484375,0.3738495409488678,-0.4288274049758911,-1.4049900770187378
1765548683005792500,0.29979248046875,0.3799581825733185,-0.45326200127601624,-1.4819591045379639
1765548683015802400,0.30980224609375,0.39095374941825867,-0.4813618063926697,-1.5344934463500977
1765548683035791400,0.329791259765625,0.3995058834552765,-0.5412266254425049,-1.5430456399917603
1765548683045801000,0.339801025390625,0.40072759985923767,-0.5803219676017761,-1.5369369983673096
1765548683055780400,0.3497802734375,0.40194934606552124,-0.6145304441452026,-1.5625933408737183
1765548683065790000,0.3597900390625,0.4056145250797272,-0.6401867866516113,-1.6273449659347534
1765548683075799800,0.3697998046875,0.4300491213798523,-0.6695083379745483,-1.7055357694625854
1765548683085809700,0.3798095703125,0.4251621961593628,-0.7012733221054077,-1.7751743793487549
1765548683095788800,0.389788818359375,0.3885102868080139,-0.7464773058891296,-1.8118263483047485
1765548683105829000,0.3998291015625,0.3579670190811157,-0.8026769161224365,-1.7556266784667969
1765548683115808300,0.409808349609375,0.36163222789764404,-0.8552113175392151,-1.6139060258865356
1765548683135858400,0.4298583984375,0.3689626157283783,-0.8784242272377014,-1.340238332748413
1765548683155847400,0.449847412109375,0.28466320037841797,-0.7904596328735352,-1.0751228332519531
1765548683165887700,0.4598876953125,0.2785545587539673,-0.7476990818977356,-0.9480628371238708
1765548683175867000,0.469866943359375,0.2773328125476837,-0.7073819637298584,-0.836885392665863
1765548683185907200,0.4799072265625,0.27000242471694946,-0.6792821288108826,-0.7293730974197388
1765548683195917000,0.4899169921875,0.2541199326515198,-0.6414085030555725,-0.6475171446800232
1765548683205927000,0.499927001953125,0.24190263450145721,-0.5876523852348328,-0.5949827432632446
1765548683215906000,0.509906005859375,0.23579397797584534,-0.5424483418464661,-0.5558874011039734
1765548683225916000,0.519916015625,0.21868975460529327,-0.49724429845809937,-0.513126790523529
1765548683235925500,0.529925537109375,0.20402899384498596,-0.44593164324760437,-0.4642575979232788
1765548683255884000,0.549884033203125,0.18570303916931152,-0.3543018400669098,-0.36651915311813354
1765548683265894000,0.559893798828125,0.18325957655906677,-0.30543261766433716,-0.34208452701568604
1765548683275873000,0.569873046875,0.18081611394882202,-0.26511552929878235,-0.3640756905078888
1765548683285913300,0.579913330078125,0.17592918872833252,-0.2321287989616394,-0.4129449129104614
1765548683295892500,0.589892578125,0.15393804013729095,-0.20525072515010834,-0.46181413531303406
1765548683305902300,0.59990234375,0.12095131725072861,-0.19058994948863983,-0.4544837474822998
1765548683315912200,0.609912109375,0.1062905490398407,-0.1869247704744339,-0.41172316670417786
1765548683325921800,0.619921875,0.09285151958465576,-0.20036379992961884,-0.375071257352829
1765548683335901200,0.629901123046875,0.07452555745840073,-0.2321287989616394,-0.394618958234787
1765548683345941500,0.63994140625,0.06841690838336945,-0.2736676335334778,-0.47769662737846375
1765548683365930500,0.659930419921875,0.07330382615327835,-0.32986724376678467,-0.6120869517326355
1765548683385950000,0.679949951171875,0.09529497474431992,-0.4715879559516907,-0.9578366875648499
1765548683425958400,0.71995849609375,0.0012217304902151227,-0.8161159753799438,-1.3964380025863647
1765548683445947600,0.73994775390625,-0.01466076634824276,-0.9541715383529663,-1.6297885179519653
1765548683455987700,0.74998779296875,-0.025656340643763542,-0.9957103729248047,-1.7690657377243042
1765548683486078200,0.780078125,-0.09040805697441101,-1.0604621171951294,-1.882686734199524
1765548683526025700,0.820025634765625,-0.1014036312699318,-1.0592403411865234,-2.107485055923462
1765548683586053600,0.8800537109375,0.0354301854968071,-0.7733554244041443,-2.3347270488739014
1765548683596033000,0.890032958984375,0.04764748737215996,-0.7159340381622314,-2.241875410079956
1765548683626092800,0.9200927734375,-0.039095375686883926,-0.48380526900291443,-1.9999728202819824
1765548683636102700,0.9301025390625,-0.06352998316287994,-0.39706242084503174,-1.9425514936447144
1765548683726068500,1.020068359375,-0.07819075137376785,0.3579670190811157,-0.9101892113685608
1765548683746057500,1.040057373046875,-0.06963863968849182,0.4129449129104614,-0.6401867866516113
1765548683756067000,1.050067138671875,-0.08185594528913498,0.43127086758613586,-0.5253441333770752
1765548683766077000,1.060076904296875,-0.1014036312699318,0.4495968222618103,-0.4080579876899719
1765548683786127000,1.080127197265625,-0.1111774742603302,0.46792277693748474,-0.05864306539297104
1765548683796106200,1.090106201171875,-0.13561208546161652,0.4789183437824249,0.08796459436416626
1765548683816125700,1.110125732421875,-0.22968533635139465,0.4801400899887085,0.15760323405265808
1765548683826105000,1.12010498046875,-0.22968533635139465,0.4740314185619354,0.14294247329235077
1765548683836114700,1.13011474609375,-0.23335053026676178,0.45814892649650574,0.09896016865968704
1765548683846124500,1.14012451171875,-0.24068090319633484,0.4398229718208313,0.05009094998240471
1765548683856134400,1.150134521484375,-0.24068090319633484,0.42760565876960754,0.03298672288656235
1765548683866174500,1.160174560546875,-0.24190263450145721,0.42149701714515686,0.05253441259264946
1765548683876153900,1.17015380859375,-0.2431243658065796,0.42760565876960754,0.10262536257505417
1765548705253889800,22.547889892578127,-0.09162978827953339,0.4337143301963806,0.024434609338641167
1765548705263699500,22.557699462890625,0.13439035415649414,-0.03298672288656235,-0.47769662737846375
1765548705273378800,22.56737890625,0.19303341209888458,-0.05864306539297104,0.1661553531885147
1765548705283219200,22.57721923828125,-0.02932153269648552,0.05619960278272629,0.5143485069274902
1765548705313048300,22.60704833984375,-0.8100073337554932,0.24923302233219147,0.2932153046131134
1765548705323058200,22.61705810546875,-0.789237916469574,0.2626720666885376,0.32498031854629517
1765548705333006800,22.6270068359375,-0.7831292152404785,0.27122417092323303,0.3127630054950714
1765548705343047200,22.637047119140625,-0.7476990818977356,0.2822197377681732,0.28099802136421204
1765548705352995800,22.646995849609375,-0.6963863968849182,0.29077184200286865,0.24068090319633484
1765548705363005700,22.657005615234375,-0.6572909951210022,0.28955012559890747,0.19425514340400696
1765548705392973800,22.686973876953125,-0.6389650702476501,0.37262779474258423,0.06841690838336945
1765548705452971500,22.746971435546875,-0.7855727076530457,0.7929030656814575,0.384845107793808
1765548705472991000,22.766990966796875,-0.7037167549133301,0.7195992469787598,0.2883284091949463
1765548705552977700,22.846977783203126,-0.5082398653030396,0.21868975460529327,0.29077184200286865
1765548705563018000,22.85701806640625,-0.4715879559516907,0.16004669666290283,0.32131510972976685
1765548705572936200,22.866936279296876,-0.4153883755207062,0.1111774742603302,0.35674530267715454
1765548705592986000,22.886986083984375,-0.32986724376678467,0.04764748737215996,0.4141666293144226
1765548705602965500,22.896965576171876,-0.29077184200286865,0.02932153269648552,0.43737950921058655
1765548705612944600,22.906944580078125,-0.2577851414680481,0.021991148591041565,0.45814892649650574
1765548705622954500,22.91695458984375,-0.23945917189121246,0.018325956538319588,0.46303585171699524
1765548705632964000,22.926964111328125,-0.2321287989616394,0.021991148591041565,0.48258355259895325
1765548705642943500,22.936943603515626,-0.21624629199504852,0.013439035043120384,0.5265658497810364
1765548705652953000,22.946953125,-0.2064724564552307,0,0.5351179838180542
1765548705662963000,22.956962890625,-0.19914206862449646,-0.015882495790719986,0.5057964324951172
1765548705672942000,22.966942138671875,-0.19058994948863983,-0.04398229718208313,0.46670106053352356
1765548705682921500,22.97692138671875,-0.17470745742321014,-0.07208210229873657,0.40194934606552124
1765548705702941000,22.99694091796875,-0.14905111491680145,-0.11239920556545258,0.23457226157188416
1765548705722960400,23.01696044921875,-0.1270599663257599,-0.10873401165008545,0.22479841113090515
1765548705752959200,23.046959228515625,-0.13072516024112701,-0.09896016865968704,0.09529497474431992
1765548705762999600,23.05699951171875,-0.12217304855585098,-0.09896016865968704,-0.018325956538319588
1765548705772978700,23.066978759765625,-0.10751228034496307,-0.09896016865968704,-0.16493362188339233
1765548705782988500,23.076988525390625,-0.09040805697441101,-0.10262536257505417,-0.3396410644054413
1765548705802977500,23.0969775390625,-0.00733038317412138,-0.1319468915462494,-0.750142514705658
1765548705812987400,23.1069873046875,0.06475171446800232,-0.1612684279680252,-0.9419541954994202
1765548705822966500,23.116966552734375,0.1514945775270462,-0.21502456068992615,-1.1508700847625732
1765548705832946000,23.12694580078125,0.24678955972194672,-0.2883284091949463,-1.4379768371582031
1765548705842955500,23.13695556640625,0.3579670190811157,-0.3897320330142975,-1.8362609148025513
1765548705852935000,23.146934814453125,0.48258355259895325,-0.5143485069274902,-2.348165988922119
1765548705862944500,23.156944580078125,0.6145304441452026,-0.6487388610839844,-2.9358184337615967
1765548705872924000,23.166923828125,0.7452555894851685,-0.7709119319915771,-3.514918565750122
1765548705882964200,23.176964111328125,0.7452555894851685,-0.7709119319915771,-3.514918565750122
1765548705892973800,23.186973876953125,0.8833111524581909,-0.8784242272377014,-4.006054401397705
1765548705912932400,23.206932373046875,1.1606439352035522,-1.0531316995620728,-4.675562381744385
1765548705932921300,23.22692138671875,1.389107584953308,-1.1630873680114746,-4.978551864624023
1765548705942931200,23.23693115234375,1.4966198205947876,-1.1948524713516235,-4.972443103790283
1765548705952941000,23.246941162109376,1.6297885179519653,-1.2082914113998413,-4.879591464996338
1765548705962950700,23.25695068359375,1.7910568714141846,-1.2046263217926025,-4.767192363739014
1765548705972930000,23.266929931640625,1.9657644033432007,-1.1826350688934326,-4.6914448738098145
1765548705982939600,23.276939697265625,2.1478021144866943,-1.1398745775222778,-4.6718974113464355
1765548705992919000,23.2869189453125,2.3359487056732178,-1.0824532508850098,-4.703662395477295
1765548706002928600,23.2969287109375,2.539977788925171,-1.0103710889816284,-4.765970706939697
1765548706092955600,23.38695556640625,4.348138809204102,0.455705463886261,-3.3316590785980225
1765548706102965500,23.396965576171876,4.42755126953125,0.6768386960029602,-3.093421697616577
1765548706122954500,23.41695458984375,4.489859580993652,1.1117748022079468,-2.6560420989990234
1765548706132964000,23.426964111328125,4.533842086791992,1.281595230102539,-2.598620653152466
1765548706142974000,23.436973876953125,4.586376190185547,1.4086552858352661,-2.643824815750122
1765548706152983800,23.44698388671875,4.5631632804870605,1.508837103843689,-2.7171285152435303
1765548706162963000,23.456962890625,4.458094596862793,1.6187928915023804,-2.648711681365967
1765548706172911600,23.46691162109375,4.324925899505615,1.7275269031524658,-2.337170362472534
1765548706182921500,23.47692138671875,4.065918922424316,1.7873916625976562,-1.9511035680770874
1765548706192870100,23.4868701171875,3.6725218296051025,1.8118263483047485,-1.6823228597640991
1765548706202941000,23.49694091796875,3.2754595279693604,1.7873916625976562,-1.5711454153060913
1765548706232939800,23.526939697265625,2.230879783630371,1.557706356048584,-1.510058879852295
1765548706242949600,23.53694970703125,1.901012659072876,1.4880677461624146,-1.5418238639831543
1765548706252898300,23.546898193359375,1.6236798763275146,1.3866641521453857,-1.6420058012008667
1765548706262877400,23.55687744140625,1.4404202699661255,1.2583824396133423,-1.712866187095642
1765548706272826000,23.566826171875,1.3145819902420044,1.156978726387024,-1.712866187095642
1765548706282866400,23.576866455078125,1.2315043210983276,1.0946705341339111,-1.7263051271438599
1765548706292876300,23.586876220703125,1.1826350688934326,1.0421360731124878,-1.8020524978637695
1765548706302886100,23.59688623046875,1.1557570695877075,0.9957103729248047,-1.93766450881958
1765548706342925000,23.636925048828125,0.7782423496246338,0.2125810980796814,-3.3035593032836914
1765548706362944500,23.656944580078125,0.3530801236629486,-0.26022860407829285,-3.590665817260742
1765548706372954400,23.666954345703125,0.31154128909111023,-0.34086281061172485,-3.232698917388916
1765548706382964200,23.676964111328125,0.3677408695220947,-0.3640756905078888,-2.83074951171875
1765548706402983700,23.696983642578125,0.2223549485206604,-0.4056145250797272,-2.2101104259490967
1765548706412902000,23.70690185546875,0.1661553531885147,-0.3579670190811157,-2.2174408435821533
1765548706442931200,23.73693115234375,0.37751471996307373,0.025656340643763542,-2.883283853530884
1765548706482939600,23.776939697265625,0.8820894360542297,0.18570303916931152,-1.4844025373458862
1765548706523009300,23.81700927734375,0.8600982427597046,0.4178318381309509,-1.4880677461624146
1765548706542998300,23.836998291015625,0.8319984674453735,0.5827654600143433,-0.93095862865448
1765548706552977700,23.846977783203126,0.7428121566772461,0.6230825781822205,-0.8002334833145142
1765548706562987300,23.8569873046875,0.636521577835083,0.7012733221054077,-0.6096435189247131
1765548706572997000,23.8669970703125,0.5815436840057373,0.66584312915802,-0.24678955972194672
1765548706583007000,23.877007080078126,0.513126790523529,0.6279694437980652,0.19914206862449646
1765548706602996000,23.896995849609375,0.14538592100143433,0.5717698931694031,0.3738495409488678
1765548706613005600,23.907005615234375,0.0757472887635231,0.5351179838180542,0.1722639948129654
1765548706623015400,23.917015380859375,0.09040805697441101,0.5070181488990784,-0.17959438264369965
1765548706632994600,23.92699462890625,0.13072516024112701,0.5021312236785889,-0.5607742667198181
1765548706673064200,23.967064208984375,0.22479841113090515,0.28466320037841797,0.31642818450927734
1765548706693114400,23.9871142578125,0.24923302233219147,0.24190263450145721,0.5119050741195679
1765548706713103400,24.007103271484375,0.4129449129104614,0.17348572611808777,0.8955284357070923
1765548706723113200,24.01711328125,0.48869219422340393,0.16859880089759827,1.0824532508850098
1765548706753111800,24.04711181640625,0.6976081132888794,0.1966986060142517,1.7177530527114868
1765548706773100800,24.067100830078125,0.8686503767967224,0.22968533635139465,1.5992451906204224
1765548706783110700,24.077110595703125,0.9370672702789307,0.28588494658470154,1.7153096199035645
1765548706793089800,24.08708984375,0.9639453291893005,0.3591887652873993,1.8863518238067627
1765548706803099600,24.097099609375,0.9456194043159485,0.4605923891067505,1.8594738245010376
1765548706813079000,24.1070791015625,0.9199630618095398,0.5167919993400574,1.7727309465408325
1765548706823119000,24.117119140625,0.836885392665863,0.5241223573684692,1.890017032623291
1765548706833068000,24.127068115234376,0.7318165898323059,0.5106833577156067,2.2650883197784424
1765548706853057000,24.14705712890625,0.5900958180427551,0.4288274049758911,2.7598891258239746
1765548706873076500,24.167076416015625,0.33597588539123535,0.2871066629886627,2.4129176139831543
1765548706883086300,24.17708642578125,0.29077184200286865,0.15760323405265808,2.269975185394287
1765548706893065500,24.1870654296875,0.34574973583221436,0.042760565876960754,2.2430970668792725
1765548706903105800,24.197105712890625,0.43249258399009705,-0.009773843921720982,2.1514673233032227
1765548706913085000,24.2070849609375,0.4251621961593628,-0.0708603709936142,1.920560359954834
1765548706923064300,24.217064208984375,0.4141666293144226,-0.1918116807937622,1.5210545063018799
1765548706933043500,24.22704345703125,0.43127086758613586,-0.2541199326515198,0.827111542224884
1765548706943053300,24.23705322265625,0.40072759985923767,-0.2871066629886627,-0.08796459436416626
1765548707003142400,24.297142333984375,0.7049384713172913,-0.49357911944389343,-3.4098498821258545
1765548707033141200,24.327141357421876,0.7024950385093689,-0.5632177591323853,-2.719572067260742
1765548707043150800,24.33715087890625,0.6768386960029602,-0.6328563690185547,-2.311514139175415
1765548707083220500,24.377220458984375,0.6633996367454529,-0.5485569834709167,-0.20402899384498596
1765548707093169200,24.387169189453125,0.5937610268592834,-0.38240164518356323,0.03176499158143997
1765548707103179000,24.397178955078125,0.485027015209198,-0.2064724564552307,0.3445279896259308
1765548707113158100,24.407158203125,0.2968805134296417,0.042760565876960754,0.7171558141708374
1765548715207380700,32.501380615234375,0.11362093687057495,-0.028099801391363144,-0.4740314185619354
1765548715217290500,32.51129052734375,0.15515977144241333,-0.05253441259264946,0.18936823308467865
1765548715236879400,32.53087939453125,-1.1166616678237915,-0.13072516024112701,0.3836233615875244
1765548715326898000,32.62089794921875,-1.4062118530273438,0.030543262138962746,1.0103710889816284
1765548715336877000,32.630876953125,-1.389107584953308,0.02932153269648552,1.0018190145492554
1765548715346856400,32.6408564453125,-1.330464482307434,0.019547687843441963,0.9761626720428467
1765548715356866000,32.65086596679687,-1.2669345140457153,0.00366519158706069,0.9969320893287659
1765548715366845400,32.660845458984376,-1.2302825450897217,-0.013439035043120384,1.0458012819290161
1765548715376855000,32.67085498046875,-1.2009611129760742,-0.02932153269648552,1.0604621171951294
1765548715386865000,32.680864990234376,-1.177748203277588,-0.05009094998240471,1.0616837739944458
1765548715396813600,32.6908134765625,-1.1606439352035522,-0.08552113175392151,1.0616837739944458
1765548715406884400,32.70088427734375,-1.1630873680114746,-0.12950342893600464,1.0238101482391357
1765548715486871000,32.78087109375,-1.0250319242477417,-0.2773328125476837,0.8747590184211731
1765548715526849000,32.82084912109375,-0.8930850028991699,-0.32986724376678467,0.636521577835083
1765548715536889300,32.830889404296876,-0.8686503767967224,-0.3335324227809906,0.720820963382721
1765548715546899200,32.840899169921876,-0.8417723178863525,-0.3225368559360504,0.8002334833145142
1765548715556847900,32.850847900390626,-0.8246681094169617,-0.3090978264808655,0.8014551997184753
1765548715566888200,32.86088818359375,-0.8100073337554932,-0.3066543638706207,0.7330383062362671
1765548715576867300,32.870867431640626,-0.7806857824325562,-0.31154128909111023,0.6206390857696533
1765548715586907600,32.88090771484375,-0.7305948138237,-0.3127630054950714,0.5119050741195679
1765548715596856300,32.89085620117187,-0.675616979598999,-0.3139847218990326,0.4349360466003418
1765548715606896600,32.900896728515626,-0.6304129362106323,-0.304210901260376,0.4141666293144226
1765548715616906500,32.910906494140626,-0.6304129362106323,-0.304210901260376,0.4141666293144226
1765548715646935800,32.940935791015626,-0.5778785347938538,-0.21135938167572021,0.5057964324951172
1765548715656915000,32.9509150390625,-0.5497786998748779,-0.18814650177955627,0.5192354321479797
1765548715666894300,32.960894287109376,-0.5082398653030396,-0.17104226350784302,0.5106833577156067
1765548715676873500,32.97087353515625,-0.4740314185619354,-0.16737708449363708,0.4740314185619354
1765548715686913800,32.980913818359376,-0.42149701714515686,-0.17837265133857727,0.4202753007411957
1765548715696923600,32.990923583984376,-0.3494149148464203,-0.1869247704744339,0.33475416898727417
1765548715706902800,33.00090283203125,-0.26022860407829285,-0.18081611394882202,0.27122417092323303
1765548715716912600,33.01091259765625,-0.15393804013729095,-0.1612684279680252,0.2822197377681732
1765548715726922200,33.02092211914062,-0.05742133408784866,-0.12461651116609573,0.2919935882091522
1765548715756890600,33.050890625,0.1466076523065567,0.0403171069920063,0.04398229718208313
1765548715776940500,33.0709404296875,0.2223549485206604,0.1563815027475357,0.009773843921720982
1765548715796929500,33.09092944335937,0.31031954288482666,0.25534167885780334,0.21013765037059784
1765548715806939400,33.100939453125,0.38240164518356323,0.2993239760398865,0.2541199326515198
1765548715816949200,33.11094921875,0.46181413531303406,0.3433062732219696,0.21991148591041565
1765548715826958800,33.12095874023437,0.5375614166259766,0.38240164518356323,0.13316862285137177
1765548715836938200,33.130938232421876,0.616973876953125,0.4202753007411957,0.07452555745840073
1765548715846978600,33.140978515625,0.6927211880683899,0.4605923891067505,0.07819075137376785
1765548715866967600,33.160967529296876,0.8576548099517822,0.5534439086914062,0.1111774742603302
1765548715886987000,33.180987060546876,1.0653489828109741,0.66584312915802,0.09040805697441101
1765548715896966100,33.19096606445312,1.1630873680114746,0.7367035150527954,0.04764748737215996
1765548715907006500,33.20100634765625,1.263269305229187,0.807563841342926,0.042760565876960754
1765548715927026200,33.221026123046876,1.4245377779006958,0.9346238374710083,-0.045204028487205505
1765548715937005300,33.23100537109375,1.4978415966033936,0.9810495972633362,-0.11728613078594208
1765548715957024800,33.25102465820312,1.6187928915023804,1.0787880420684814,-0.08552113175392151
1765548715967034600,33.26103466796875,1.6664403676986694,1.1496484279632568,-0.03787364438176155
1765548715977013800,33.271013671875,1.7299703359603882,1.2278391122817993,-0.030543262138962746
1765548715987054000,33.28105419921875,1.803274154663086,1.3072515726089478,-0.0806342139840126
1765548715997033500,33.291033447265626,1.863139033317566,1.398881435394287,-0.15271630883216858
1765548716007073800,33.30107373046875,1.9132299423217773,1.4856243133544922,-0.16371189057826996
1765548716017083400,33.31108349609375,1.9620991945266724,1.55892813205719,-0.11850785464048386
1765548716027093200,33.32109326171875,2.0195205211639404,1.63467538356781,-0.06841690838336945
1765548716037072400,33.331072265625,2.105041742324829,1.7177530527114868,-0.025656340643763542
1765548716047082200,33.341082275390626,2.1991147994995117,1.7959438562393188,0.024434609338641167
1765548716067071200,33.3610712890625,2.3664920330047607,1.987755537033081,0.1368338167667389
1765548716077081000,33.3710810546875,2.4019222259521484,2.1038198471069336,0.1771509200334549
1765548716087151900,33.38115185546875,2.4300220012664795,2.216219186782837,0.19425514340400696
1765548716097161500,33.39116137695312,2.4666738510131836,2.328618288040161,0.16859880089759827
1765548716107171300,33.40117138671875,2.524095296859741,2.434908866882324,0.12339477986097336
1765548716117181200,33.41118115234375,2.5815165042877197,2.517986536026001,0.09407325088977814
1765548716127190800,33.42119067382812,2.618168354034424,2.58762526512146,0.0806342139840126
1765548716137200600,33.43120068359375,2.654820442199707,2.632829189300537,0.06475171446800232
1765548716147210500,33.44121044921875,2.6670377254486084,2.6621506214141846,0.030543262138962746
1765548716167230000,33.46122998046875,2.609616279602051,2.691472291946411,-0.06108652427792549
1765548716177239800,33.47123974609375,2.5705208778381348,2.7122416496276855,-0.051312681287527084
1765548716187249400,33.48124951171875,2.5338690280914307,2.7391197681427,0.0012217304902151227
1765548716197198000,33.49119799804687,2.498438835144043,2.7647759914398193,0.039095375686883926
1765548716207238400,33.50123828125,2.459343433380127,2.7867672443389893,0.03176499158143997
1765548716217248300,33.511248291015626,2.4275784492492676,2.802649736404419,0.006108652334660292
1765548716227258000,33.521258056640626,2.395813465118408,2.808758497238159,-0.0024434609804302454
1765548716237267700,33.531267822265626,2.375044107437134,2.794097661972046,0.010995574295520782
1765548716257256700,33.55125659179687,2.3823745250701904,2.711019992828369,0.042760565876960754
1765548716287286000,33.5812861328125,2.3066272735595703,2.548529863357544,-0.05009094998240471
1765548716297265400,33.591265380859376,2.3066272735595703,2.548529863357544,-0.05009094998240471
1765548716307305700,33.6013056640625,2.2382102012634277,2.5118777751922607,-0.08918632566928864
1765548716317315300,33.6113154296875,2.1539108753204346,2.4825563430786133,-0.12950342893600464
1765548716327294700,33.621294677734376,2.0537290573120117,2.461786985397339,-0.14905111491680145
1765548716337334800,33.63133471679687,1.9633208513259888,2.4544565677642822,-0.13439035415649414
1765548716347344600,33.6413447265625,1.9034560918807983,2.4630086421966553,-0.08918632566928864
1765548716357354500,33.6513544921875,1.8509217500686646,2.481334686279297,-0.04153883829712868
1765548716397424000,33.691424072265626,1.6957619190216064,2.528982162475586,-0.17837265133857727
1765548716407433700,33.701433837890626,1.6701055765151978,2.5192081928253174,-0.2272418737411499
1765548716417443600,33.711443603515626,1.6407840251922607,2.4972171783447266,-0.18325957655906677
1765548716427453200,33.721453125,1.5821410417556763,2.4740042686462402,-0.06352998316287994
1765548716437432600,33.7314326171875,1.490511178970337,2.4740042686462402,0.04398229718208313
1765548716467492400,33.761492431640626,1.2583824396133423,2.4911084175109863,-0.0024434609804302454
1765548716477502200,33.771502197265626,1.156978726387024,2.470339059829712,-0.02932153269648552
1765548716527581400,33.82158154296875,0.6719517707824707,2.216219186782837,-0.04153883829712868
1765548716537591300,33.83159130859375,0.5803219676017761,2.1563544273376465,-0.05742133408784866
1765548716547601000,33.84160083007812,0.5290092825889587,2.0891592502593994,-0.14294247329235077
1765548716557610800,33.85161083984375,0.48869219422340393,2.007303237915039,-0.3017674386501312
1765548716567681500,33.861681640625,0.46792277693748474,1.9217820167541504,-0.4337143301963806
1765548716577691400,33.87169140625,0.4178318381309509,1.8069393634796143,-0.455705463886261
1765548716587731700,33.881731689453126,0.34574973583221436,1.673770785331726,-0.394618958234787
1765548716597741300,33.8917412109375,0.24190263450145721,1.5467108488082886,-0.34697145223617554
1765548716607751200,33.901751220703126,0.15393804013729095,1.4135421514511108,-0.4080579876899719
1765548716617761000,33.911760986328126,0.07208210229873657,1.264491081237793,-0.5852088928222656
1765548716627770600,33.9217705078125,-0.006108652334660292,1.1081095933914185,-0.7709119319915771
1765548716637750000,33.93175,-0.08552113175392151,0.9358455538749695,-0.846659243106842
1765548716647790300,33.941790283203126,-0.17470745742321014,0.750142514705658,-0.8784242272377014
1765548716657800000,33.951800048828126,-0.24923302233219147,0.5558874011039734,-0.93095862865448
1765548716667809800,33.961809814453126,-0.3029891550540924,0.36651915311813354,-1.0311405658721924
1765548716677789000,33.97178881835937,-0.3640756905078888,0.18570303916931152,-1.1814134120941162
1765548716707757300,34.00175732421875,-0.5729916095733643,-0.33108896017074585,-1.0702359676361084
1765548716717767000,34.01176684570312,-0.6707300543785095,-0.5326744914054871,-0.8845328688621521
1765548716727807200,34.02180712890625,-0.7586946487426758,-0.7464773058891296,-0.759916365146637
1765548716737817000,34.031817138671876,-0.827111542224884,-0.9676105380058289,-0.7171558141708374
1765548716747827000,34.041826904296876,-0.8808676600456238,-1.1691961288452148,-0.7330383062362671
1765548716757867000,34.05186694335937,-0.921184778213501,-1.3341296911239624,-0.769690215587616
1765548716767876900,34.061876953125,-0.9578366875648499,-1.4660766124725342,-0.8087855577468872
1765548716777886700,34.07188671875,-0.9969320893287659,-1.577254056930542,-0.8038986921310425
1765548716787865900,34.081865966796876,-1.0494664907455444,-1.6725490093231201,-0.7464773058891296
1765548716817895200,34.111895263671876,-1.1508700847625732,-1.9181169271469116,-0.5363397002220154
1765548716877953800,34.171953857421876,-1.3072515726089478,-2.2382102012634277,-0.6438519954681396
1765548716897942800,34.19194287109375,-1.5564846992492676,-2.2565362453460693,-0.8454375267028809
1765548716948022300,34.242022216796876,-1.9694294929504395,-2.3298399448394775,-0.6780604124069214
1765548716988061200,34.282061279296876,-2.1343631744384766,-2.3164010047912598,-0.616973876953125
1765548716998071000,34.292071044921876,-2.1954495906829834,-2.2821924686431885,-0.6597344875335693
1765548717008080600,34.30208056640625,-2.285857677459717,-2.266309976577759,-0.6585127115249634
1765548717018090500,34.312090576171876,-2.4239132404327393,-2.274862289428711,-0.6145304441452026
1765548717028100400,34.322100341796876,-2.576629638671875,-2.302962064743042,-0.5864306092262268
1765548717038079500,34.33207958984375,-2.649933338165283,-2.3383922576904297,-0.5277875661849976
1765548717068139300,34.36213916015625,-2.5900685787200928,-2.285857677459717,-0.3176499307155609
1765548717088128300,34.38212817382812,-2.613281488418579,-2.157576084136963,-0.4056145250797272
1765548717118157600,34.41215747070312,-2.76111102104187,-1.9743164777755737,-0.23579397797584534
1765548717128167400,34.42216748046875,-2.7366762161254883,-1.9230037927627563,-0.2174680233001709
1765548717138177300,34.43217724609375,-2.6792550086975098,-1.8839083909988403,-0.2626720666885376
1765548717158196700,34.45219677734375,-2.5668556690216064,-1.8057177066802979,-0.2724458873271942
1765548717168175900,34.46217578125,-2.5253169536590576,-1.7519614696502686,-0.1270599663257599
1765548717178185700,34.472185791015626,-2.520430088043213,-1.7043139934539795,0.05497787147760391
1765548717188195600,34.482195556640626,-2.543642997741699,-1.6627751588821411,0.17348572611808777
1765548717198174700,34.4921748046875,-2.5534167289733887,-1.6175711154937744,0.20402899384498596
1765548717208184600,34.5021845703125,-2.5228734016418457,-1.5613715648651123,0.2028072625398636
1765548717218225000,34.512224853515626,-2.487443208694458,-1.4917329549789429,0.18570303916931152
1765548717238214000,34.5322138671875,-2.411695957183838,-1.3341296911239624,0.1258382350206375
1765548717248223500,34.54222338867187,-2.378709316253662,-1.214400053024292,0.16493362188339233
1765548717288232200,34.582232177734376,-2.563190460205078,-0.8161159753799438,0.7122688889503479
1765548717308251600,34.602251708984376,-2.5864033699035645,-0.6695083379745483,0.6695083379745483
1765548717318261500,34.612261474609376,-2.574186086654663,-0.618195652961731,0.6829473376274109
1765548717328271000,34.62227099609375,-2.576629638671875,-0.5766568183898926,0.7574729323387146
1765548717338281000,34.632281005859376,-2.5815165042877197,-0.5461135506629944,0.9065240025520325
1765548717348260000,34.64226000976562,-2.5888469219207764,-0.5290092825889587,1.0653489828109741
1765548717368279800,34.66227978515625,-2.5583035945892334,-0.4813618063926697,1.1520918607711792
1765548717378289400,34.67228930664062,-2.5143213272094727,-0.4605923891067505,1.0739010572433472
1765548717388329700,34.682329833984376,-2.459343433380127,-0.4495968222618103,0.9896016716957092
1765548717398339600,34.692339599609376,-2.4043655395507812,-0.4447098970413208,0.970054030418396
1765548717408318700,34.70231860351562,-2.3518311977386475,-0.43615779280662537,1.0641272068023682
1765548717418298000,34.712298095703126,-2.326174736022949,-0.4447098970413208,1.2180652618408203
1765548717428307700,34.7223076171875,-2.2931880950927734,-0.455705463886261,1.321912407875061
1765548725148526300,42.4425263671875,0.12095131725072861,-0.02321287989616394,-0.4801400899887085
1765548725158166500,42.45216650390625,0.3335324227809906,0.18081611394882202,0.09773843735456467
1765548725167676400,42.461676513671875,0.5448917746543884,0.8735373020172119,0.29565876722335815
1765548725177386000,42.47138598632812,0.39217549562454224,1.568701982498169,-0.504574716091156
1765548725187095800,42.481095703125,0.5632177591323853,2.1978931427001953,-0.5925393104553223
1765548725236744700,42.53074462890625,0.5656611919403076,2.087937355041504,-0.9810495972633362
1765548725306843600,42.60084375,0.2626720666885376,1.587027907371521,-0.9443976879119873
1765548725316822800,42.61082275390625,0.24434609711170197,1.4599679708480835,-0.979827880859375
1765548725326863000,42.62086303710937,0.23457226157188416,1.340238332748413,-1.0506882667541504
1765548725336842200,42.63084228515625,0.21624629199504852,1.2082914113998413,-1.1520918607711792
1765548725346852000,42.64085205078125,0.19058994948863983,1.0787880420684814,-1.2278391122817993
1765548725356862000,42.65086206054688,0.19058994948863983,1.0787880420684814,-1.2278391122817993
1765548725366871600,42.66087158203125,0.1612684279680252,0.9578366875648499,-1.253495454788208
1765548725436909600,42.73090966796875,-0.2565633952617645,-0.14538592100143433,-0.6670648455619812
1765548725446949600,42.74094970703125,-0.32009339332580566,-0.3335324227809906,-0.6682865619659424
1765548725456959500,42.75095947265625,-0.34697145223617554,-0.5070181488990784,-0.6548475623130798
1765548725466938600,42.76093872070312,-0.3396410644054413,-0.6536257863044739,-0.6743952035903931
1765548725476918000,42.77091796875,-0.3445279896259308,-0.7843509912490845,-0.7513642311096191
1765548725486928000,42.78092797851563,-0.384845107793808,-0.9028588533401489,-0.8503243923187256
1765548725496937500,42.7909375,-0.45204028487205505,-1.0018190145492554,-0.911410927772522
1765548725506947300,42.800947265625,-0.5106833577156067,-1.0519099235534668,-0.8943067193031311
1765548725526936300,42.82093627929687,-0.6035348773002625,-1.1154398918151855,-0.6927211880683899
1765548725536915500,42.83091552734375,-0.6682865619659424,-1.1435397863388062,-0.4960225820541382
1765548725546894800,42.84089477539062,-0.7440338730812073,-1.1655309200286865,-0.27122417092323303
1765548725556904400,42.85090454101562,-0.799011766910553,-1.205847978591919,-0.10018189996480942
1765548725566944800,42.86094482421875,-0.8417723178863525,-1.2803735733032227,-0.021991148591041565
1765548725576924200,42.87092407226562,-0.8869763612747192,-1.340238332748413,-0.04642575979232788
1765548725586903300,42.8809033203125,-0.9370672702789307,-1.3829989433288574,-0.16004669666290283
1765548725606861800,42.90086181640625,-0.96883225440979,-1.4330898523330688,-0.3139847218990326
1765548725636891100,42.93089111328125,-1.1557570695877075,-1.518610954284668,-0.03420845419168472
1765548725646901000,42.94090087890625,-1.2473868131637573,-1.5625933408737183,0.17104226350784302
1765548725656910600,42.95091064453125,-1.3048081398010254,-1.6212363243103027,0.4129449129104614
1765548725666890000,42.96088989257812,-1.3585642576217651,-1.6957619190216064,0.5497786998748779
1765548725676869000,42.970869140625,-1.3927727937698364,-1.7861700057983398,0.504574716091156
1765548725686879000,42.98087890625,-1.4025466442108154,-1.8594738245010376,0.27000242471694946
1765548725696858000,42.99085815429687,-1.4086552858352661,-1.9339994192123413,-0.051312681287527084
1765548725706868000,43.00086791992187,-1.4135421514511108,-1.9914207458496094,-0.3396410644054413
1765548725716877800,43.0108779296875,-1.4575244188308716,-2.031737804412842,-0.5290092825889587
1765548725756855800,43.05085571289062,-1.7654005289077759,-2.0341813564300537,0.12950342893600464
1765548725766835000,43.0608349609375,-1.7776178121566772,-2.0476202964782715,0.21380282938480377
1765548725776814300,43.070814453125,-1.7617353200912476,-2.057394027709961,0.15027284622192383
1765548725786824000,43.08082397460937,-1.7641788721084595,-2.0818288326263428,-0.028099801391363144
1765548725796833800,43.09083374023437,-1.832595705986023,-2.141693592071533,-0.2565633952617645
1765548725806813000,43.10081298828125,-1.938886284828186,-2.185675859451294,-0.45692721009254456
1765548725816822800,43.11082275390625,-2.03540301322937,-2.1954495906829834,-0.5143485069274902
1765548725826832600,43.12083251953125,-2.101376533508301,-2.1930062770843506,-0.3286454975605011
1765548725856800800,43.15080078125,-2.135584831237793,-2.2406537532806396,0.3799581825733185
1765548725866841000,43.16084106445312,-2.094046115875244,-2.2516493797302246,0.2431243658065796
1765548725876851000,43.17085083007812,-2.0671679973602295,-2.266309976577759,-0.030543262138962746
1765548725886860500,43.18086059570312,-2.0916025638580322,-2.2907447814941406,-0.26511552929878235
1765548725896870400,43.19087036132812,-2.194227933883667,-2.3041837215423584,-0.3677408695220947
1765548725906880300,43.20088037109375,-2.320066213607788,-2.2736403942108154,-0.3090978264808655
1765548725916889900,43.21088989257812,-2.426356792449951,-2.196671485900879,-0.1111774742603302
1765548725926869200,43.220869140625,-2.4886651039123535,-2.135584831237793,0.16004669666290283
1765548725956867800,43.25086791992187,-2.4434609413146973,-2.083050489425659,0.4251621961593628
1765548726016865500,43.31086547851562,-2.5192081928253174,-1.880243182182312,0.19303341209888458
1765548726026875400,43.32087548828125,-2.5558602809906006,-1.8167132139205933,0.44715335965156555
1765548726036885000,43.33088500976562,-2.5925121307373047,-1.7617353200912476,0.6731734871864319
1765548726056904400,43.35090454101562,-2.487443208694458,-1.6798794269561768,0.6963863968849182
1765548726066883800,43.3608837890625,-2.4165828227996826,-1.626123309135437,0.49357911944389343
1765548726076863000,43.37086303710937,-2.39825701713562,-1.5308283567428589,0.27122417092323303
1765548726086872800,43.38087280273437,-2.406809091567993,-1.4257594347000122,0.18936823308467865
1765548726096882700,43.39088256835937,-2.4300220012664795,-1.303586483001709,0.2883284091949463
1765548726106892300,43.40089233398437,-2.4446825981140137,-1.1887437105178833,0.5693264007568359
1765548726116902100,43.41090209960937,-2.470339059829712,-1.1142182350158691,0.8735373020172119
1765548726126912000,43.420912109375,-2.5033257007598877,-1.0445796251296997,1.0482447147369385
1765548726136891100,43.43089111328125,-2.4886651039123535,-1.0103710889816284,1.0506882667541504
1765548726146901000,43.44090087890625,-2.4556782245635986,-0.988379955291748,0.9346238374710083
1765548726176869000,43.470869140625,-2.422691583633423,-0.8735373020172119,0.7098253965377808
1765548726186879000,43.48087890625,-2.3970351219177246,-0.8210029006004333,0.8527678847312927
1765548726196858000,43.49085815429687,-2.3738224506378174,-0.7941248416900635,1.076344609260559
1765548726206898400,43.5008984375,-2.3713788986206055,-0.7819074988365173,1.291369080543518
1765548726216877800,43.5108779296875,-2.378709316253662,-0.7806857824325562,1.4379768371582031
1765548726226887400,43.52088745117187,-2.3102922439575195,-0.7831292152404785,1.4782938957214355
1765548726236866800,43.53086669921875,-2.1991147994995117,-0.7757988572120667,1.389107584953308
1765548726246876400,43.54087646484375,-2.094046115875244,-0.7733554244041443,1.2669345140457153
1765548726256855800,43.55085571289062,-2.018298864364624,-0.7562511563301086,1.1850786209106445
1765548726287892200,43.58189233398438,-1.9242255687713623,-0.6316346526145935,1.274264931678772
1765548726297901800,43.59190185546875,-1.9645426273345947,-0.5619960427284241,1.4074335098266602
1765548726317890800,43.61189086914062,-1.9755382537841797,-0.46181413531303406,1.674992561340332
1765548726327900700,43.62190063476562,-1.929112434387207,-0.4031710624694824,1.673770785331726
1765548726337910500,43.63191064453125,-1.8509217500686646,-0.32131510972976685,1.587027907371521
1765548726347920100,43.64192016601562,-1.7568484544754028,-0.22479841113090515,1.4770721197128296
1765548726357930000,43.65192993164062,-1.6859880685806274,-0.1111774742603302,1.4208725690841675
1765548726387989800,43.68198974609375,-1.6688838005065918,0.13561208546161652,1.7092009782791138
1765548726397999600,43.69199951171875,-1.7006487846374512,0.1563815027475357,1.82404363155365
1765548726408009200,43.70200927734375,-1.6725490093231201,0.1563815027475357,1.832595705986023
1765548726418019000,43.71201904296875,-1.6041321754455566,0.18081611394882202,1.6994271278381348
1765548726437977600,43.7319775390625,-1.4208725690841675,0.2822197377681732,1.2473868131637573
1765548726457966600,43.75196655273437,-1.3084733486175537,0.4141666293144226,1.2657127380371094
1765548726467976400,43.7619765625,-1.2376129627227783,0.4202753007411957,1.4453071355819702
1765548726498005800,43.792005859375,-1.0800096988677979,0.16982053220272064,1.2596040964126587
1765548726508015400,43.80201538085937,-0.960280179977417,0.07941248267889023,0.998153805732727
1765548726518025200,43.81202514648437,-0.8759807348251343,0.03298672288656235,0.720820963382721
1765548726528034800,43.82203491210937,-0.7867944240570068,0.04642575979232788,0.5412266254425049
1765548726538044700,43.83204467773437,-0.6866125464439392,0.08552113175392151,0.5070181488990784
1765548726548054500,43.84205444335937,-0.6010913848876953,0.12828169763088226,0.5412266254425049
1765548726558033700,43.85203369140625,-0.5387831330299377,0.16982053220272064,0.5742133259773254
1765548726568074000,43.86207397460937,-0.4715879559516907,0.1918116807937622,0.5778785347938538
1765548726608235000,43.90223510742187,-0.06352998316287994,0.024434609338641167,0.0024434609804302454
1765548726618122800,43.91212280273437,0.06352998316287994,-0.09529497474431992,-0.30054569244384766
1765548726628132600,43.92213256835937,0.1918116807937622,-0.22113321721553802,-0.5632177591323853
1765548726638111700,43.93211181640625,0.31642818450927734,-0.3579670190811157,-0.7586946487426758
1765548726648243700,43.94224365234375,0.41172316670417786,-0.49235737323760986,-0.950506329536438
1765548726668171800,43.962171875,0.5681046843528748,-0.6023131608963013,-1.5430456399917603
1765548726678181400,43.97218139648437,0.6682865619659424,-0.6145304441452026,-1.882686734199524
1765548726708241200,44.0022412109375,0.9297369122505188,-0.6328563690185547,-2.64138126373291
1765548726718190000,44.01219018554688,1.0140362977981567,-0.6743952035903931,-2.769663095474243
1765548726728230100,44.02223022460937,1.0885618925094604,-0.750142514705658,-2.8576276302337646
1765548726748188700,44.04218872070312,1.1447614431381226,-0.8772025108337402,-2.945592164993286
1765548726758168000,44.05216796875,1.186300277709961,-1.0348057746887207,-3.012787342071533
1765548726768208400,44.06220849609375,1.2217304706573486,-1.205847978591919,-3.023782968521118
1765548726778218000,44.07221801757812,1.2486085891723633,-1.389107584953308,-2.973691940307617
1765548726788227800,44.08222778320312,1.244943380355835,-1.567480206489563,-2.9321532249450684
1765548726818226700,44.11222680664063,1.320690631866455,-2.0427334308624268,-2.9639182090759277
1765548726828236300,44.122236328125,1.3267992734909058,-2.120924234390259,-3.0469958782196045
1765548726838215700,44.13221557617187,1.3671164512634277,-2.188119411468506,-3.089756488800049
1765548726848225300,44.14222534179687,1.4196507930755615,-2.233323335647583,-3.1422908306121826
1765548726858265600,44.152265625,1.4770721197128296,-2.2430970668792725,-3.2204816341400146
1765548726868275500,44.162275390625,1.5454890727996826,-2.2296581268310547,-3.304780960083008
1765548726878285000,44.17228515625,1.5748106241226196,-2.1978931427001953,-3.413515090942383
1765548726888325400,44.18232543945312,1.5699236392974854,-2.161241292953491,-3.4721579551696777
1765548726898304800,44.1923046875,1.5650367736816406,-2.146580457687378,-3.4550538063049316
1765548726928242400,44.22224243164062,1.5454890727996826,-2.241875410079956,-3.3096678256988525
1765548726938282800,44.23228271484375,1.539380431175232,-2.289522886276245,-3.338989496231079
1765548726948262000,44.24226196289062,1.5454890727996826,-2.3518311977386475,-3.371976137161255
1765548726958241300,44.2522412109375,1.5735888481140137,-2.4104743003845215,-3.3841934204101562
1765548726968220400,44.26222045898437,1.607797384262085,-2.437352418899536,-3.3622024059295654
1765548726978260700,44.2722607421875,1.6517796516418457,-2.4544565677642822,-3.2204816341400146
1765548726988240100,44.282240234375,1.674992561340332,-2.4837779998779297,-3.000570058822632
1765548726998219300,44.29221923828125,1.665218710899353,-2.517986536026001,-2.8148670196533203
1765548727038197200,44.332197265625,1.9168951511383057,-2.615725040435791,-3.0616567134857178
1765548727048207000,44.34220703125,1.9266690015792847,-2.637716054916382,-3.191159963607788
1765548727058247400,44.35224731445312,1.9217820167541504,-2.671924591064453,-3.2363641262054443
1765548727068257000,44.36225708007812,1.9156733751296997,-2.689028739929199,-3.191159963607788
1765548727078236400,44.372236328125,1.9156733751296997,-2.6975808143615723,-3.082426071166992
1765548727088246000,44.38224609375,1.892460584640503,-2.682920217514038,-2.9602530002593994
1765548727098256000,44.392255859375,1.901012659072876,-2.6401596069335938,-2.850297212600708
1765548727108265700,44.402265625,1.9523253440856934,-2.596177339553833,-2.833193063735962
1765548727118275300,44.412275390625,1.9816468954086304,-2.574186086654663,-2.9016098976135254
1765548727158284000,44.45228393554687,1.9547687768936157,-2.626720666885376,-3.1337387561798096
1765548727168293600,44.46229370117187,1.9547687768936157,-2.5900685787200928,-2.9358184337615967
1765548727178303500,44.47230346679687,1.9352210760116577,-2.548529863357544,-2.66337251663208
1765548727188282600,44.48228271484375,1.901012659072876,-2.5106561183929443,-2.4300220012664795
1765548727198262000,44.49226196289062,1.881464958190918,-2.4825563430786133,-2.3151793479919434
1765548727208272000,44.50227197265625,1.9181169271469116,-2.478891134262085,-2.355496406555176
1765548727218251000,44.5122509765625,1.9730947017669678,-2.4691174030303955,-2.4801127910614014
1765548727228260900,44.5222607421875,1.9694294929504395,-2.4385740756988525,-2.5473079681396484
1765548727248249900,44.54224975585937,1.8289304971694946,-2.4239132404327393,-2.2931880950927734
1765548727258290200,44.55229028320313,1.7727309465408325,-2.395813465118408,-2.065946340560913
1765548727268299800,44.5622998046875,1.7238616943359375,-2.3432791233062744,-1.891238808631897
1765548727278309600,44.5723095703125,1.6713273525238037,-2.2797491550445557,-1.8252654075622559
1765548727289357000,44.58335717773438,1.6126842498779297,-2.2235496044158936,-1.832595705986023
1765548727299366700,44.59336669921875,1.5833626985549927,-2.161241292953491,-1.8643606901168823
1765548727309376500,44.60337646484375,1.577254056930542,-2.087937355041504,-1.8655824661254883
1765548727319355600,44.61335571289062,1.5540411472320557,-2.02929425239563,-1.8179349899291992
1765548727339405800,44.63340576171875,1.4538593292236328,-1.9694294929504395,-1.585806131362915
1765548727359425300,44.65342529296875,1.4233160018920898,-1.832595705986023,-1.4049900770187378
1765548727369435100,44.66343505859375,1.4159855842590332,-1.7629570960998535,-1.3231340646743774
1765548727379414300,44.67341430664062,1.3927727937698364,-1.6811012029647827,-1.281595230102539
1765548727389424000,44.68342407226562,1.3426817655563354,-1.6029103994369507,-1.2473868131637573
1765548727399403300,44.6934033203125,1.3194689750671387,-1.5137240886688232,-1.1374311447143555
1765548727409382700,44.70338256835937,1.2999212741851807,-1.4343116283416748,-0.9639453291893005
1765548727419392300,44.71339233398437,1.2596040964126587,-1.3585642576217651,-0.7672467231750488
1765548727429402000,44.72340209960937,1.2119566202163696,-1.2693779468536377,-0.6377432942390442
1765548727449391000,44.74339111328125,1.1643091440200806,-1.0958921909332275,-0.5290092825889587
1765548727459401000,44.75340087890625,1.1325441598892212,-1.018923282623291,-0.5057964324951172
1765548727469441300,44.76344116210937,1.1325441598892212,-1.018923282623291,-0.5057964324951172
1765548727479420400,44.77342041015625,1.0054842233657837,-0.7965682744979858,-0.42271876335144043
1765548727489460700,44.78346069335937,1.0054842233657837,-0.7965682744979858,-0.42271876335144043
1765548727499470600,44.793470703125,0.9468411207199097,-0.6646214127540588,-0.3139847218990326
1765548727509480200,44.80348022460937,0.8539896011352539,-0.5497786998748779,-0.12339477986097336
1765548727519428900,44.81342895507812,0.7770205736160278,-0.4605923891067505,0.12095131725072861
1765548727529408300,44.823408203125,0.7049384713172913,-0.40072759985923767,0.2981022298336029
1765548727539418000,44.83341821289063,0.6328563690185547,-0.3579670190811157,0.30054569244384766
1765548727579426600,44.87342651367187,0.3225368559360504,-0.030543262138962746,0.2638937830924988
1765548727659413000,44.9534130859375,-0.2565633952617645,0.5656611919403076,0.7965682744979858
1765548727709431300,45.00343139648437,-0.44715335965156555,1.0323622226715088,1.2021827697753906
1765548727719441200,45.01344116210937,-0.4960225820541382,1.0677924156188965,1.2009611129760742
1765548727729420500,45.02342065429688,-0.5436700582504272,1.0958921909332275,1.2095131874084473
1765548727739430100,45.03343017578125,-0.5876523852348328,1.1264355182647705,1.246165156364441
1765548727749470500,45.04347045898437,-0.6230825781822205,1.1728612184524536,1.312138557434082
1765548727759480300,45.05348022460937,-0.6438519954681396,1.2290608882904053,1.4306464195251465
1765548727769490000,45.06348999023437,-0.66584312915802,1.291369080543518,1.587027907371521
1765548727779530200,45.0735302734375,-0.7073819637298584,1.3548991680145264,1.7507398128509521
1765548727789540000,45.0835400390625,-0.7684684991836548,1.4062118530273438,1.871691107749939
1765548727859608300,45.1536083984375,-0.9346238374710083,1.8582520484924316,2.3188445568084717
1765548727909687800,45.20368774414062,-1.0739010572433472,2.0806069374084473,2.902831554412842
1765548727929646300,45.22364624023437,-1.086118459701538,2.1062633991241455,3.037221908569336
1765548727949665800,45.24366577148437,-1.1398745775222778,2.109928607940674,3.098308563232422
1765548727959645000,45.25364501953125,-1.1814134120941162,2.0977113246917725,3.1777210235595703
1765548727969685200,45.26368530273437,-1.2302825450897217,2.0537290573120117,3.265685558319092
1765548727979725600,45.2737255859375,-1.2754865884780884,2.0170769691467285,3.3157765865325928
1765548727999745000,45.2937451171875,-1.36955988407135,1.9523253440856934,3.252246618270874
1765548728049794000,45.3437939453125,-1.4624114036560059,1.8973474502563477,3.3341023921966553
1765548728059834400,45.35383447265625,-1.4758504629135132,1.8472565412521362,3.1984903812408447
1765548728069844000,45.36384399414062,-1.5076154470443726,1.7849482297897339,3.0641000270843506
1765548728079823400,45.3738232421875,-1.5699236392974854,1.7385225296020508,2.9834659099578857
1765548728089802500,45.38380249023437,-1.6395623683929443,1.7299703359603882,2.9969048500061035
1765548728099812400,45.39381225585937,-1.6847662925720215,1.7409659624099731,3.11785626411438
1765548728129872100,45.4238720703125,-1.7018705606460571,1.7165313959121704,3.299894094467163
1765548728139881700,45.4338818359375,-1.6823228597640991,1.7006487846374512,3.2229249477386475
1765548728149891600,45.4438916015625,-1.6823228597640991,1.7006487846374512,3.2229249477386475
1765548728169880600,45.46388061523437,-1.6187928915023804,1.645671010017395,3.015230894088745
1765548728179890400,45.47389038085937,-1.5650367736816406,1.615127682685852,2.8942794799804688
1765548728189900300,45.483900390625,-1.529606580734253,1.6004669666290283,2.7537806034088135
1765548728199879400,45.49387939453125,-1.5271631479263306,1.5845844745635986,2.65726375579834
1765548728229908700,45.52390869140625,-1.577254056930542,1.5552629232406616,2.8955013751983643
1765548728239918600,45.53391870117188,-1.6139060258865356,1.5454890727996826,3.0017917156219482
1765548728249928200,45.54392822265625,-1.6029103994369507,1.538158655166626,3.0665435791015625
1765548728259907600,45.55390747070312,-1.5552629232406616,1.518610954284668,3.0494391918182373
1765548759176112400,76.4701123046875,0.09896016865968704,-0.05009094998240471,-0.46792277693748474
1765548759235540500,76.52954052734376,-1.0225883722305298,0.7171558141708374,2.8539624214172363
1765548759245550300,76.53955029296876,-1.0067058801651,0.7281513810157776,2.939483642578125
1765548759365576000,76.65957592773438,-0.6010913848876953,-0.3274237811565399,1.9840903282165527
1765548759375616300,76.6696162109375,-0.5155702829360962,-0.41661009192466736,1.6566665172576904
1765548759425604000,76.71960400390626,-0.3396410644054413,-0.26145032048225403,1.2486085891723633
1765548759495672300,76.78967236328126,0.2626720666885376,0.3799581825733185,0.4544837474822998
1765548759565679600,76.8596796875,1.1740829944610596,0.2272418737411499,-0.9615018963813782
1765548759575659000,76.86965893554688,1.253495454788208,0.3017674386501312,-1.1789699792861938
1765548759585668600,76.87966870117188,1.3377948999404907,0.45692721009254456,-1.1789699792861938
1765548759595648000,76.88964794921876,1.3756685256958008,0.6316346526145935,-1.0323622226715088
1765548759605627100,76.89962719726563,1.3646728992462158,0.8222246170043945,-0.9260717034339905
1765548759615606500,76.9096064453125,1.4367550611495972,1.009149432182312,-1.0396926403045654
1765548759625616100,76.9196162109375,1.5796974897384644,1.2009611129760742,-1.4257594347000122
1765548759635565000,76.92956494140626,1.7177530527114868,1.3683381080627441,-2.03540301322937
1765548759675543000,76.96954296875,2.072054862976074,1.9633208513259888,-0.6829473376274109
1765548759695562500,76.9895625,2.0561723709106445,2.001194477081299,-0.05497787147760391
1765548759705572400,76.999572265625,2.166128158569336,2.0134117603302,-0.6157521605491638
1765548759715582000,77.00958203125,2.152689218521118,2.043955087661743,-0.9749409556388855
1765548759725591800,77.019591796875,2.0842721462249756,2.0586159229278564,-0.9395107626914978
1765548759735601700,77.0296015625,2.031737804412842,2.057394027709961,-0.7941248416900635
1765548759745580800,77.03958081054688,1.976759910583496,2.068389654159546,-0.8002334833145142
1765548759775549200,77.06954907226563,1.920560359954834,2.0390682220458984,-1.156978726387024
1765548759795568600,77.08956860351563,2.0060815811157227,2.0586159229278564,-1.4856243133544922
1765548759815588000,77.10958813476563,1.9950858354568481,2.1759018898010254,-1.8790215253829956
1765548759845648000,77.13964794921876,2.129476308822632,2.554638385772705,-1.4257594347000122
1765548759875585800,77.16958569335938,1.9608774185180664,2.8845057487487793,-0.0659734457731247
1765548759885595400,77.17959545898438,1.9828685522079468,2.9468140602111816,-0.38240164518356323
1765548759895605200,77.18960522460938,2.0195205211639404,2.9688050746917725,-0.9749409556388855
1765548759915594200,77.20959423828126,1.9999728202819824,2.9236011505126953,-1.655444860458374
1765548759925604000,77.21960400390626,1.9938641786575317,2.8942794799804688,-1.5833626985549927
1765548759935613700,77.22961376953126,1.9730947017669678,2.867401361465454,-1.4868459701538086
1765548759945593000,77.23959301757813,1.929112434387207,2.8380799293518066,-1.4758504629135132
1765548759955602700,77.24960278320313,1.919338583946228,2.811201810836792,-1.578475832939148
1765548759985601500,77.2796015625,1.95965576171875,2.676811456680298,-1.9828685522079468
1765548759995611400,77.289611328125,1.9083430767059326,2.6535985469818115,-1.8973474502563477
1765548760005651700,77.29965161132813,1.9083430767059326,2.6535985469818115,-1.8973474502563477
1765548760015630800,77.309630859375,1.8765780925750732,2.6560420989990234,-1.7373007535934448
1765548760025610000,77.31960986328124,1.8582520484924316,2.6584856510162354,-1.5503759384155273
1765548760035619800,77.32961987304688,1.822821855545044,2.6731462478637695,-1.3952162265777588
1765548760045629700,77.33962963867188,1.7922786474227905,2.6816983222961426,-1.3060299158096313
1765548760055608800,77.34960888671876,1.7849482297897339,2.6707029342651367,-1.3072515726089478
1765548760065618700,77.35961865234376,1.7788395881652832,2.6511552333831787,-1.3903292417526245
1765548760105566200,77.39956616210938,1.654223084449768,2.495995283126831,-1.3463469743728638
1765548760115515000,77.40951489257813,1.654223084449768,2.4581217765808105,-1.2046263217926025
1765548760125494000,77.41949389648437,1.6493362188339233,2.434908866882324,-1.0922271013259888
1765548760135473400,77.42947338867188,1.605353832244873,2.395813465118408,-1.0482447147369385
1765548760145483300,77.43948315429688,1.5320500135421753,2.3493876457214355,-1.0726794004440308
1765548760155492900,77.44949291992188,1.4587461948394775,2.3151793479919434,-1.1032226085662842
1765548760165502700,77.45950268554688,1.3952162265777588,2.274862289428711,-1.1227703094482422
1765548760175451400,77.46945141601563,1.3463469743728638,2.230879783630371,-1.1276572942733765
1765548760205480700,77.49948071289063,1.1887437105178833,2.096489429473877,-1.0140362977981567
1765548760215490600,77.50949047851563,1.1594222784042358,2.0415115356445312,-0.921184778213501
1765548760225469700,77.5194697265625,1.1032226085662842,1.9755382537841797,-0.8833111524581909
1765548760235479600,77.5294794921875,1.0299187898635864,1.910786509513855,-0.8955284357070923
1765548760245458700,77.53945874023438,0.9676105380058289,1.8484781980514526,-0.9089674949645996
1765548760255468500,77.54946850585938,0.921184778213501,1.7910568714141846,-0.8857545852661133
1765548760265478100,77.55947802734374,0.8698720932006836,1.7446311712265015,-0.846659243106842
1765548760275427000,77.56942700195313,0.8161159753799438,1.6896532773971558,-0.788016140460968
1765548760285467400,77.57946728515626,0.7586946487426758,1.6310101747512817,-0.7709119319915771
1765548760315466000,77.60946606445313,0.636521577835083,1.4428637027740479,-0.9456194043159485
1765548760325475800,77.61947583007813,0.5876523852348328,1.3829989433288574,-0.988379955291748
1765548760335455000,77.629455078125,0.5106833577156067,1.313360333442688,-1.0140362977981567
1765548760345464800,77.63946484375,0.43737950921058655,1.243721604347229,-0.978606104850769
1765548760355444000,77.64944384765624,0.3628539443016052,1.1716395616531372,-0.9297369122505188
1765548760365453800,77.65945385742188,0.2883284091949463,1.086118459701538,-0.8918632864952087
1765548760375402500,77.66940258789063,0.21135938167572021,0.9920451641082764,-0.8747590184211731
1765548760385412400,77.67941235351563,0.12950342893600464,0.8869763612747192,-0.8381071090698242
1765548760395391500,77.6893916015625,0.07208210229873657,0.7733554244041443,-0.8051204085350037
1765548760415411200,77.7094111328125,0.05009094998240471,0.5656611919403076,-0.7623597979545593
1765548760425390300,77.71939038085938,0.01466076634824276,0.4789183437824249,-0.7086036801338196
1765548760435400200,77.72940014648438,-0.05497787147760391,0.3885102868080139,-0.6218608021736145
1765548760445409800,77.73940991210938,-0.12461651116609573,0.27488934993743896,-0.5070181488990784
1765548760455358700,77.74935864257813,-0.17348572611808777,0.16249015927314758,-0.45326200127601624
1765548760465368300,77.75936840820313,-0.1966986060142517,0.06108652427792549,-0.47769662737846375
1765548760475408600,77.76940869140626,-0.18325957655906677,-0.013439035043120384,-0.5729916095733643
1765548760495397600,77.78939770507813,-0.2431243658065796,-0.1612684279680252,-0.7269296646118164
1765548760515417300,77.80941723632813,-0.3335324227809906,-0.3225368559360504,-0.5057964324951172
1765548760525396500,77.819396484375,-0.36163222789764404,-0.38728857040405273,-0.4092797040939331
1765548760535375600,77.82937573242188,-0.3897320330142975,-0.4495968222618103,-0.36651915311813354
1765548760545385500,77.83938549804688,-0.42271876335144043,-0.5192354321479797,-0.3396410644054413
1765548760555395300,77.84939526367188,-0.4544837474822998,-0.5852088928222656,-0.2871066629886627
1765548760565405000,77.85940502929688,-0.4996877610683441,-0.6450737118721008,-0.2272418737411499
1765548760575414800,77.86941479492188,-0.5473352670669556,-0.6988298296928406,-0.16859880089759827
1765548760585424600,77.87942456054688,-0.6010913848876953,-0.7391469478607178,-0.1417207419872284
1765548760595403800,77.88940380859376,-0.6878342628479004,-0.7806857824325562,-0.1466076523065567
1765548760625402600,77.91940258789063,-0.8148942589759827,-0.8686503767967224,-0.07941248267889023
1765548760635412200,77.929412109375,-0.8772025108337402,-0.9101892113685608,-0.030543262138962746
1765548760645422000,77.93942211914063,-0.9443976879119873,-0.93095862865448,0.04764748737215996
1765548760655432000,77.94943188476563,-1.007927656173706,-0.9566149711608887,0.16371189057826996
1765548760665411000,77.9594111328125,-1.0824532508850098,-1.0225883722305298,0.2919935882091522
1765548760675421000,77.9694208984375,-1.1643091440200806,-1.0958921909332275,0.43615779280662537
1765548760685430500,77.97943041992187,-1.2290608882904053,-1.176526427268982,0.5717698931694031
1765548760695440400,77.9894404296875,-1.2559388875961304,-1.2510520219802856,0.6340781450271606
1765548760705450200,77.9994501953125,-1.2608258724212646,-1.3292428255081177,0.5656611919403076
1765548760735479600,78.0294794921875,-1.340238332748413,-1.431868076324463,-0.14782938361167908
1765548760745489200,78.0394892578125,-1.4001030921936035,-1.4098769426345825,-0.2577851414680481
1765548760755499000,78.0494990234375,-1.4819591045379639,-1.4025466442108154,-0.14905111491680145
1765548760765539300,78.05953930664063,-1.5564846992492676,-1.4159855842590332,0.15393804013729095
1765548760775549200,78.06954907226563,-1.624901533126831,-1.4355332851409912,0.5106833577156067
1765548760785528300,78.0795283203125,-1.6945401430130005,-1.5112806558609009,0.788016140460968
1765548760795538200,78.0895380859375,-1.7482963800430298,-1.6041321754455566,0.93095862865448
1765548760805547800,78.0995478515625,-1.793500304222107,-1.7006487846374512,0.8930850028991699
1765548760815527200,78.10952709960938,-1.814269781112671,-1.8081611394882202,0.7232644557952881
1765548760825536800,78.11953686523438,-1.8093829154968262,-1.9217820167541504,0.5009095072746277
1765548760835546600,78.12954663085938,-1.8106045722961426,-2.0341813564300537,0.2822197377681732
1765548760845525800,78.13952587890626,-1.852143406867981,-2.1453588008880615,0.059864792972803116
1765548760855505200,78.14950512695313,-1.9132299423217773,-2.2284364700317383,-0.09651670604944229
1765548760865515000,78.15951489257813,-1.9608774185180664,-2.2968533039093018,-0.13072516024112701
1765548760875494100,78.169494140625,-1.9938641786575317,-2.3432791233062744,-0.021991148591041565
1765548760885504000,78.17950390625,-2.0231857299804688,-2.383596181869507,0.1661553531885147
1765548760895483100,78.18948315429688,-2.048841953277588,-2.4165828227996826,0.34208452701568604
1765548760905493000,78.19949291992188,-2.0427334308624268,-2.434908866882324,0.4190535545349121
1765548760915502600,78.20950268554688,-1.99752938747406,-2.442239284515381,0.3604104816913605
1765548760935522300,78.22952221679688,-1.9352210760116577,-2.387261390686035,-0.02321287989616394
1765548760945532000,78.23953198242188,-1.9327776432037354,-2.3664920330047607,-0.24190263450145721
1765548760955541800,78.24954174804688,-1.9364428520202637,-2.350609540939331,-0.42149701714515686
1765548760965551600,78.25955151367188,-1.9620991945266724,-2.3017401695251465,-0.6023131608963013
1765548760975561200,78.26956127929688,-1.9938641786575317,-2.2088887691497803,-0.7244861721992493
1765548760985571000,78.27957104492188,-2.0500638484954834,-2.118480682373047,-0.6340781450271606
1765548760995550200,78.28955029296876,-2.1429152488708496,-2.0671679973602295,-0.29565876722335815
1765548761005560000,78.29956005859376,-2.2394320964813232,-2.0085248947143555,0.0659734457731247
1765548761015508700,78.3095087890625,-2.309070587158203,-1.938886284828186,0.2626720666885376
1765548761035497700,78.32949780273438,-2.3212878704071045,-1.8863518238067627,0.17959438264369965
1765548761045538000,78.3395380859375,-2.3298399448394775,-1.8264870643615723,0.021991148591041565
1765548761055517400,78.34951733398438,-2.3603832721710205,-1.7519614696502686,-0.04886921867728233
1765548761065527000,78.35952709960938,-2.4080307483673096,-1.6786576509475708,-0.009773843921720982
1765548761075475700,78.36947583007813,-2.478891134262085,-1.595579981803894,0.1062905490398407
1765548761085485600,78.37948559570313,-2.5705208778381348,-1.549154281616211,0.3029891550540924
1765548761095465000,78.38946484375,-2.624277114868164,-1.5210545063018799,0.5057964324951172
1765548761105505000,78.39950512695313,-2.6230554580688477,-1.4978415966033936,0.5778785347938538
1765548761115484400,78.409484375,-2.6059510707855225,-1.480737328529358,0.48380526900291443
1765548761135473400,78.42947338867188,-2.554638385772705,-1.3781119585037231,0.2981022298336029
1765548761165502700,78.45950268554688,-2.4715607166290283,-1.186300277709961,0.384845107793808
1765548761175481900,78.46948193359376,-2.574186086654663,-1.037249207496643,0.485027015209198
1765548761185491700,78.47949169921876,-2.643824815750122,-0.9053022861480713,0.6780604124069214
1765548761195470800,78.48947094726563,-2.668259382247925,-0.8087855577468872,0.9492846131324768
1765548761205480700,78.49948071289063,-2.676811456680298,-0.7428121566772461,1.2082914113998413
1765548761225500200,78.51950024414063,-2.6193902492523193,-0.6792821288108826,1.2400563955307007
1765548761255468500,78.54946850585938,-2.6193902492523193,-0.5729916095733643,0.8356636762619019
1765548761265478100,78.55947802734374,-2.621833562850952,-0.5229006409645081,0.8869763612747192
1765548761275457500,78.56945751953126,-2.6035077571868896,-0.4434881806373596,1.0873401165008545
1765548761285467400,78.57946728515626,-2.6035077571868896,-0.4434881806373596,1.0873401165008545
1765548761295446500,78.58944653320313,-2.607172966003418,-0.294437050819397,1.693318486213684
1765548761305486800,78.59948681640626,-2.607172966003418,-0.294437050819397,1.693318486213684
1765548761315466000,78.60946606445313,-2.6193902492523193,-0.2834414839744568,1.8973474502563477
1765548761325445400,78.6194453125,-2.5521950721740723,-0.3029891550540924,1.8839083909988403
1765548761335424500,78.62942456054688,-2.4544565677642822,-0.3066543638706207,1.7287486791610718
1765548761345464800,78.63946484375,-2.411695957183838,-0.3176499307155609,1.606575608253479
1765548761395483100,78.68948315429688,-2.1868975162506104,-0.35063666105270386,1.7568484544754028
1765548761405493000,78.69949291992188,-2.1978931427001953,-0.3481931984424591,1.9999728202819824
1765548761415472000,78.70947216796876,-2.2430970668792725,-0.3396410644054413,2.180788993835449
1765548761425482000,78.71948193359376,-2.2992968559265137,-0.3176499307155609,2.289522886276245
1765548761435461000,78.72946118164063,-2.261423110961914,-0.3017674386501312,2.331061840057373
1765548761445440500,78.7394404296875,-2.216219186782837,-0.28955012559890747,2.252871036529541
1765548761465429500,78.75942944335938,-2.1392500400543213,-0.2675589919090271,2.0696115493774414
1765548761475408600,78.76940869140626,-2.085494041442871,-0.27977627515792847,1.9828685522079468
1765548761485449000,78.77944897460938,-2.040289878845215,-0.24068090319633484,1.892460584640503
1765548761495397600,78.78939770507813,-1.976759910583496,-0.17470745742321014,1.8264870643615723
1765548761505377000,78.799376953125,-1.8973474502563477,-0.11972958594560623,1.8570303916931152
1765548761515386600,78.80938671875,-1.8460347652435303,-0.05253441259264946,1.948660135269165
1765548761525366000,78.81936596679688,-1.8668042421340942,0.004886921960860491,1.986533761024475
1765548761535375600,78.82937573242188,-1.881464958190918,0.0708603709936142,1.8875735998153687
1765548761545416000,78.839416015625,-1.822821855545044,0.1368338167667389,1.6493362188339233
1765548761565466000,78.85946606445313,-1.568701982498169,0.25045475363731384,1.0115928649902344
1765548761585455000,78.879455078125,-1.33168625831604,0.40683624148368835,0.8686503767967224
1765548761595434200,78.88943432617188,-1.1740829944610596,0.43615779280662537,1.0543533563613892
1765548761605444000,78.89944409179688,-1.0323622226715088,0.4092797040939331,1.1447614431381226
1765548761615423200,78.90942333984376,-0.8943067193031311,0.3494149148464203,1.0311405658721924
1765548761625463600,78.91946362304688,-0.7550294399261475,0.2272418737411499,0.789237916469574
1765548761635443000,78.92944287109376,-0.5827654600143433,0.06719517707824707,0.5644394755363464
1765548761645483300,78.93948315429688,-0.4239404797554016,-0.07941248267889023,0.39095374941825867
1765548761665502700,78.95950268554688,-0.24923302233219147,-0.1771509200334549,0.1270599663257599
1765548761675512300,78.96951220703124,-0.16004669666290283,-0.16004669666290283,0.13316862285137177
1765548761685552600,78.979552734375,-0.02321287989616394,-0.19303341209888458,0.10384709388017654
1765548761695532000,78.98953198242188,0.12095131725072861,-0.24556782841682434,-0.10384709388017654
1765548761705541600,78.99954174804688,0.2370157092809677,-0.28466320037841797,-0.46547931432724
1765548761715551500,79.00955151367188,0.3396410644054413,-0.3323107063770294,-0.8087855577468872
1765548761725561300,79.01956127929688,0.48869219422340393,-0.38606682419776917,-1.0555751323699951
1765548761735540500,79.02954052734376,0.6328563690185547,-0.42271876335144043,-1.3487904071807861
1765548761745550300,79.03955029296876,0.7379252314567566,-0.4386012554168701,-1.626123309135437
1765548761755560000,79.04955981445312,0.8491026759147644,-0.4691445231437683,-1.7434093952178955
1765548761775549200,79.06954907226563,0.9456194043159485,-0.5619960427284241,-1.8558086156845093
1765548761785558800,79.07955883789063,0.9993755221366882,-0.6145304441452026,-2.0512855052948
1765548761795538200,79.0895380859375,1.0787880420684814,-0.675616979598999,-2.3188445568084717
1765548761805517300,79.09951733398438,1.1679743528366089,-0.769690215587616,-2.6059510707855225
1765548761815496400,79.10949633789062,1.2852604389190674,-0.8967501521110535,-2.8539624214172363
1765548761825475800,79.11947583007813,1.4135421514511108,-1.0653489828109741,-3.0213394165039062
1765548761835455000,79.129455078125,1.4795156717300415,-1.2522737979888916,-3.10197377204895
1765548761845495300,79.13949536132813,1.4721852540969849,-1.4563027620315552,-3.0445523262023926
1765548761855444000,79.14944384765624,1.4404202699661255,-1.644449234008789,-2.8796188831329346
1765548761875463700,79.16946362304688,1.370781660079956,-1.9559905529022217,-2.548529863357544
1765548761885504000,79.17950390625,1.3365731239318848,-2.105041742324829,-2.5033257007598877
1765548761895452700,79.18945263671876,1.3170254230499268,-2.2345449924468994,-2.546086311340332
1765548761905431800,79.19943188476563,1.3463469743728638,-2.333505153656006,-2.635272741317749
1765548761915411200,79.2094111328125,1.3866641521453857,-2.406809091567993,-2.76111102104187
1765548761925420800,79.2194208984375,1.3866641521453857,-2.406809091567993,-2.76111102104187
1765548761935430700,79.2294306640625,1.4282029867172241,-2.4471261501312256,-2.8942794799804688
1765548761945440500,79.2394404296875,1.4697418212890625,-2.4520130157470703,-2.981022357940674
1765548761955389200,79.24938916015626,1.4880677461624146,-2.4385740756988525,-2.992017984390259
1765548761995397600,79.28939770507813,1.3365731239318848,-2.406809091567993,-3.011565685272217
1765548762035375600,79.32937573242188,1.4269812107086182,-2.3689353466033936,-3.196047067642212
1765548762045385500,79.33938549804688,1.4648548364639282,-2.364048480987549,-3.0885345935821533
1765548762055395300,79.34939526367188,1.4929546117782593,-2.359161615371704,-3.0689868927001953
1765548762065374500,79.35937451171876,1.5051720142364502,-2.320066213607788,-3.0775392055511475
1765548762075353900,79.36935375976563,1.5161675214767456,-2.27852725982666,-3.081204414367676
1765548762085363500,79.37936352539063,1.4844025373458862,-2.255314588546753,-3.0921998023986816
1765548762105352400,79.3993525390625,1.441641926765442,-2.233323335647583,-3.1312952041625977
1765548762115331800,79.40933178710938,1.4196507930755615,-2.2479841709136963,-3.1618385314941406
1765548762125341400,79.41934155273438,1.4245377779006958,-2.255314588546753,-3.1386256217956543
1765548762135290400,79.42929028320313,1.4831807613372803,-2.2687535285949707,-3.0641000270843506
1765548762145330400,79.43933032226562,1.567480206489563,-2.2846360206604004,-2.989574432373047
1765548762155340300,79.44934033203126,1.6383405923843384,-2.2956316471099854,-2.9944615364074707
1765548762165380600,79.45938061523438,1.693318486213684,-2.3212878704071045,-3.037221908569336
1765548762175359700,79.46935986328126,1.7360789775848389,-2.361604928970337,-3.087312936782837
1765548762185400000,79.47940014648438,1.7189748287200928,-2.4019222259521484,-3.1667253971099854
1765548762195410000,79.48940991210938,1.6591099500656128,-2.420248031616211,-3.2180380821228027
1765548762225469700,79.5194697265625,1.6273449659347534,-2.481334686279297,-2.9321532249450684
1765548762235479600,79.5294794921875,1.577254056930542,-2.478891134262085,-2.8160886764526367
1765548762245489200,79.5394892578125,1.49906325340271,-2.4471261501312256,-2.783102035522461
1765548762255468500,79.54946850585938,1.4489723443984985,-2.41413950920105,-2.750115394592285
1765548762265447700,79.55944775390626,1.4563027620315552,-2.3884830474853516,-2.676811456680298
1765548762275457500,79.56945751953126,1.4941763877868652,-2.3603832721710205,-2.5473079681396484
1765548762285497900,79.57949780273438,1.5418238639831543,-2.328618288040161,-2.4019222259521484
1765548762295477000,79.58947705078126,1.5845844745635986,-2.274862289428711,-2.280970811843872
1765548762305486800,79.59948681640626,1.6029103994369507,-2.2394320964813232,-2.2272145748138428
1765548762335455000,79.629455078125,1.4819591045379639,-2.161241292953491,-2.339613914489746
1765548762345464800,79.63946484375,1.4966198205947876,-2.138028383255005,-2.274862289428711
1765548762355474700,79.649474609375,1.4844025373458862,-2.1111502647399902,-2.1343631744384766
1765548762365484300,79.659484375,1.4037683010101318,-2.085494041442871,-1.9364428520202637
1765548762375494100,79.669494140625,1.3255776166915894,-2.032959461212158,-1.7434093952178955
1765548762385504000,79.67950390625,1.2583824396133423,-1.9523253440856934,-1.6505578756332397
1765548762395513600,79.689513671875,1.215621829032898,-1.882686734199524,-1.6664403676986694
1765548762405523500,79.6995234375,1.225395679473877,-1.8167132139205933,-1.6920967102050781
1765548762435491600,79.72949169921876,1.1838568449020386,-1.6896532773971558,-1.587027907371521
1765548762445501400,79.73950146484376,1.1582005023956299,-1.6505578756332397,-1.4941763877868652
1765548762455480600,79.74948046875,1.1227703094482422,-1.607797384262085,-1.441641926765442
1765548762465490400,79.75949047851563,1.0739010572433472,-1.5613715648651123,-1.4135421514511108
1765548762475500300,79.76950024414063,1.0250319242477417,-1.5369369983673096,-1.3377948999404907
1765548762485510000,79.77951000976563,1.0042624473571777,-1.5125023126602173,-1.2107349634170532
1765548762495519700,79.78951977539063,1.0018190145492554,-1.5051720142364502,-1.1117748022079468
1765548762505529600,79.79952954101563,0.9773843884468079,-1.500285029411316,-1.1215485334396362
1765548762515539200,79.80953930664063,0.9138544201850891,-1.4746286869049072,-1.207069754600525
1765548762535528200,79.82952807617187,0.8063421249389648,-1.3939944505691528,-1.2180652618408203
1765548762545507600,79.83950756835938,0.8087855577468872,-1.3439035415649414,-1.0629055500030518
1765548762555486700,79.84948681640626,0.788016140460968,-1.2681562900543213,-0.9077457785606384
1765548762565496600,79.85949658203126,0.7452555894851685,-1.187522053718567,-0.7843509912490845
1765548762575475700,79.86947583007813,0.7073819637298584,-1.1215485334396362,-0.6939429044723511
1765548762585485600,79.87948559570313,0.7073819637298584,-1.1215485334396362,-0.6939429044723511
1765548762595495400,79.88949536132813,0.608421802520752,-0.9859365224838257,-0.6780604124069214
1765548762605505000,79.89950512695313,0.608421802520752,-0.9859365224838257,-0.6780604124069214
1765548762615515000,79.90951489257813,0.5668829679489136,-0.9285151958465576,-0.685390830039978
1765548762645483300,79.93948315429688,0.4960225820541382,-0.7440338730812073,-0.5900958180427551
1765548762655462400,79.94946240234376,0.4190535545349121,-0.7086036801338196,-0.4178318381309509
1765548762665441500,79.95944165039063,0.35552358627319336,-0.6621779203414917,-0.21991148591041565
1765548762675421000,79.9694208984375,0.30543261766433716,-0.5913175344467163,-0.05009094998240471
1765548762685461200,79.97946118164063,0.2932153046131134,-0.4948008358478546,0.06352998316287994
1765548762695440400,79.9894404296875,0.2834414839744568,-0.3836233615875244,0.1160643994808197
1765548762705450200,79.9994501953125,0.2687807083129883,-0.2626720666885376,0.13927727937698364
1765548762715459800,80.0094599609375,0.24923302233219147,-0.15027284622192383,0.16493362188339233
1765548762725469700,80.0194697265625,0.21380282938480377,-0.05497787147760391,0.23945917189121246
1765548762785497900,80.07949780273438,-0.08429940044879913,0.32986724376678467,0.8637634515762329
1765548762795507500,80.08950756835938,-0.13805554807186127,0.39095374941825867,0.9187413454055786
1765548762805517300,80.09951733398438,-0.19914206862449646,0.4508185386657715,0.9957103729248047
1765548762815496400,80.10949633789062,-0.25534167885780334,0.5143485069274902,1.0873401165008545
1765548762825536800,80.11953686523438,-0.304210901260376,0.5974262356758118,1.1850786209106445
1765548762845587000,80.1395869140625,-0.43615779280662537,0.750142514705658,1.3927727937698364
1765548762855596500,80.14959643554687,-0.4899139404296875,0.8246681094169617,1.470963478088379
1765548762865576000,80.15957592773438,-0.5057964324951172,0.9040805697441101,1.5173892974853516
1765548762895544000,80.1895439453125,-0.5326744914054871,1.1557570695877075,1.643227458000183
1765548762905584400,80.19958447265626,-0.5400048494338989,1.2315043210983276,1.7287486791610718
1765548762925573400,80.21957348632813,-0.5619960427284241,1.3524556159973145,1.8985692262649536
1765548762975652900,80.26965283203126,-0.6511823534965515,1.7263051271438599,2.387261390686035
1765548762985693200,80.27969311523438,-0.6243042945861816,1.7959438562393188,2.4837779998779297
1765548762995702800,80.28970288085938,-0.5974262356758118,1.860695481300354,2.5424211025238037
1765548763035742000,80.32974194335938,-0.6377432942390442,2.0842721462249756,2.707354784011841
1765548763075781000,80.36978100585938,-0.6291912198066711,2.180788993835449,2.911383867263794
1765548763085790700,80.37979077148438,-0.6487388610839844,2.2015583515167236,2.8967230319976807
1765548763095800600,80.38980053710938,-0.6927211880683899,2.230879783630371,2.8942794799804688
1765548763105810200,80.39981005859374,-0.7550294399261475,2.2455406188964844,2.930931329727173
1765548763115820000,80.40982006835938,-0.8197811841964722,2.250427484512329,3.011565685272217
1765548763125799400,80.41979931640626,-0.8735373020172119,2.2406537532806396,3.1300735473632812
1765548763135809000,80.42980908203126,-0.9065240025520325,2.2284364700317383,3.2485814094543457
1765548763165868800,80.45986889648438,-0.9224064946174622,2.155132532119751,3.1703906059265137
1765548763175848200,80.46984814453126,-0.9456194043159485,2.120924234390259,3.059213161468506
1765548763185857800,80.47985791015626,-0.9724974632263184,2.0867156982421875,3.011565685272217
1765548763195837200,80.48983715820313,-0.9969320893287659,2.0622811317443848,3.054326295852661
1765548763205847000,80.49984692382813,-1.036027431488037,2.0280725955963135,3.1593949794769287
1765548763215795700,80.50979565429688,-1.0836749076843262,1.9804251194000244,3.263242244720459
1765548763225805300,80.51980541992188,-1.1178834438323975,1.9327776432037354,3.3096678256988525
1765548763235815200,80.52981518554688,-1.147204875946045,1.882686734199524,3.2791247367858887
1765548763245825000,80.53982495117188,-1.147204875946045,1.882686734199524,3.2791247367858887
1765548763285772500,80.5797724609375,-1.282817006111145,1.7250834703445435,2.976135492324829
1765548763295782100,80.5897822265625,-1.3573426008224487,1.7250834703445435,3.0641000270843506
1765548763305792000,80.5997919921875,-1.4306464195251465,1.7055357694625854,3.2375857830047607
1765548763315771100,80.60977124023438,-1.4856243133544922,1.6774359941482544,3.400075912475586
1765548763325811500,80.6198115234375,-1.4819591045379639,1.6395623683929443,3.456275463104248
1765548763335760100,80.62976000976562,-1.4269812107086182,1.588249683380127,3.3646457195281982
1765548937319003600,254.61300366210938,0.10995574295520782,-0.039095375686883926,-0.4764748811721802
1765548937328782800,254.62278295898437,0.1417207419872284,-0.05253441259264946,0.1918116807937622
1765548937348602400,254.6426022949219,-0.9321803450584412,-0.16004669666290283,0.34574973583221436
1765548937358612200,254.6526123046875,-1.235169529914856,-0.16493362188339233,0.6377432942390442
1765548937378601200,254.67260131835937,-1.197295904159546,-0.15882496535778046,0.8148942589759827
1765548937388611000,254.68261108398437,-1.1545352935791016,-0.16249015927314758,0.7525860071182251
1765548937408630500,254.70263061523437,-1.0800096988677979,-0.1514945775270462,0.7183775305747986
1765548937428589000,254.72258911132812,-0.9724974632263184,-0.14782938361167908,0.7293730974197388
1765548937448608500,254.7426083984375,-0.8747590184211731,-0.14538592100143433,0.6487388610839844
1765548937458618400,254.75261840820312,-0.8234463334083557,-0.15760323405265808,0.6194173693656921
1765548937468567000,254.76256713867187,-0.7782423496246338,-0.17470745742321014,0.6255260109901428
1765548937478577000,254.77257690429687,-0.7464773058891296,-0.17959438264369965,0.608421802520752
1765548937488586500,254.78258642578126,-0.7293730974197388,-0.18814650177955627,0.5619960427284241
1765548937498596400,254.79259643554687,-0.7134906053543091,-0.19792033731937408,0.5424483418464661
1765548937508575500,254.80257543945314,-0.7134906053543091,-0.2076941877603531,0.5424483418464661
1765548937518585300,254.81258544921874,-0.7024950385093689,-0.20891591906547546,0.5754350423812866
1765548937548614700,254.84261474609374,-0.626747727394104,-0.17348572611808777,0.5485569834709167
1765548937568603600,254.86260375976562,-0.5436700582504272,-0.1966986060142517,0.41172316670417786
1765548937578583000,254.8725830078125,-0.5241223573684692,-0.21624629199504852,0.39584067463874817
1765548937588562200,254.88256225585937,-0.5180137157440186,-0.23090706765651703,0.4434881806373596
1765548937598602500,254.8926025390625,-0.5094616413116455,-0.23457226157188416,0.5009095072746277
1765548937608581600,254.90258154296876,-0.48258355259895325,-0.23090706765651703,0.4899139404296875
1765548937618622000,254.9126220703125,-0.44837507605552673,-0.21624629199504852,0.40194934606552124
1765548937628570600,254.92257055664064,-0.4141666293144226,-0.19792033731937408,0.32009339332580566
1765548937688568300,254.982568359375,-0.3029891550540924,-0.17837265133857727,0.2577851414680481
1765548937708587800,255.002587890625,-0.29077184200286865,-0.19425514340400696,0.26511552929878235
1765548937728546300,255.02254638671874,-0.17470745742321014,-0.24923302233219147,0.13927727937698364
1765548937738525400,255.032525390625,-0.17470745742321014,-0.24923302233219147,0.13927727937698364
1765548937768554800,255.0625546875,0.11850785464048386,-0.31031954288482666,-0.0757472887635231
1765548937778564600,255.07256469726562,0.19058994948863983,-0.3078760802745819,-0.16004669666290283
1765548937798553600,255.0925537109375,0.3543018400669098,-0.28099802136421204,-0.2968805134296417
1765548937808533000,255.10253295898437,0.47280970215797424,-0.24678955972194672,-0.3677408695220947
1765548937818542600,255.11254248046876,0.6047565937042236,-0.18570303916931152,-0.4642575979232788
1765548937828522000,255.12252197265624,0.7538077235221863,-0.1062905490398407,-0.5754350423812866
1765548937838531600,255.13253149414064,0.9260717034339905,-0.01710422709584236,-0.6841690540313721
1765548937848541400,255.14254150390624,1.0958921909332275,0.06841690838336945,-0.7904596328735352
1765548937878570800,255.17257080078124,1.568701982498169,0.27488934993743896,-0.8747590184211731
1765548937928619500,255.22261962890624,2.1514673233032227,0.42760565876960754,-1.216843605041504
1765548937968567000,255.26256713867187,2.598620653152466,0.4153883755207062,-1.4599679708480835
1765548937998535400,255.29253540039062,2.7562239170074463,0.32498031854629517,-1.577254056930542
1765548938068451000,255.362451171875,2.66337251663208,0.2687807083129883,-1.7360789775848389
1765548938108459500,255.40245947265626,2.808758497238159,0.3738495409488678,-1.6114624738693237
1765548938118469400,255.41246948242187,2.8319711685180664,0.39706242084503174,-1.5845844745635986
1765548938128448800,255.42244873046874,2.8490755558013916,0.42271876335144043,-1.557706356048584
1765548938138488800,255.43248876953126,2.8576276302337646,0.45814892649650574,-1.547932505607605
1765548938148468200,255.44246826171874,2.839301586151123,0.4948008358478546,-1.5454890727996826
1765548938158508500,255.45250854492187,2.7769935131073,0.5253441333770752,-1.538158655166626
1765548938168487700,255.46248779296874,2.6816983222961426,0.5693264007568359,-1.4978415966033936
1765548938198486500,255.49248657226562,2.4043655395507812,0.7354817390441895,-1.1850786209106445
1765548938228393700,255.52239379882812,2.0647244453430176,0.779464066028595,-1.0800096988677979
1765548938238434000,255.53243408203124,1.9462167024612427,0.7574729323387146,-1.1227703094482422
1765548938268402200,255.5624020996094,1.6493362188339233,0.6719517707824707,-1.273043155670166
1765548938288360700,255.58236059570314,1.5173892974853516,0.6511823534965515,-1.1545352935791016
1765548938298370600,255.59237060546874,1.4550809860229492,0.6426302194595337,-1.0286970138549805
1765548938308380400,255.60238037109374,1.3866641521453857,0.6279694437980652,-0.93095862865448
1765548938318390000,255.61239013671874,1.3072515726089478,0.6120869517326355,-0.8674286603927612
1765548938328400000,255.62239990234374,1.226617455482483,0.598647952079773,-0.8295549750328064
1765548938338409500,255.63240942382814,1.1655309200286865,0.5778785347938538,-0.8087855577468872
1765548938348419300,255.64241943359374,1.1105530261993408,0.5485569834709167,-0.8161159753799438
1765548938358429200,255.65242919921874,1.1105530261993408,0.5485569834709167,-0.8161159753799438
1765548938368438800,255.66243872070314,1.0201449394226074,0.49846604466438293,-0.7819074988365173
1765548938408508400,255.70250830078126,0.979827880859375,0.485027015209198,-0.504574716091156
1765548938418518300,255.71251831054687,0.9749409556388855,0.46792277693748474,-0.3628539443016052
1765548938428527900,255.72252783203126,0.960280179977417,0.4495968222618103,-0.24678955972194672
1765548938438537700,255.73253784179687,0.921184778213501,0.42271876335144043,-0.19058994948863983
1765548938448547600,255.74254760742187,0.8662069439888,0.39095374941825867,-0.19058994948863983
1765548938458526700,255.75252661132814,0.8148942589759827,0.35063666105270386,-0.2382374405860901
1765548938468536600,255.76253662109374,0.7745771408081055,0.2993239760398865,-0.28466320037841797
1765548938478577000,255.77257690429687,0.7367035150527954,0.2480112910270691,-0.2993239760398865
1765548938498535400,255.79253540039062,0.6206390857696533,0.1466076523065567,-0.2871066629886627
1765548938508545000,255.802544921875,0.5473352670669556,0.11239920556545258,-0.28099802136421204
1765548938518555000,255.81255493164062,0.48747047781944275,0.08185594528913498,-0.2687807083129883
1765548938528534000,255.8225339355469,0.42760565876960754,0.045204028487205505,-0.2675589919090271
1765548938538543900,255.8325439453125,0.3689626157283783,0.009773843921720982,-0.2981022298336029
1765548938548553700,255.8425537109375,0.294437050819397,-0.01466076634824276,-0.3225368559360504
1765548938558593800,255.85259375,0.20402899384498596,-0.03176499158143997,-0.29077184200286865
1765548938568603600,255.86260375976562,0.1014036312699318,-0.02687807008624077,-0.20525072515010834
1765548938578613500,255.87261352539062,0.030543262138962746,-0.025656340643763542,-0.08796459436416626
1765548938588623000,255.882623046875,-0.036651913076639175,-0.00366519158706069,-0.010995574295520782
1765548938608612400,255.9026123046875,-0.13439035415649414,0.05253441259264946,0.01710422709584236
1765548938628601300,255.92260131835937,-0.2015855312347412,0.0806342139840126,0.06963863968849182
1765548938638611000,255.93261083984376,-0.22846360504627228,0.08307767659425735,0.10506882518529892
1765548938648620800,255.94262084960937,-0.24190263450145721,0.07208210229873657,0.15882496535778046
1765548938658630700,255.95263061523437,-0.24678955972194672,0.04642575979232788,0.17104226350784302
1765548938668609800,255.96260986328124,-0.23579397797584534,0.02076941914856434,0.11850785464048386
1765548938678619600,255.97261962890624,-0.20891591906547546,0.00366519158706069,0.059864792972803116
1765548938688598800,255.98259887695312,-0.19792033731937408,-0.01710422709584236,0.051312681287527084
1765548938698608600,255.99260864257812,-0.1966986060142517,-0.03298672288656235,0.09285151958465576
1765548938748596500,256.0425964355469,-0.47280970215797424,-0.12828169763088226,0.3323107063770294
1765548938758606000,256.0526062011719,-0.5351179838180542,-0.16249015927314758,0.394618958234787
1765548938768616000,256.0626159667969,-0.5754350423812866,-0.19547687470912933,0.4105014503002167
1765548938778625500,256.07262548828123,-0.5852088928222656,-0.21135938167572021,0.3836233615875244
1765548938788574500,256.08257446289065,-0.598647952079773,-0.23090706765651703,0.3591887652873993
1765548938798553600,256.0925537109375,-0.6133087277412415,-0.2590068578720093,0.39217549562454224
1765548938818542600,256.11254248046873,-0.7342600226402283,-0.38728857040405273,0.5546656250953674
1765548938838531600,256.1325314941406,-0.8539896011352539,-0.5461135506629944,0.4434881806373596
1765548938848511000,256.14251098632815,-0.9138544201850891,-0.5864306092262268,0.3628539443016052
1765548938858551300,256.1525512695313,-0.9871582388877869,-0.588874101638794,0.34574973583221436
1765548938868530400,256.16253051757815,-1.0824532508850098,-0.5693264007568359,0.4043927788734436
1765548938878570800,256.1725708007813,-1.1643091440200806,-0.5290092825889587,0.5277875661849976
1765548938888580600,256.1825805664063,-1.225395679473877,-0.48747047781944275,0.6279694437980652
1765548938898590200,256.1925900878906,-1.2754865884780884,-0.4605923891067505,0.616973876953125
1765548938908600000,256.2026000976563,-1.310916781425476,-0.4508185386657715,0.504574716091156
1765548938918609700,256.2126096191406,-1.341460108757019,-0.43615779280662537,0.394618958234787
1765548938928589000,256.22258911132815,-1.3829989433288574,-0.4080579876899719,0.3799581825733185
1765548938938599000,256.23259887695315,-1.4343116283416748,-0.36651915311813354,0.47769662737846375
1765548938948608500,256.2426083984375,-1.4941763877868652,-0.3274237811565399,0.5974262356758118
1765548938958588000,256.252587890625,-1.5454890727996826,-0.3139847218990326,0.6597344875335693
1765548938968567000,256.2625671386719,-1.5931365489959717,-0.3225368559360504,0.6243042945861816
1765548938978577000,256.2725769042969,-1.6481144428253174,-0.35185837745666504,0.5070181488990784
1765548938988586500,256.28258642578123,-1.7116444110870361,-0.3897320330142975,0.38728857040405273
1765548938998596400,256.2925964355469,-1.7812830209732056,-0.4337143301963806,0.3591887652873993
1765548939008606200,256.3026062011719,-1.8399261236190796,-0.46303585171699524,0.45326200127601624
1765548939028625700,256.3226257324219,-1.8973474502563477,-0.45692721009254456,0.8063421249389648
1765548939038635500,256.3326354980469,-1.8973474502563477,-0.45692721009254456,0.8063421249389648
1765548939058655000,256.3526550292969,-1.9730947017669678,-0.4691445231437683,0.9541715383529663
1765548939068664800,256.3626647949219,-2.0366246700286865,-0.48747047781944275,0.9175195693969727
1765548939078674400,256.37267431640623,-2.118480682373047,-0.5021312236785889,0.8332201838493347
1765548939088623000,256.382623046875,-2.2040019035339355,-0.5057964324951172,0.807563841342926
1765548939098633000,256.39263305664065,-2.2773056030273438,-0.5143485069274902,0.8637634515762329
1765548939108642800,256.40264282226565,-2.3273966312408447,-0.5290092825889587,0.9920451641082764
1765548939118652400,256.41265234375,-2.3518311977386475,-0.5436700582504272,1.1594222784042358
1765548939158661000,256.4526611328125,-2.185675859451294,-0.6230825781822205,1.0910053253173828
1765548939168670700,256.46267065429686,-2.183232307434082,-0.6316346526145935,1.0604621171951294
1765548939178650000,256.4726501464844,-2.194227933883667,-0.6316346526145935,1.0836749076843262
1765548939188659700,256.48265966796873,-2.211332082748413,-0.616973876953125,1.0897835493087769
1765548939198700000,256.49269995117186,-2.2345449924468994,-0.6010913848876953,1.0531316995620728
1765548939228699000,256.5226989746094,-2.263866662979126,-0.49235737323760986,0.9590584635734558
1765548939248718300,256.54271826171873,-2.1978931427001953,-0.4031710624694824,1.0152580738067627
1765548939258728200,256.5527282714844,-2.12703275680542,-0.3579670190811157,1.0299187898635864
1765548939268707300,256.5627072753906,-2.059837579727173,-0.3188716471195221,1.0726794004440308
1765548939278747600,256.57274755859373,-2.009746551513672,-0.2993239760398865,1.1545352935791016
1765548939288757500,256.5827575683594,-1.99752938747406,-0.29565876722335815,1.225395679473877
1765548939298736600,256.5927365722656,-1.9950858354568481,-0.3078760802745819,1.226617455482483
1765548939308746500,256.6027465820313,-1.9938641786575317,-0.33597588539123535,1.1630873680114746
1765548939318756400,256.6127563476563,-1.9853121042251587,-0.3787364661693573,1.0958921909332275
1765548939328766000,256.6227658691406,-1.9620991945266724,-0.4080579876899719,1.047023057937622
1765548939348785700,256.6427856445313,-1.86191725730896,-0.3982841372489929,1.0421360731124878
1765548939368774700,256.66277465820315,-1.6786576509475708,-0.34086281061172485,1.0787880420684814
1765548939378753800,256.67275390625,-1.5601497888565063,-0.3176499307155609,1.0458012819290161
1765548939388763600,256.682763671875,-1.4489723443984985,-0.31031954288482666,0.9651671051979065
1765548939398742800,256.69274267578123,-1.3658946752548218,-0.3139847218990326,0.8674286603927612
1765548939408722200,256.7027221679688,-1.2974777221679688,-0.3323107063770294,0.8051204085350037
1765548939418701300,256.71270141601565,-1.235169529914856,-0.34574973583221436,0.7660250067710876
1765548939428680700,256.7226806640625,-1.1545352935791016,-0.34208452701568604,0.750142514705658
1765548939438720800,256.732720703125,-1.0445796251296997,-0.32986724376678467,0.7684684991836548
1765548939468719600,256.7627197265625,-0.6768386960029602,-0.18814650177955627,0.5204572081565857
1765548939478729500,256.7727294921875,-0.5656611919403076,-0.14782938361167908,0.3995058834552765
1765548939488708600,256.78270849609373,-0.4789183437824249,-0.12828169763088226,0.3139847218990326
1765548939498718500,256.7927185058594,-0.37751471996307373,-0.1111774742603302,0.2932153046131134
1765548939508728000,256.80272802734373,-0.25045475363731384,-0.08796459436416626,0.2981022298336029
1765548939518768400,256.81276831054686,-0.08796459436416626,-0.06108652427792549,0.2834414839744568
1765548939528747800,256.8227478027344,0.08185594528913498,-0.03420845419168472,0.20525072515010834
1765548939538788000,256.8327880859375,0.2370157092809677,-0.00733038317412138,0.07696902006864548
1765548939548797700,256.84279760742186,0.37751471996307373,0.013439035043120384,-0.05009094998240471
1765548939568817400,256.8628173828125,0.6047565937042236,0.06719517707824707,-0.16004669666290283
1765548939578827000,256.87282690429686,0.7134906053543091,0.1062905490398407,-0.11484266817569733
1765548939588867300,256.88286743164065,0.8124507665634155,0.16737708449363708,-0.09162978827953339
1765548939598877200,256.89287719726565,0.9199630618095398,0.23579397797584534,-0.1319468915462494
1765548939608856300,256.90285620117186,1.027475357055664,0.2981022298336029,-0.22968533635139465
1765548939618866200,256.9128662109375,1.1178834438323975,0.34208452701568604,-0.3591887652873993
1765548939628845300,256.92284521484373,1.2034045457839966,0.3640756905078888,-0.4764748811721802
1765548939638855200,256.9328552246094,1.2864822149276733,0.3689626157283783,-0.5375614166259766
1765548939668884500,256.9628845214844,1.538158655166626,0.30543261766433716,-0.6572909951210022
1765548939678924800,256.9729248046875,1.6371188163757324,0.2932153046131134,-0.8381071090698242
1765548939688934400,256.98293432617186,1.6371188163757324,0.2932153046131134,-0.8381071090698242
1765548939698944300,256.9929443359375,1.7348573207855225,0.29077184200286865,-1.0030407905578613
1765548939708923400,257.00292333984373,1.8301522731781006,0.304210901260376,-1.0922271013259888
1765548939718902800,257.0129028320313,1.9413297176361084,0.33108896017074585,-1.1044443845748901
1765548939728851500,257.0228515625,2.048841953277588,0.36651915311813354,-1.0971139669418335
1765548939748932000,257.0429321289063,2.222327709197998,0.44715335965156555,-1.1203268766403198
1765548939778961400,257.0729614257813,2.356718063354492,0.48747047781944275,-1.2779301404953003
1765548939788940500,257.0829404296875,2.3823745250701904,0.4899139404296875,-1.313360333442688
1765548939798950400,257.09295043945315,2.4104743003845215,0.4862487316131592,-1.3255776166915894
1765548939808899000,257.1028991699219,2.426356792449951,0.4911356568336487,-1.3158037662506104
1765548939818909000,257.1129089355469,2.434908866882324,0.504574716091156,-1.303586483001709
1765548939828949200,257.12294921875,2.4630086421966553,0.5448917746543884,-1.2693779468536377
1765548939838989300,257.1329892578125,2.4630086421966553,0.5448917746543884,-1.2693779468536377
1765548939848999200,257.14299926757815,2.4715607166290283,0.5632177591323853,-1.2229522466659546
1765548939859009000,257.15300903320315,2.4752259254455566,0.5827654600143433,-1.1447614431381226
1765548939889007600,257.18300756835936,2.4715607166290283,0.6597344875335693,-1.0690141916275024
1765548939899017500,257.193017578125,2.4239132404327393,0.6878342628479004,-1.0848966836929321
1765548939909027300,257.20302734375,2.356718063354492,0.7159340381622314,-1.0128145217895508
1765548939919006500,257.21300634765623,2.2931880950927734,0.7513642311096191,-0.8686503767967224
1765548939929016300,257.2230163574219,2.2040019035339355,0.7929030656814575,-0.7611380815505981
1765548939939026000,257.23302587890623,2.120924234390259,0.8344419002532959,-0.6719517707824707
1765548939949005300,257.2430053710938,2.0622811317443848,0.8625417351722717,-0.5742133259773254
1765548939959045600,257.2530456542969,1.9938641786575317,0.8955284357070923,-0.4862487316131592
1765548939989105400,257.28310546875,1.7763961553573608,0.9810495972633362,-0.3139847218990326
1765548939999084500,257.29308447265623,1.6823228597640991,1.0018190145492554,-0.2981022298336029
1765548940009033500,257.30303344726565,1.5528194904327393,0.9957103729248047,-0.27977627515792847
1765548940019012600,257.3130126953125,1.4135421514511108,0.9810495972633362,-0.26633724570274353
1765548940029022500,257.3230224609375,1.2424999475479126,0.9578366875648499,-0.27122417092323303
1765548940039032000,257.33303198242186,1.0848966836929321,0.9395107626914978,-0.25045475363731384
1765548940049042000,257.3430419921875,0.9553932547569275,0.9297369122505188,-0.18570303916931152
1765548940059051800,257.3530517578125,0.8527678847312927,0.921184778213501,-0.12095131725072861
1765548940089050400,257.38305029296873,0.7122688889503479,0.8808676600456238,0.05009094998240471
1765548940099060200,257.3930603027344,0.6866125464439392,0.846659243106842,0.10873401165008545
1765548940109070000,257.4030700683594,0.6475171446800232,0.7941248416900635,0.13072516024112701
1765548940119079700,257.41307958984373,0.598647952079773,0.7293730974197388,0.12461651116609573
1765548940129059000,257.4230590820313,0.5510004758834839,0.6536257863044739,0.12339477986097336
1765548940139068700,257.4330686035156,0.5057964324951172,0.588874101638794,0.11850785464048386
1765548940149017600,257.443017578125,0.46670106053352356,0.5216789245605469,0.1160643994808197
1765548940159057700,257.4530576171875,0.43615779280662537,0.45326200127601624,0.1417207419872284
1765548940169067500,257.46306762695315,0.3995058834552765,0.39217549562454224,0.17959438264369965
1765548940209106700,257.50310668945315,0.23579397797584534,0.1661553531885147,0.08429940044879913
1765548940219116300,257.5131162109375,0.19303341209888458,0.11484266817569733,-0.05864306539297104
1765548940229095700,257.523095703125,0.14294247329235077,0.0659734457731247,-0.13439035415649414
1765548940239105300,257.53310522460936,0.08307767659425735,0.04398229718208313,-0.15515977144241333
1765548940249115100,257.543115234375,0.02932153269648552,0.02932153269648552,-0.14538592100143433
1765548940259125000,257.553125,0.012217304669320583,0.019547687843441963,-0.1270599663257599
1765548940269134600,257.56313452148436,0.02076941914856434,0.018325956538319588,-0.15515977144241333
1765548940279114000,257.5731140136719,0.00733038317412138,0.018325956538319588,-0.22479841113090515
1765548940309082000,257.60308203125,-0.04886921867728233,-0.012217304669320583,-0.2370157092809677
1765548940319122400,257.6131223144531,-0.0757472887635231,-0.042760565876960754,-0.15760323405265808
1765548940329101800,257.62310180664065,-0.1014036312699318,-0.08307767659425735,-0.09162978827953339
1765548940339111400,257.633111328125,-0.12217304855585098,-0.12095131725072861,-0.08185594528913498
1765548940349090800,257.6430908203125,-0.12217304855585098,-0.12095131725072861,-0.08185594528913498
1765548940359100400,257.65310034179686,-0.14294247329235077,-0.14782938361167908,-0.10995574295520782
1765548940369079800,257.6630798339844,-0.21868975460529327,-0.19914206862449646,-0.09040805697441101
1765548940389099300,257.6830993652344,-0.27611109614372253,-0.2125810980796814,-0.013439035043120384
1765548940409088300,257.7030881347656,-0.39095374941825867,-0.22479841113090515,0.14905111491680145
1765548940419098000,257.7130981445313,-0.4508185386657715,-0.22602014243602753,0.1966986060142517
1765548940429077200,257.7230771484375,-0.504574716091156,-0.2272418737411499,0.21868975460529327
1765548940439087000,257.73308715820315,-0.5558874011039734,-0.22479841113090515,0.25534167885780334
1765548940449097000,257.74309692382815,-0.618195652961731,-0.21380282938480377,0.2981022298336029
1765548940459076000,257.753076171875,-0.6890559792518616,-0.2064724564552307,0.34086281061172485
1765548940469055200,257.76305517578123,-0.797789990901947,-0.18570303916931152,0.38117989897727966
1765548940479095600,257.77309545898436,-0.797789990901947,-0.18570303916931152,0.38117989897727966
1765548940489105400,257.78310546875,-0.8515461683273315,-0.1918116807937622,0.4190535545349121
1765548940529083400,257.8230834960938,-0.9847147464752197,-0.3127630054950714,0.46670106053352356
1765548940539093200,257.8330932617188,-0.9908234477043152,-0.34086281061172485,0.4056145250797272
1765548940549102800,257.8431027832031,-1.0335839986801147,-0.3591887652873993,0.36529740691185
1765548940559082200,257.85308227539065,-1.0971139669418335,-0.37140607833862305,0.39217549562454224
1765548940569061400,257.86306127929686,-1.1557570695877075,-0.3799581825733185,0.4715879559516907
1765548940579071200,257.8730712890625,-1.2021827697753906,-0.3982841372489929,0.4996877610683441
1765548940589050400,257.88305029296873,-1.2180652618408203,-0.4202753007411957,0.45692721009254456
1765548940599060200,257.8930603027344,-1.207069754600525,-0.45204028487205505,0.4105014503002167
1765548940619079700,257.91307958984373,-1.226617455482483,-0.47769662737846375,0.4153883755207062
1765548940629028600,257.92302856445315,-1.2486085891723633,-0.4508185386657715,0.45814892649650574
1765548940639038200,257.9330380859375,-1.29381263256073,-0.4105014503002167,0.5290092825889587
1765548940649017600,257.943017578125,-1.3634512424468994,-0.3836233615875244,0.6633996367454529
1765548940659027200,257.95302709960936,-1.4367550611495972,-0.384845107793808,0.8307767510414124
1765548940669037000,257.963037109375,-1.5063936710357666,-0.41172316670417786,0.9615018963813782
1765548940679047000,257.973046875,-1.5638149976730347,-0.4447098970413208,0.998153805732727
1765548940689026000,257.9830261230469,-1.6004669666290283,-0.48747047781944275,0.970054030418396
1765548940719025000,258.0130249023438,-1.6676621437072754,-0.5852088928222656,0.8234463334083557
1765548940728943000,258.0229431152344,-1.7043139934539795,-0.5754350423812866,0.8600982427597046
1765548940738922200,258.0329221191406,-1.7470746040344238,-0.5314527750015259,0.9615018963813782
1765548940748932000,258.0429321289063,-1.7996090650558472,-0.4789183437824249,1.1007791757583618
1765548940758911200,258.0529111328125,-1.8362609148025513,-0.4508185386657715,1.2229522466659546
1765548940768890600,258.062890625,-1.8277088403701782,-0.4398229718208313,1.263269305229187
1765548940778900200,258.07290014648436,-1.7837265729904175,-0.4386012554168701,1.2131783962249756
1765548940788849200,258.0828491210938,-1.7324138879776,-0.44593164324760437,1.0971139669418335
1765548940798858800,258.0928586425781,-1.7006487846374512,-0.44837507605552673,0.9566149711608887
1765548940838806300,258.13280615234373,-1.9058995246887207,-0.5436700582504272,1.1924089193344116
1765548940848816000,258.1428161621094,-1.938886284828186,-0.5766568183898926,1.2571606636047363
1765548940858825700,258.15282568359373,-1.947438359260559,-0.6023131608963013,1.2718214988708496
1765548940868835600,258.1628356933594,-1.9462167024612427,-0.6194173693656921,1.2583824396133423
1765548940878745300,258.1727453613281,-1.948660135269165,-0.6243042945861816,1.2412781715393066
1765548940888724700,258.18272485351565,-1.9559905529022217,-0.6243042945861816,1.2290608882904053
1765548940898704000,258.19270385742186,-1.95965576171875,-0.6218608021736145,1.225395679473877
1765548940908713700,258.20271362304686,-1.9608774185180664,-0.6206390857696533,1.1838568449020386
1765548940928641500,258.2226416015625,-1.9828685522079468,-0.6340781450271606,1.1056660413742065
1765548940938681900,258.2326818847656,-1.99752938747406,-0.6511823534965515,1.1691961288452148
1765548940948691700,258.2426916503906,-1.987755537033081,-0.6609562039375305,1.2620476484298706
1765548940958701300,258.2527014160156,-1.9755382537841797,-0.6572909951210022,1.3072515726089478
1765548940968711200,258.2627111816406,-1.9425514936447144,-0.646295428276062,1.2779301404953003
1765548940978690600,258.27269067382815,-1.9425514936447144,-0.646295428276062,1.2779301404953003
1765548940988639200,258.28263916015624,-1.8887953758239746,-0.6133087277412415,1.1899654865264893
1765548940998648800,258.29264892578124,-1.822821855545044,-0.5754350423812866,1.0995573997497559
1765548941028678100,258.32267822265624,-1.5454890727996826,-0.5326744914054871,0.9541715383529663
1765548941038657500,258.3326574707031,-1.4477506875991821,-0.5424483418464661,0.8442157506942749
1765548941048697900,258.34269775390624,-1.3732250928878784,-0.5473352670669556,0.6988298296928406
1765548941058677000,258.3526770019531,-1.301142930984497,-0.5216789245605469,0.5974262356758118
1765548941068686800,258.3626867675781,-1.225395679473877,-0.4642575979232788,0.5937610268592834
1765548941078696400,258.3726965332031,-1.1362093687057495,-0.394618958234787,0.6841690540313721
1765548941088675800,258.38267578125,-1.0201449394226074,-0.33108896017074585,0.7745771408081055
1765548941098655000,258.39265502929686,-0.8686503767967224,-0.2675589919090271,0.759916365146637
1765548941108664800,258.40266479492186,-0.5387831330299377,-0.2028072625398636,0.3995058834552765
1765548941138694100,258.43269409179686,-0.28099802136421204,-0.17837265133857727,0.10995574295520782
1765548941148673300,258.44267333984374,-0.15393804013729095,-0.1417207419872284,0.08185594528913498
1765548941158713600,258.45271362304686,-0.00733038317412138,-0.0806342139840126,0.08429940044879913
1765548941168723500,258.46272338867186,0.1563815027475357,-0.006108652334660292,0.07696902006864548
1765548941198691600,258.4926916503906,0.6511823534965515,0.23457226157188416,-0.1918116807937622
1765548941208701400,258.5027014160156,0.8026769161224365,0.3139847218990326,-0.251676470041275
1765548941218711300,258.5127111816406,0.9456194043159485,0.38240164518356323,-0.2785545587539673
