time,seconds_elapsed,z,y,x
1765548681425134600,-1.280865478515625,9.643844604492188,-0.8403648138046265,-0.9050082564353943
1765548681465112600,-1.240887451171875,10.079588890075684,-1.235408067703247,-1.1037269830703735
1765548681475122400,-1.230877685546875,10.247182846069336,-1.280897855758667,-1.1468225717544556
1765548681485132000,-1.220867919921875,9.818621635437012,-1.479616641998291,-1.2090718746185303
1765548681495111400,-1.210888671875,10.065223693847656,-0.6751648783683777,-1.0031704902648926
1765548681505121000,-1.20087890625,10.031704902648926,-0.47884035110473633,-0.8643068075180054
1765548681515131000,-1.190869140625,10.007762908935547,-0.3926490843296051,-0.9050082564353943
1765548681525171200,-1.180828857421875,9.988609313964844,-0.6919242739677429,-0.9074024558067322
1765548681555231000,-1.15076904296875,9.928754806518555,-1.0821791887283325,-1.113303780555725
1765548681565240800,-1.14075927734375,9.880870819091797,-0.8762778043746948,-0.9696516990661621
1765548681575250400,-1.13074951171875,9.847352027893066,-1.0199298858642578,-1.115697979927063
1765548681585260300,-1.12073974609375,9.713275909423828,-1.0223240852355957,-1.2234370708465576
1765548681595239400,-1.110760498046875,9.72285270690918,-0.7972691655158997,-1.137245774269104
1765548681605279700,-1.10072021484375,9.68933391571045,-0.6105214357376099,-0.9959878921508789
1765548681615259100,-1.090740966796875,9.80904483795166,-0.586579442024231,-1.070208191871643
1765548681625268700,-1.080731201171875,9.792284965515137,-0.7254431247711182,-1.0534487962722778
1765548681635278600,-1.070721435546875,9.8784761428833,-0.7733271718025208,-1.0773907899856567
1765548681665277400,-1.04072265625,9.854534149169922,-0.7182605266571045,-1.036689281463623
1765548681675256600,-1.030743408203125,9.861717224121094,-0.7493851184844971,-0.9768342971801758
1765548681685297000,-1.020703125,9.967061996459961,-0.8667010068893433,-0.9481038451194763
1765548681695306800,-1.010693359375,9.837775230407715,-0.9983820915222168,-0.9528923034667969
1765548681705286000,-1.000714111328125,9.876082420349121,-1.1037269830703735,-1.0295066833496094
1765548681715265300,-0.990734619140625,9.883264541625977,-1.0103530883789062,-1.05105459690094
1765548681725305300,-0.980694580078125,9.835380554199219,-0.8954314589500427,-1.0582371950149536
1765548681735284700,-0.97071533203125,9.86650562286377,-0.7948749661445618,-1.0654197931289673
1765548681745263900,-0.960736083984375,9.84495735168457,-0.569819986820221,-0.9528923034667969
1765548681765283600,-0.94071630859375,9.923966407775879,-0.7469909191131592,-1.0965443849563599
1765548681775293200,-0.930706787109375,9.864110946655273,-0.8068459630012512,-0.9385270476341248
1765548681785303000,-0.920697021484375,9.840168952941895,-0.9217676520347595,-0.8858546018600464
1765548681795313000,-0.91068701171875,9.914389610290527,-0.7493851184844971,-0.9600749015808105
1765548681805292000,-0.9007080078125,9.86889934539795,-0.5841852426528931,-0.9768342971801758
1765548681815271200,-0.890728759765625,9.849745750427246,-0.730231523513794,-1.01753568649292
1765548681825281000,-0.880718994140625,9.86650562286377,-0.7374141216278076,-1.1276689767837524
1765548681835260200,-0.87073974609375,9.9000244140625,-0.8259995579719543,-1.01753568649292
1765548681845300500,-0.860699462890625,9.916783332824707,-0.7565677165985107,-1.0055646896362305
1765548681865289500,-0.84071044921875,9.959878921508789,-0.6919242739677429,-1.0247182846069336
1765548681875268900,-0.830731201171875,9.880870819091797,-0.828393816947937,-0.9888052940368652
1765548681885278500,-0.820721435546875,9.864110946655273,-0.9433154463768005,-0.9576807022094727
1765548681895257900,-0.8107421875,9.828198432922363,-0.8906430602073669,-0.9648633003234863
1765548681905237000,-0.800762939453125,9.830592155456543,-0.8188169598579407,-0.9864110946655273
1765548681915246800,-0.790753173828125,9.90241813659668,-0.8571242094039917,-0.9720458984375
1765548681925256700,-0.780743408203125,9.888052940368652,-0.7589619159698486,-0.9241618514060974
1765548681935266300,-0.770733642578125,9.883264541625977,-0.7350199222564697,-1.015141487121582
1765548681945276200,-0.760723876953125,9.773131370544434,-0.8595184087753296,-1.0103530883789062
1765548681955286000,-0.7507138671875,9.799467086791992,-0.8475474119186401,-1.0079588890075684
1765548681975305500,-0.730694580078125,9.792284965515137,-0.7757213711738586,-1.0055646896362305
1765548681985315300,-0.7206845703125,9.787496566772461,-0.8188169598579407,-0.9026140570640564
1765548681995264000,-0.710736083984375,9.823410034179688,-0.8331822156906128,-1.0606313943862915
1765548682005304300,-0.70069580078125,9.823410034179688,-0.8523358106613159,-0.9959878921508789
1765548682015314000,-0.69068603515625,9.823410034179688,-0.8523358106613159,-0.9959878921508789
1765548682025293300,-0.680706787109375,9.880870819091797,-0.7924807667732239,-0.8906430602073669
1765548682035303000,-0.670697021484375,9.825803756713867,-0.7158663272857666,-0.9289502501487732
1765548682045312800,-0.660687255859375,9.75637149810791,-0.6967126727104187,-0.9744400978088379
1765548682055322600,-0.650677490234375,9.682151794433594,-0.706289529800415,-0.912190854549408
1765548682065332200,-0.640667724609375,9.674968719482422,-0.5937620401382446,-0.9816226959228516
1765548682075342000,-0.630657958984375,9.775525093078613,-0.8667010068893433,-0.9720458984375
1765548682085352000,-0.62064794921875,9.81143856048584,-0.9552865028381348,-0.9624691009521484
1765548682095331000,-0.6106689453125,9.81143856048584,-1.1109095811843872,-0.9864110946655273
1765548682105341000,-0.6006591796875,9.821015357971191,-1.05105459690094,-0.9648633003234863
1765548682115350500,-0.5906494140625,9.830592155456543,-1.0414776802062988,-1.0079588890075684
1765548682135431200,-0.57056884765625,9.86650562286377,-0.8140285611152649,-0.9385270476341248
1765548682155481300,-0.5505185546875,9.847352027893066,-0.9313444495201111,-0.9864110946655273
1765548682165491000,-0.540509033203125,9.84495735168457,-0.8475474119186401,-0.8882488012313843
1765548682175500800,-0.530499267578125,9.818621635437012,-0.6991068720817566,-0.8547300100326538
1765548682195550700,-0.51044921875,9.823410034179688,-0.7326257228851318,-0.8690952062606812
1765548682205560600,-0.500439453125,9.940725326538086,-0.8547300100326538,-0.8571242094039917
1765548682215539700,-0.490460205078125,10.012551307678223,-1.0055646896362305,-0.8451532125473022
1765548682225580000,-0.480419921875,10.007762908935547,-1.0319008827209473,-0.849941611289978
1765548682235559400,-0.470440673828125,10.019734382629395,-1.0223240852355957,-0.9696516990661621
1765548682245569000,-0.460430908203125,9.979032516479492,-0.9624691009521484,-0.9241618514060974
1765548682255579000,-0.450421142578125,9.983820915222168,-1.0342950820922852,-0.9528923034667969
1765548682265588700,-0.440411376953125,9.983820915222168,-0.9576807022094727,-0.9097966551780701
1765548682275598300,-0.430401611328125,10.010157585144043,-0.8858546018600464,-0.9409212470054626
1765548682285608200,-0.420391845703125,10.034099578857422,-0.9792284965515137,-0.9576807022094727
1765548682295618000,-0.4103818359375,9.959878921508789,-0.9193734526634216,-0.8810662031173706
1765548682305658000,-0.400341796875,9.895236015319824,-0.8954314589500427,-0.8427590131759644
1765548682315668000,-0.39033203125,9.840168952941895,-0.8331822156906128,-0.9050082564353943
1765548682325677800,-0.380322265625,9.880870819091797,-0.8810662031173706,-0.933738648891449
1765548682335657000,-0.370343017578125,9.84256362915039,-0.8188169598579407,-0.7829039692878723
1765548682345666800,-0.360333251953125,9.775525093078613,-0.9672574996948242,-0.8020575642585754
1765548682365686300,-0.340313720703125,9.86889934539795,-1.0319008827209473,-0.7206547260284424
1765548682375665700,-0.330334228515625,10.017339706420898,-0.9576807022094727,-0.7254431247711182
1765548682385705700,-0.320294189453125,10.160991668701172,-0.8930372595787048,-0.6991068720817566
1765548682405695000,-0.300304931640625,10.251971244812012,-1.3838485479354858,-1.0438719987869263
1765548682415704600,-0.29029541015625,10.357316970825195,-0.3447650372982025,-1.5873557329177856
1765548682425714400,-0.28028564453125,10.062829971313477,-1.0606313943862915,-0.8930372595787048
1765548682435724000,-0.27027587890625,9.825803756713867,-1.5131354331970215,-0.9289502501487732
1765548682445703400,-0.260296630859375,9.727641105651855,-1.335964560508728,-1.3862427473068237
1765548682455682600,-0.2503173828125,9.967061996459961,-1.091755986213684,-1.316810965538025
1765548682465692400,-0.2403076171875,9.921571731567383,-0.8738836050033569,-1.0342950820922852
1765548682475702300,-0.230297607421875,9.696516990661621,-1.0031704902648926,-1.094150185585022
1765548682485742300,-0.220257568359375,9.366117477416992,-0.9241618514060974,-1.0271124839782715
1765548682515710700,-0.190289306640625,9.136273384094238,-0.8786720037460327,-1.2258312702178955
1765548682525751000,-0.1802490234375,9.327810287475586,-1.1085153818130493,-1.3694833517074585
1765548682535761000,-0.170239013671875,9.50498104095459,-0.9648633003234863,-1.4077905416488647
1765548682545770500,-0.1602294921875,9.639056205749512,-0.8906430602073669,-1.335964560508728
1765548682555780400,-0.1502197265625,9.591172218322754,-0.871489405632019,-1.4221558570861816
1765548682565790000,-0.1402099609375,9.394847869873047,-0.42377370595932007,-1.5059528350830078
1765548682575799800,-0.1302001953125,9.476250648498535,-0.19632454216480255,-1.702277421951294
1765548682585809700,-0.1201904296875,9.373299598693848,0.12928688526153564,-1.7980455160140991
1765548682595788800,-0.110211181640625,9.402029991149902,-0.07661445438861847,-1.5203180313110352
1765548682625787600,-0.08021240234375,9.785101890563965,-1.7621324062347412,-1.2713210582733154
1765548682635766800,-0.070233154296875,9.758766174316406,-1.8746598958969116,-1.161187767982483
1765548682645776600,-0.060223388671875,9.801861763000488,-1.6280571222305298,-0.9983820915222168
1765548682655786500,-0.050213623046875,9.677363395690918,-1.4245500564575195,-0.9696516990661621
1765548682675806000,-0.030194091796875,9.141061782836914,-2.0661959648132324,-0.7398083209991455
1765548682685815800,-0.02018408203125,9.069235801696777,-2.5450363159179688,-0.35673606395721436
1765548682695795000,-0.010205078125,9.069235801696777,-2.5450363159179688,-0.35673606395721436
1765548682715784000,0.009783935546875,9.131484985351562,-2.853888511657715,-0.31364041566848755
1765548682725763300,0.019763427734375,9.253589630126953,-2.7533318996429443,-0.2944868206977844
1765548682735742500,0.029742431640625,9.39245319366455,-2.63362193107605,-0.26575639843940735
1765548682745752300,0.03975244140625,9.526528358459473,-2.5330653190612793,-0.45010992884635925
1765548682755762000,0.049761962890625,9.528923034667969,-2.2433669567108154,-0.6799532771110535
1765548682765771800,0.059771728515625,9.639056205749512,-2.099714994430542,-0.9385270476341248
1765548682775751000,0.0697509765625,9.478644371032715,-1.965639591217041,-1.0079588890075684
1765548682785791200,0.079791259765625,9.476250648498535,-2.410961151123047,-1.0342950820922852
1765548682795770600,0.0897705078125,9.552865028381348,-2.5522189140319824,-0.5913678407669067
1765548682805780200,0.0997802734375,9.29189682006836,-3.1890766620635986,-0.3758896589279175
1765548682845849900,0.139849853515625,9.155426979064941,-4.01268196105957,-0.004788403399288654
1765548682855859700,0.149859619140625,9.497797966003418,-4.4077253341674805,-0.08140286058187485
1765548682865869300,0.159869384765625,9.57201862335205,-4.108449935913086,-0.1364694982767105
1765548682875848700,0.1698486328125,9.011775016784668,-5.106832027435303,-0.6847416758537292
1765548682885827800,0.179827880859375,8.628703117370605,-5.47075080871582,-0.3902548849582672
1765548682895807200,0.18980712890625,8.671798706054688,-5.188235282897949,0.28969839215278625
1765548682905816800,0.19981689453125,8.81784439086914,-4.764461517333984,0.43335050344467163
1765548682915796200,0.209796142578125,8.844181060791016,-4.929661273956299,0.10295066982507706
1765548682925805800,0.219805908203125,8.83699893951416,-5.396530628204346,-0.22026655077934265
1765548682935785200,0.22978515625,9.023746490478516,-5.485116004943848,-0.3423708379268646
1765548682945795000,0.239795166015625,8.956708908081055,-5.0685248374938965,-0.1149216815829277
1765548682955774200,0.249774169921875,9.011775016784668,-4.774038314819336,-0.009576806798577309
1765548682965814500,0.259814453125,8.868123054504395,-4.754884719848633,-0.0454898327589035
1765548682975793700,0.269793701171875,8.53532886505127,-4.7836151123046875,-0.2322375625371933
1765548682985803500,0.279803466796875,8.396465301513672,-4.898536682128906,-0.3734954595565796
1765548682995782700,0.28978271484375,8.379706382751465,-5.0469770431518555,-0.3447650372982025
1765548683005792500,0.29979248046875,8.485051155090332,-5.367800235748291,-0.4429273009300232
1765548683015802400,0.30980224609375,8.580819129943848,-5.580883979797363,-0.5363011956214905
1765548683025812000,0.31981201171875,8.576030731201172,-5.767632007598877,-0.5363011956214905
1765548683045801000,0.339801025390625,8.35336971282959,-5.540182590484619,-0.38307225704193115
1765548683055780400,0.3497802734375,7.967903137207031,-5.521028995513916,-0.3232172429561615
1765548683065790000,0.3597900390625,7.886500358581543,-5.549759387969971,-0.3687070608139038
1765548683075799800,0.3697998046875,7.709329605102539,-6.112396717071533,-0.6248866319656372
1765548683085809700,0.3798095703125,7.603984832763672,-6.861782073974609,-0.9145850539207458
1765548683095788800,0.389788818359375,7.412448406219482,-7.247248649597168,-1.0127472877502441
1765548683105829000,0.3998291015625,7.091625213623047,-7.314286231994629,-0.9720458984375
1765548683115808300,0.409808349609375,6.8043212890625,-6.976703643798828,-0.6272808313369751
1765548683125848600,0.4198486328125,6.631938934326172,-6.825869083404541,-0.33758243918418884
1765548683135858400,0.4298583984375,6.497863292694092,-7.094019412994385,-0.17477671802043915
1765548683155847400,0.449847412109375,6.806715488433838,-7.331045627593994,-0.002394201699644327
1765548683165887700,0.4598876953125,6.794744491577148,-7.422025203704834,-0.019153613597154617
1765548683175867000,0.469866943359375,6.8593878746032715,-7.347805023193359,0.12210428714752197
1765548683185907200,0.4799072265625,6.952761650085449,-7.436390399932861,0.2082955539226532
1765548683195917000,0.4899169921875,6.806715488433838,-7.405265808105469,0.2561795711517334
1765548683205927000,0.499927001953125,6.739677906036377,-7.383718013763428,0.3687070608139038
1765548683215906000,0.509906005859375,6.718130111694336,-7.4770917892456055,0.35434186458587646
1765548683225916000,0.519916015625,6.718130111694336,-7.331045627593994,0.40940847992897034
1765548683235925500,0.529925537109375,6.5912370681762695,-7.216124057769775,0.3998316824436188
1765548683255884000,0.549884033203125,6.370970726013184,-7.134721279144287,0.40940847992897034
1765548683265894000,0.559893798828125,6.452373504638672,-7.01979923248291,0.4141969084739685
1765548683275873000,0.569873046875,6.588842868804932,-7.184999465942383,0.40462008118629456
1765548683285913300,0.579913330078125,6.596025466918945,-7.3454108238220215,0.35913026332855225
1765548683295892500,0.589892578125,6.603208065032959,-7.510610580444336,0.2968810200691223
1765548683305902300,0.59990234375,6.627150535583496,-7.675810813903809,0.21787235140800476
1765548683315912200,0.609912109375,6.63433313369751,-7.577648162841797,0.21787235140800476
1765548683325921800,0.619921875,6.557718276977539,-7.297526836395264,0.24181437492370605
1765548683335901200,0.629901123046875,6.421248912811279,-7.113173484802246,0.22505496442317963
1765548683345941500,0.63994140625,6.327875137329102,-6.981492042541504,0.272938996553421
1765548683365930500,0.659930419921875,6.124367713928223,-6.557718276977539,0.21547815203666687
1765548683385950000,0.679949951171875,5.655104637145996,-6.689399719238281,0.24181437492370605
1765548683425958400,0.71995849609375,3.8714241981506348,-7.513004779815674,0.19871874153614044
1765548683445947600,0.73994775390625,3.3016040325164795,-7.46033239364624,0.3687070608139038
1765548683455987700,0.74998779296875,3.1866824626922607,-7.673416614532471,0.507570743560791
1765548683486078200,0.780078125,3.141192674636841,-7.905653953552246,0.7541735172271729
1765548683526025700,0.820025634765625,2.0590133666992188,-8.686163902282715,1.5442601442337036
1765548683586053600,0.8800537109375,1.7812861204147339,-10.20887565612793,2.736572504043579
1765548683596033000,0.890032958984375,1.9153614044189453,-10.27591323852539,2.8179752826690674
1765548683616083000,0.9100830078125,1.644816517829895,-10.723628997802734,2.8395233154296875
1765548683626092800,0.9200927734375,1.338358759880066,-10.742782592773438,2.9305028915405273
1765548683636102700,0.9301025390625,1.0462661981582642,-10.884040832519531,3.0382418632507324
1765548683726068500,1.020068359375,-0.181959331035614,-11.66694450378418,2.4803929328918457
1765548683746057500,1.040057373046875,-0.13407529890537262,-11.884817123413086,2.5306711196899414
1765548683756067000,1.050067138671875,-0.21547815203666687,-11.975796699523926,2.537853717803955
1765548683766077000,1.060076904296875,-0.2513911724090576,-11.96861457824707,2.470816135406494
1765548683786127000,1.080127197265625,-0.363918662071228,-11.647790908813477,1.9632453918457031
1765548683796106200,1.090106201171875,-0.40222588181495667,-11.712434768676758,1.9943699836730957
1765548683816125700,1.110125732421875,-0.5051765441894531,-11.125855445861816,1.941697597503662
1765548683826105000,1.12010498046875,-0.49559974670410156,-10.87446403503418,1.9919757843017578
1765548683836114700,1.13011474609375,-0.5793967843055725,-10.639832496643066,2.1284453868865967
1765548683846124500,1.14012451171875,-0.586579442024231,-10.438719749450684,2.209848165512085
1765548683856134400,1.150134521484375,-0.6703764796257019,-10.199298858642578,2.188300371170044
1765548683866174500,1.160174560546875,-0.8667010068893433,-10.201693534851074,2.4157495498657227
1765548683876153900,1.17015380859375,-0.9840168952941895,-9.983820915222168,2.4636335372924805
1765548705253889800,22.547889892578127,9.583989143371582,1.292868971824646,1.357512354850769
1765548705263699500,22.557699462890625,9.50737476348877,1.2545616626739502,1.3335703611373901
1765548705273378800,22.56737890625,9.524134635925293,1.1875240802764893,1.3120225667953491
1765548705293028900,22.58702880859375,9.464279174804688,1.601720929145813,1.213860273361206
1765548705313048300,22.60704833984375,9.279925346374512,1.6376339197158813,1.3024457693099976
1765548705323058200,22.61705810546875,9.339780807495117,1.7405846118927002,1.072602391242981
1765548705333006800,22.6270068359375,9.53849983215332,1.922544002532959,1.0534487962722778
1765548705343047200,22.637047119140625,9.63187313079834,1.922544002532959,1.0079588890075684
1765548705352995800,22.646995849609375,9.861717224121094,1.8794482946395874,1.1563993692398071
1765548705363005700,22.657005615234375,9.734824180603027,1.9033904075622559,1.381454348564148
1765548705373015600,22.667015625,9.452308654785156,1.8746598958969116,1.3766659498214722
1765548705392973800,22.686973876953125,9.495404243469238,1.6711528301239014,0.8882488012313843
1765548705452971500,22.746971435546875,11.951854705810547,0.5147533416748047,-1.678335428237915
1765548705472991000,22.766990966796875,12.085929870605469,0.3663128614425659,-2.1356279850006104
1765548705552977700,22.846977783203126,10.90558910369873,1.2330138683319092,-3.184288263320923
1765548705563018000,22.85701806640625,10.714052200317383,1.6519991159439087,-3.0789434909820557
1765548705572936200,22.866936279296876,10.505757331848145,1.699883222579956,-3.0119056701660156
1765548705582976300,22.876976318359375,10.146626472473145,1.867477297782898,-3.004723072052002
1765548705592986000,22.886986083984375,9.938331604003906,2.097320795059204,-2.9305028915405273
1765548705612944600,22.906944580078125,9.521739959716797,2.3343467712402344,-2.7748796939849854
1765548705622954500,22.91695458984375,9.332598686218262,2.054224967956543,-2.8586769104003906
1765548705632964000,22.926964111328125,9.260771751403809,1.941697597503662,-2.8874073028564453
1765548705642943500,22.936943603515626,9.193734169006348,2.0231003761291504,-2.9017724990844727
1765548705652953000,22.946953125,9.093177795410156,2.0470423698425293,-2.9735984802246094
1765548705662963000,22.956962890625,8.813055992126465,2.0685901641845703,-3.0406360626220703
1765548705672942000,22.966942138671875,8.683769226074219,2.126051187515259,-2.983175277709961
1765548705682921500,22.97692138671875,8.489839553833008,2.078166961669922,-2.851494312286377
1765548705702941000,22.99694091796875,8.008605003356934,1.821987509727478,-2.82515811920166
1765548705722960400,23.01696044921875,7.668628215789795,1.8387469053268433,-2.734178304672241
1765548705752959200,23.046959228515625,7.240066051483154,2.3271639347076416,-2.540247917175293
1765548705762999600,23.05699951171875,6.993463039398193,2.494758129119873,-2.5689783096313477
1765548705772978700,23.066978759765625,6.773196697235107,2.542642116546631,-2.564189910888672
1765548705782988500,23.076988525390625,6.5265936851501465,2.655169725418091,-2.7988216876983643
1765548705792968000,23.086968017578126,6.1770405769348145,2.8227639198303223,-2.875436305999756
1765548705802977500,23.0969775390625,5.738901615142822,2.580949544906616,-2.9281086921691895
1765548705812987400,23.1069873046875,5.3797712326049805,2.449268341064453,-3.1028854846954346
1765548705822966500,23.116966552734375,5.080495834350586,2.671929121017456,-3.203441858291626
1765548705832946000,23.12694580078125,4.726154327392578,2.7509377002716064,-3.404554843902588
1765548705842955500,23.13695556640625,4.455609321594238,2.956839084625244,-3.531447410583496
1765548705852935000,23.146934814453125,4.182670593261719,2.9496564865112305,-3.4739866256713867
1765548705862944500,23.156944580078125,3.7684733867645264,2.7940332889556885,-3.4763808250427246
1765548705872924000,23.166923828125,3.7684733867645264,2.7940332889556885,-3.4763808250427246
1765548705882964200,23.176964111328125,3.272873640060425,2.4612393379211426,-3.514688014984131
1765548705892973800,23.186973876953125,2.8586769104003906,1.9847931861877441,-3.6391866207122803
1765548705902953200,23.196953125,2.535459518432617,1.6184803247451782,-3.7469255924224854
1765548705912932400,23.206932373046875,2.346317768096924,0.950498104095459,-4.000710964202881
1765548705932921300,23.22692138671875,2.0877439975738525,-0.7733271718025208,-4.256890773773193
1765548705942931200,23.23693115234375,2.0901381969451904,-1.237802267074585,-4.28322696685791
1765548705952941000,23.246941162109376,2.2888567447662354,-1.5753847360610962,-4.24970817565918
1765548705962950700,23.25695068359375,2.4229321479797363,-1.7286136150360107,-4.122815132141113
1765548705972930000,23.266929931640625,2.6408045291900635,-1.946485996246338,-4.055777549743652
1765548705982939600,23.276939697265625,2.691082715988159,-2.276885747909546,-4.106055736541748
1765548705992919000,23.2869189453125,2.669534921646118,-2.6408045291900635,-4.180276393890381
1765548706002928600,23.2969287109375,2.7030537128448486,-3.3063924312591553,-4.37420654296875
1765548706012938500,23.3069384765625,2.8443117141723633,-4.405331134796143,-4.651933670043945
1765548706092955600,23.38695556640625,4.90571928024292,-9.138668060302734,-6.327875137329102
1765548706102965500,23.396965576171876,5.590460777282715,-10.639832496643066,-6.873753070831299
1765548706122954500,23.41695458984375,6.433219909667969,-11.657367706298828,-8.152256965637207
1765548706132964000,23.426964111328125,6.2201361656188965,-11.063606262207031,-8.791508674621582
1765548706142974000,23.436973876953125,6.0190229415893555,-10.982203483581543,-9.265560150146484
1765548706152983800,23.44698388671875,5.56173038482666,-11.537657737731934,-9.864110946655273
1765548706162963000,23.456962890625,5.609614372253418,-12.050017356872559,-10.532093048095703
1765548706172911600,23.46691162109375,6.564900875091553,-13.668497085571289,-11.51611042022705
1765548706182921500,23.47692138671875,7.273584842681885,-14.630966186523438,-12.210428237915039
1765548706192870100,23.4868701171875,7.754819393157959,-14.875175476074219,-12.658143997192383
1765548706202941000,23.49694091796875,7.47230339050293,-15.270218849182129,-12.521675109863281
1765548706212950800,23.50695068359375,7.127538681030273,-15.172056198120117,-11.892000198364258
1765548706232939800,23.526939697265625,6.090848922729492,-14.07311725616455,-10.204087257385254
1765548706242949600,23.53694970703125,5.825092792510986,-13.146561622619629,-9.275136947631836
1765548706252898300,23.546898193359375,5.57370138168335,-12.138602256774902,-8.276755332946777
1765548706262877400,23.55687744140625,5.530605792999268,-11.310209274291992,-7.242460250854492
1765548706272826000,23.566826171875,5.564124584197998,-10.685321807861328,-6.754043102264404
1765548706282866400,23.576866455078125,5.571307182312012,-10.498574256896973,-6.72531270980835
1765548706292876300,23.586876220703125,5.408501625061035,-10.572794914245605,-6.811503887176514
1765548706302886100,23.59688623046875,4.853046894073486,-10.450690269470215,-7.110779285430908
1765548706312895700,23.606895751953125,4.302380561828613,-10.055646896362305,-8.008605003356934
1765548706342925000,23.636925048828125,7.836222171783447,-11.243170738220215,-8.20732307434082
1765548706362944500,23.656944580078125,4.989516258239746,-10.795455932617188,-7.096413612365723
1765548706372954400,23.666954345703125,3.2154128551483154,-9.009381294250488,-7.582436561584473
1765548706382964200,23.676964111328125,1.5203180313110352,-7.479485988616943,-7.228095054626465
1765548706402983700,23.696983642578125,1.2042834758758545,-4.596867084503174,-5.793968200683594
1765548706412902000,23.70690185546875,0.5913678407669067,-3.7469255924224854,-5.501875400543213
1765548706422942200,23.716942138671875,-0.8044517636299133,-3.1483752727508545,-5.52821159362793
1765548706442931200,23.73693115234375,-2.0374655723571777,-5.219359874725342,-5.758055210113525
1765548706482939600,23.776939697265625,-1.3072341680526733,-3.641580820083618,-7.242460250854492
1765548706523009300,23.81700927734375,-2.7892448902130127,-6.007051944732666,-7.754819393157959
1765548706532988700,23.82698876953125,-3.6176388263702393,-6.636727333068848,-8.142680168151855
1765548706542998300,23.836998291015625,-4.656722068786621,-6.813898086547852,-8.664615631103516
1765548706552977700,23.846977783203126,-5.305551052093506,-8.001421928405762,-9.378087997436523
1765548706562987300,23.8569873046875,-4.953603267669678,-8.109161376953125,-10.108319282531738
1765548706583007000,23.877007080078126,-4.20421838760376,-5.372588634490967,-10.02452278137207
1765548706602996000,23.896995849609375,-3.6128504276275635,-4.003105163574219,-9.148244857788086
1765548706613005600,23.907005615234375,-3.624821424484253,-3.7445313930511475,-8.755595207214355
1765548706623015400,23.917015380859375,-4.228160381317139,-4.1874589920043945,-8.406042098999023
1765548706632994600,23.92699462890625,-4.20421838760376,-5.281609058380127,-8.178592681884766
1765548706673064200,23.967064208984375,-3.1004912853240967,-4.831499099731445,-7.46033239364624
1765548706703124000,23.9971240234375,-2.647987127304077,-4.649539470672607,-7.6782050132751465
1765548706713103400,24.007103271484375,-2.964021682739258,-4.862623691558838,-7.3693528175354
1765548706723113200,24.01711328125,-3.1004912853240967,-5.240907669067383,-7.438784599304199
1765548706733122800,24.027122802734375,-3.026270866394043,-5.521028995513916,-7.491456985473633
1765548706753111800,24.04711181640625,-2.557007312774658,-3.442862033843994,-7.287950038909912
1765548706773100800,24.067100830078125,-3.0406360626220703,-4.599261283874512,-6.888118267059326
1765548706783110700,24.077110595703125,-2.827552318572998,-5.1810526847839355,-7.544129371643066
1765548706793089800,24.08708984375,-2.801215887069702,-5.669469833374023,-8.20492935180664
1765548706803099600,24.097099609375,-3.0310592651367188,-7.1706342697143555,-8.585607528686523
1765548706813079000,24.1070791015625,-3.804386615753174,-8.305485725402832,-9.009381294250488
1765548706823119000,24.117119140625,-4.0964789390563965,-8.446743965148926,-9.536105155944824
1765548706833068000,24.127068115234376,-3.090914487838745,-7.357381820678711,-9.947908401489258
1765548706843077600,24.13707763671875,-2.652775526046753,-6.275202751159668,-9.916783332824707
1765548706853057000,24.14705712890625,-2.2697031497955322,-6.320692539215088,-9.885659217834473
1765548706873076500,24.167076416015625,-1.3048399686813354,-6.294356346130371,-9.378087997436523
1765548706883086300,24.17708642578125,-0.5817909836769104,-5.336675643920898,-8.678980827331543
1765548706893065500,24.1870654296875,0.1843535304069519,-4.563348293304443,-8.293514251708984
1765548706903105800,24.197105712890625,1.216254472732544,-3.600879430770874,-8.746018409729004
1765548706913085000,24.2070849609375,2.3367409706115723,-1.9105730056762695,-9.114726066589355
1765548706923064300,24.217064208984375,2.2816741466522217,-1.237802267074585,-8.736441612243652
1765548706933043500,24.22704345703125,2.1787235736846924,-1.1516109704971313,-8.956708908081055
1765548706943053300,24.23705322265625,1.436521053314209,-1.5634137392044067,-9.162610054016113
1765548707003142400,24.297142333984375,-2.956839084625244,-4.3191399574279785,-10.342951774597168
1765548707033141200,24.327141357421876,-6.026205539703369,-6.564900875091553,-12.193669319152832
1765548707043150800,24.33715087890625,-6.27280855178833,-6.607996463775635,-12.114660263061523
1765548707053130200,24.347130126953125,-5.544970989227295,-6.653486728668213,-11.51850414276123
1765548707083220500,24.377220458984375,-2.832340717315674,-5.193023681640625,-10.54406452178955
1765548707093169200,24.387169189453125,-2.6599581241607666,-5.7987565994262695,-10.417171478271484
1765548707103179000,24.397178955078125,-2.6623523235321045,-6.404489517211914,-10.019734382629395
1765548707113158100,24.407158203125,-3.0166940689086914,-6.907271862030029,-9.86650562286377
1765548715207380700,32.501380615234375,-2.2577321529388428,9.349357604980469,-0.35434186458587646
1765548715217290500,32.51129052734375,-2.0685901641845703,9.263166427612305,-0.49559974670410156
1765548715236879400,32.53087939453125,-2.9520506858825684,9.59596061706543,-0.5506663918495178
1765548715246889200,32.54088916015625,-3.1292216777801514,9.5408935546875,-0.5219359993934631
1765548715326898000,32.62089794921875,-3.3494882583618164,9.495404243469238,-2.0231003761291504
1765548715336877000,32.630876953125,-3.117250680923462,9.674968719482422,-1.9129672050476074
1765548715346856400,32.6408564453125,-3.28963303565979,9.210494041442871,-1.946485996246338
1765548715356866000,32.65086596679687,-3.598485231399536,9.339780807495117,-1.9512743949890137
1765548715366845400,32.660845458984376,-3.9217023849487305,9.375694274902344,-2.011129379272461
1765548715376855000,32.67085498046875,-3.9264907836914062,8.918401718139648,-2.10210919380188
1765548715386865000,32.680864990234376,-3.821146011352539,8.576030731201172,-2.4133553504943848
1765548715396813600,32.6908134765625,-3.804386615753174,8.286332130432129,-2.827552318572998
1765548715406884400,32.70088427734375,-3.971980571746826,8.111555099487305,-2.808398485183716
1765548715416863700,32.71086376953125,-4.299986362457275,8.08043098449707,-2.829946517944336
1765548715486871000,32.78087109375,-4.850652694702148,8.415618896484375,-3.8953661918640137
1765548715506890500,32.80089038085937,-5.011064052581787,8.573636054992676,-4.122815132141113
1765548715526849000,32.82084912109375,-5.013458251953125,7.7643961906433105,-4.113238334655762
1765548715536889300,32.830889404296876,-5.006275653839111,7.967903137207031,-3.9863457679748535
1765548715546899200,32.840899169921876,-5.013458251953125,7.9846625328063965,-4.0078935623168945
1765548715556847900,32.850847900390626,-5.049371242523193,8.04691219329834,-4.14915132522583
1765548715566888200,32.86088818359375,-5.2696380615234375,8.42040729522705,-4.285621166229248
1765548715576867300,32.870867431640626,-5.480327606201172,8.485051155090332,-4.331110954284668
1765548715586907600,32.88090771484375,-5.688623428344727,8.640673637390137,-4.606443881988525
1765548715596856300,32.89085620117187,-5.995080947875977,8.425195693969727,-4.8482584953308105
1765548715606896600,32.900896728515626,-6.033388137817383,8.2312650680542,-5.0876784324646
1765548715616906500,32.910906494140626,-6.033388137817383,8.2312650680542,-5.0876784324646
1765548715626946800,32.92094677734375,-6.064512729644775,8.29830265045166,-5.169081687927246
1765548715646935800,32.940935791015626,-5.992686748504639,8.078036308288574,-5.070919036865234
1765548715656915000,32.9509150390625,-6.162675380706787,8.307879447937012,-5.250484466552734
1765548715666894300,32.960894287109376,-6.440402507781982,8.279149055480957,-5.398924827575684
1765548715676873500,32.97087353515625,-6.610390663146973,8.640673637390137,-5.681440830230713
1765548715686913800,32.980913818359376,-6.584054470062256,9.174580574035645,-6.246472358703613
1765548715696923600,32.990923583984376,-6.54574728012085,9.428366661071777,-6.550535678863525
1765548715706902800,33.00090283203125,-6.751648902893066,9.512163162231445,-6.615179061889648
1765548715716912600,33.01091259765625,-6.689399719238281,9.5408935546875,-6.320692539215088
1765548715726922200,33.02092211914062,-6.763619899749756,9.605537414550781,-6.0405707359313965
1765548715736932000,33.03093212890625,-6.94079065322876,9.464279174804688,-6.0836663246154785
1765548715756890600,33.050890625,-6.8809356689453125,9.605537414550781,-5.975927352905273
1765548715776940500,33.0709404296875,-6.856993675231934,10.213664054870605,-6.057330131530762
1765548715796929500,33.09092944335937,-7.084442615509033,11.379640579223633,-6.246472358703613
1765548715806939400,33.100939453125,-7.249642848968506,11.731588363647461,-6.143521785736084
1765548715816949200,33.11094921875,-7.316680431365967,11.966219902038574,-5.995080947875977
1765548715826958800,33.12095874023437,-7.565677165985107,11.774683952331543,-5.9519853591918945
1765548715836938200,33.130938232421876,-7.802703380584717,11.762712478637695,-6.1770405769348145
1765548715846978600,33.140978515625,-7.819462776184082,11.808202743530273,-6.246472358703613
1765548715866967600,33.160967529296876,-8.018181800842285,11.915942192077637,-5.992686748504639
1765548715886987000,33.180987060546876,-8.027758598327637,11.669339179992676,-5.714959621429443
1765548715896966100,33.19096606445312,-8.267178535461426,11.48259162902832,-5.183446884155273
1765548715907006500,33.20100634765625,-8.346187591552734,11.185709953308105,-4.771644115447998
1765548715927026200,33.221026123046876,-8.006210327148438,10.3549222946167,-4.774038314819336
1765548715937005300,33.23100537109375,-7.876923561096191,9.950302124023438,-4.946420669555664
1765548715947045600,33.241045654296876,-7.6351094245910645,9.682151794433594,-4.946420669555664
1765548715957024800,33.25102465820312,-7.491456985473633,9.763554573059082,-4.587290287017822
1765548715967034600,33.26103466796875,-7.280767440795898,9.488221168518066,-4.467580318450928
1765548715977013800,33.271013671875,-7.139509677886963,9.260771751403809,-4.467580318450928
1765548715987054000,33.28105419921875,-7.275979042053223,8.7484130859375,-4.431667327880859
1765548715997033500,33.291033447265626,-7.204153060913086,7.898471355438232,-4.572925090789795
1765548716007073800,33.30107373046875,-6.694188117980957,7.522581577301025,-4.378994941711426
1765548716017083400,33.31108349609375,-5.985504150390625,7.254431247711182,-4.094084739685059
1765548716027093200,33.32109326171875,-5.571307182312012,7.184999465942383,-4.082113742828369
1765548716037072400,33.331072265625,-5.4659624099731445,7.101202011108398,-3.758896589279175
1765548716047082200,33.341082275390626,-5.492298603057861,7.161057472229004,-3.3518824577331543
1765548716057092000,33.351092041015626,-5.542576789855957,7.292738437652588,-3.2082302570343018
1765548716067071200,33.3610712890625,-5.633556365966797,7.038952827453613,-2.7748796939849854
1765548716077081000,33.3710810546875,-5.75326681137085,6.914454460144043,-2.0853497982025146
1765548716087151900,33.38115185546875,-5.556941986083984,6.888118267059326,-1.482010841369629
1765548716097161500,33.39116137695312,-5.413290023803711,6.907271862030029,-1.0414776802062988
1765548716107171300,33.40117138671875,-5.396530628204346,6.715735912322998,-0.3471592366695404
1765548716117181200,33.41118115234375,-5.125985622406006,6.337451934814453,0.2777273952960968
1765548716127190800,33.42119067382812,-4.841075897216797,5.870582580566406,0.9720458984375
1765548716137200600,33.43120068359375,-4.809951305389404,5.418078422546387,1.5490485429763794
1765548716147210500,33.44121044921875,-4.8482584953308105,5.238513469696045,1.8052281141281128
1765548716157220000,33.45122021484375,-4.850652694702148,5.023035049438477,2.2840683460235596
1765548716167230000,33.46122998046875,-4.666299343109131,4.972756862640381,2.6240451335906982
1765548716177239800,33.47123974609375,-4.460397720336914,4.95120906829834,3.071760892868042
1765548716187249400,33.48124951171875,-4.381389141082764,5.097255229949951,3.378218650817871
1765548716197198000,33.49119799804687,-4.321534156799316,5.600037574768066,3.8067808151245117
1765548716207238400,33.50123828125,-4.216189384460449,6.110002517700195,4.113238334655762
1765548716217248300,33.511248291015626,-3.780444383621216,6.344634532928467,4.520252704620361
1765548716227258000,33.521258056640626,-3.184288263320923,6.344634532928467,4.6734819412231445
1765548716237267700,33.531267822265626,-2.762908697128296,6.184223175048828,5.023035049438477
1765548716247247000,33.5412470703125,-2.5665841102600098,5.729324817657471,5.34625244140625
1765548716257256700,33.55125659179687,-2.674323320388794,4.977545261383057,5.894524574279785
1765548716267297000,33.561297119140626,-2.832340717315674,4.462791919708252,6.57926607131958
1765548716287286000,33.5812861328125,-2.9305028915405273,3.8570590019226074,6.550535678863525
1765548716297265400,33.591265380859376,-2.808398485183716,3.77565598487854,6.691793918609619
1765548716307305700,33.6013056640625,-2.5546131134033203,3.581725835800171,6.789956092834473
1765548716317315300,33.6113154296875,-2.3511061668395996,3.5434184074401855,7.12035608291626
1765548716327294700,33.621294677734376,-2.2242133617401123,3.490746021270752,7.443572998046875
1765548716337334800,33.63133471679687,-2.142810583114624,3.8115692138671875,7.546523571014404
1765548716347344600,33.6413447265625,-2.1308395862579346,3.912125587463379,7.5417351722717285
1765548716357354500,33.6513544921875,-1.944091796875,4.0964789390563965,7.8529815673828125
1765548716367364000,33.66136401367187,-1.5921441316604614,4.180276393890381,7.891288757324219
1765548716397424000,33.691424072265626,-0.304063618183136,3.97916316986084,8.446743965148926
1765548716407433700,33.701433837890626,0.004788403399288654,3.5936968326568604,8.42040729522705
1765548716417443600,33.711443603515626,0.0454898327589035,3.098097085952759,8.226476669311523
1765548716427453200,33.721453125,0.19153612852096558,2.5761611461639404,8.463502883911133
1765548716437432600,33.7314326171875,0.363918662071228,2.4684219360351562,8.655038833618164
1765548716467492400,33.761492431640626,1.1013327836990356,1.5729905366897583,8.348581314086914
1765548716477502200,33.771502197265626,1.6280571222305298,1.3311761617660522,8.40843677520752
1765548716527581400,33.82158154296875,1.7286136150360107,1.7956513166427612,8.01339340209961
1765548716537591300,33.83159130859375,2.1547815799713135,1.8818424940109253,7.931990146636963
1765548716547601000,33.84160083007812,2.3918075561523438,2.0901381969451904,7.910442352294922
1765548716557610800,33.85161083984375,2.5761611461639404,1.968033790588379,7.908048152923584
1765548716567681500,33.861681640625,2.9089550971984863,1.6855180263519287,7.548917770385742
1765548716577691400,33.87169140625,3.0885202884674072,1.3263877630233765,7.101202011108398
1765548716587731700,33.881731689453126,3.339911460876465,0.9840168952941895,6.868964672088623
1765548716597741300,33.8917412109375,3.691859006881714,0.6153098344802856,6.744466304779053
1765548716607751200,33.901751220703126,4.14915132522583,0.6655880808830261,6.531382083892822
1765548716617761000,33.911760986328126,4.4723687171936035,0.2537853717803955,6.327875137329102
1765548716627770600,33.9217705078125,4.821922302246094,0.028730420395731926,6.313509941101074
1765548716637750000,33.93175,5.142745018005371,-0.09576806426048279,6.550535678863525
1765548716647790300,33.941790283203126,5.322310447692871,0.08379705995321274,6.586448669433594
1765548716657800000,33.951800048828126,5.499481201171875,0.3926490843296051,6.564900875091553
1765548716667809800,33.961809814453126,5.992686748504639,0.3687070608139038,6.54574728012085
1765548716677789000,33.97178881835937,6.53377628326416,0.22744916379451752,6.67982292175293
1765548716687768300,33.981768310546876,7.1921820640563965,-0.33758243918418884,6.957550048828125
1765548716707757300,34.00175732421875,8.674192428588867,-1.072602391242981,7.096413612365723
1765548716717767000,34.01176684570312,8.899248123168945,-1.2737152576446533,7.129932880401611
1765548716727807200,34.02180712890625,8.923190116882324,-1.2713210582733154,6.964732646942139
1765548716737817000,34.031817138671876,8.518569946289062,-1.4317326545715332,6.780379295349121
1765548716747827000,34.041826904296876,7.960720539093018,-1.7741034030914307,6.751648902893066
1765548716757867000,34.05186694335937,7.666234016418457,-1.6879122257232666,6.825869083404541
1765548716767876900,34.061876953125,7.778761386871338,-1.5873557329177856,6.399701118469238
1765548716777886700,34.07188671875,7.6351094245910645,-1.1420341730117798,5.861005783081055
1765548716787865900,34.081865966796876,6.9910688400268555,-0.4357447028160095,5.779603004455566
1765548716827905000,34.121905029296876,5.020640850067139,1.3503297567367554,8.01339340209961
1765548716877953800,34.171953857421876,2.6862943172454834,-0.33518823981285095,9.988609313964844
1765548716887963600,34.181963623046876,2.82515811920166,-0.42616790533065796,10.26394271850586
1765548716897942800,34.19194287109375,3.3854012489318848,-0.24660277366638184,10.062829971313477
1765548716948022300,34.242022216796876,2.300827741622925,2.738966703414917,9.081207275390625
1765548716988061200,34.282061279296876,1.8100165128707886,1.2713210582733154,9.976638793945312
1765548716998071000,34.292071044921876,1.7597382068634033,0.9145850539207458,9.193734169006348
1765548717008080600,34.30208056640625,1.1875240802764893,1.1109095811843872,8.616731643676758
1765548717018090500,34.312090576171876,0.8188169598579407,2.2864625453948975,8.13789176940918
1765548717028100400,34.322100341796876,0.6440402865409851,3.4835634231567383,7.565677165985107
1765548717038079500,34.33207958984375,0.42616790533065796,4.697423934936523,7.022193431854248
1765548717048059000,34.342058837890626,-0.08140286058187485,5.513846397399902,6.921637058258057
1765548717078118700,34.37211865234375,-0.7852981686592102,4.618414878845215,6.5912370681762695
1765548717088128300,34.38212817382812,-0.8523358106613159,4.043806552886963,6.380547523498535
1765548717118157600,34.41215747070312,-0.47165772318840027,5.303156852722168,4.213795185089111
1765548717128167400,34.42216748046875,-0.10295066982507706,6.332663536071777,3.950432777404785
1765548717138177300,34.43217724609375,0.19393034279346466,6.8378400802612305,3.665522813796997
1765548717148187000,34.44218676757812,0.12210428714752197,6.9024834632873535,3.7181951999664307
1765548717158196700,34.45219677734375,0.06464344263076782,6.387730121612549,3.7205893993377686
1765548717168175900,34.46217578125,-0.11252748221158981,6.196194171905518,3.423708438873291
1765548717178185700,34.472185791015626,-0.15562310814857483,6.375759124755859,3.155557870864868
1765548717188195600,34.482195556640626,-0.14365209639072418,6.521805286407471,2.7700912952423096
1765548717198174700,34.4921748046875,-0.23702596127986908,6.959944248199463,2.63362193107605
1765548717208184600,34.5021845703125,-0.1628057211637497,7.261613845825195,2.451662540435791
1765548717218225000,34.512224853515626,-0.09576806426048279,7.647080421447754,2.387019157409668
1765548717238214000,34.5322138671875,-0.9648633003234863,8.180987358093262,2.1092917919158936
1765548717248223500,34.54222338867187,-1.4939818382263184,7.603984832763672,1.845929503440857
1765548717288232200,34.582232177734376,-1.9728221893310547,7.769184589385986,0.9959878921508789
1765548717298211300,34.59221142578125,-1.922544002532959,7.630321025848389,0.363918662071228
1765548717308251600,34.602251708984376,-2.03507137298584,7.8529815673828125,-0.4429273009300232
1765548717318261500,34.612261474609376,-2.1547815799713135,7.5417351722717285,-1.1204863786697388
1765548717328271000,34.62227099609375,-2.363077163696289,7.338228225708008,-1.9249382019042969
1765548717338281000,34.632281005859376,-2.671929121017456,7.103596210479736,-2.6144683361053467
1765548717348260000,34.64226000976562,-3.069366693496704,7.546523571014404,-2.8179752826690674
1765548717358239500,34.652239501953126,-3.1316158771514893,7.783549785614014,-2.894589900970459
1765548717368279800,34.66227978515625,-3.155557870864868,7.972691535949707,-3.136404275894165
1765548717378289400,34.67228930664062,-3.536235809326172,8.293514251708984,-3.471592426300049
1765548717388329700,34.682329833984376,-4.141968727111816,8.597578048706055,-3.7158010005950928
1765548717398339600,34.692339599609376,-4.778826713562012,8.20732307434082,-4.01268196105957
1765548717408318700,34.70231860351562,-5.137956619262695,7.668628215789795,-4.63517427444458
1765548717418298000,34.712298095703126,-5.04218864440918,7.450755596160889,-4.766855716705322
1765548717428307700,34.7223076171875,-4.831499099731445,7.268796443939209,-4.994304656982422
1765548725138786000,42.4327861328125,0.5386953949928284,2.099714994430542,7.113173484802246
1765548725148526300,42.4425263671875,0.6871358752250671,2.2146365642547607,7.1921820640563965
1765548725158166500,42.45216650390625,0.7876923680305481,2.8347349166870117,7.450755596160889
1765548725167676400,42.461676513671875,1.0965443849563599,3.531447410583496,7.4986395835876465
1765548725177386000,42.47138598632812,1.4484920501708984,4.173093795776367,7.29034423828125
1765548725187095800,42.481095703125,1.4987702369689941,4.173093795776367,7.000645637512207
1765548725196905500,42.49090551757813,1.4317326545715332,3.8307228088378906,6.854599475860596
1765548725236744700,42.53074462890625,1.5059528350830078,2.6886885166168213,6.6846113204956055
1765548725246785000,42.54078491210937,1.5634137392044067,2.2888567447662354,6.268020153045654
1765548725306843600,42.60084375,3.157952070236206,2.655169725418091,5.430049419403076
1765548725316822800,42.61082275390625,3.7924153804779053,2.5091233253479004,5.473145008087158
1765548725326863000,42.62086303710937,4.2975921630859375,2.2218191623687744,5.643133640289307
1765548725336842200,42.63084228515625,4.807557106018066,2.013523578643799,5.789179801940918
1765548725346852000,42.64085205078125,5.1595048904418945,1.5825673341751099,5.987898349761963
1765548725356862000,42.65086206054688,5.1595048904418945,1.5825673341751099,5.987898349761963
1765548725366871600,42.66087158203125,5.403713226318359,1.4676456451416016,6.0836663246154785
1765548725376881400,42.67088134765625,5.552153587341309,0.7038952708244324,5.947196960449219
1765548725436909600,42.73090966796875,7.469909191131592,0.4213795065879822,6.63433313369751
1765548725446949600,42.74094970703125,7.508216381072998,0.849941611289978,6.892906665802002
1765548725456959500,42.75095947265625,7.508216381072998,1.048660397529602,7.141903877258301
1765548725466938600,42.76093872070312,7.441178798675537,1.1492167711257935,7.086836814880371
1765548725476918000,42.77091796875,7.486668586730957,0.933738648891449,6.885724067687988
1765548725486928000,42.78092797851563,7.592013359069824,0.8379706144332886,7.151480674743652
1765548725496937500,42.7909375,7.6997528076171875,0.7613561153411865,7.453149795532227
1765548725506947300,42.800947265625,8.106766700744629,0.5434837937355042,7.390900611877441
1765548725526936300,42.82093627929687,7.836222171783447,0.05985504388809204,7.448361396789551
1765548725536915500,42.83091552734375,7.568071365356445,0.17477671802043915,7.546523571014404
1765548725546894800,42.84089477539062,7.314286231994629,0.4908113479614258,7.594407558441162
1765548725556904400,42.85090454101562,7.084442615509033,0.9481038451194763,7.453149795532227
1765548725566944800,42.86094482421875,6.67982292175293,1.2497732639312744,7.261613845825195
1765548725576924200,42.87092407226562,6.256049156188965,1.3623007535934448,7.225700855255127
1765548725586903300,42.8809033203125,5.9735331535339355,1.6519991159439087,7.503427982330322
1765548725606861800,42.90086181640625,5.693411827087402,1.4293384552001953,7.7643961906433105
1765548725616871700,42.91087158203125,5.746084213256836,1.4197616577148438,7.65186882019043
1765548725636891100,42.93089111328125,5.116408824920654,1.5538369417190552,7.73087739944458
1765548725646901000,42.94090087890625,4.606443881988525,1.7405846118927002,7.9176249504089355
1765548725656910600,42.95091064453125,3.9480385780334473,2.2601263523101807,7.546523571014404
1765548725666890000,42.96088989257812,3.5865142345428467,2.8874073028564453,7.354987621307373
1765548725676869000,42.970869140625,3.4165258407592773,2.964021682739258,7.424419403076172
1765548725686879000,42.98087890625,3.2369606494903564,3.047818660736084,7.479485988616943
1765548725696858000,42.99085815429687,2.9688100814819336,3.3279404640197754,7.65186882019043
1765548725706868000,43.00086791992187,2.693476915359497,3.2609026432037354,7.4100542068481445
1765548725716877800,43.0108779296875,2.1380221843719482,3.31118106842041,7.173028469085693
1765548725726918000,43.02091796875,2.03507137298584,3.4380736351013184,7.156269073486328
1765548725756855800,43.05085571289062,1.4245500564575195,3.620033025741577,7.572859764099121
1765548725766835000,43.0608349609375,1.556231141090393,3.1531636714935303,8.099584579467773
1765548725776814300,43.070814453125,1.7860745191574097,3.0621838569641113,7.362170219421387
1765548725786824000,43.08082397460937,1.6735470294952393,3.464409828186035,6.655880928039551
1765548725796833800,43.09083374023437,1.3072341680526733,4.0533833503723145,6.552929878234863
1765548725806813000,43.10081298828125,0.8068459630012512,4.54419469833374,6.2632317543029785
1765548725816822800,43.11082275390625,0.33039984107017517,5.099649429321289,6.165069580078125
1765548725826832600,43.12083251953125,0.23702596127986908,5.48272180557251,5.932831764221191
1765548725836842200,43.13084228515625,0.2849099934101105,5.784391403198242,5.913678169250488
1765548725856800800,43.15080078125,0.1173158809542656,5.535394191741943,7.132327079772949
1765548725866841000,43.16084106445312,0.021547814831137657,5.018246650695801,6.967126846313477
1765548725876851000,43.17085083007812,-0.3758896589279175,4.546588897705078,6.354211330413818
1765548725886860500,43.18086059570312,-0.9265560507774353,4.580107688903809,5.5114521980285645
1765548725896870400,43.19087036132812,-1.5107412338256836,5.078101634979248,5.137956619262695
1765548725906880300,43.20088037109375,-1.5825673341751099,5.571307182312012,4.965574264526367
1765548725916889900,43.21088989257812,-1.314416766166687,6.007051944732666,4.503493309020996
1765548725926869200,43.220869140625,-1.2545616626739502,6.698976516723633,4.3191399574279785
1765548725936848400,43.23084838867187,-1.2306196689605713,7.067683219909668,4.165910720825195
1765548725966847200,43.26084716796875,-1.7286136150360107,6.641515731811523,3.2130186557769775
1765548726016865500,43.31086547851562,-2.2864625453948975,6.528987884521484,1.9943699836730957
1765548726026875400,43.32087548828125,-2.2194249629974365,6.866570472717285,1.381454348564148
1765548726036885000,43.33088500976562,-2.2888567447662354,7.524975776672363,1.015141487121582
1765548726046894800,43.34089477539062,-2.2888567447662354,8.432378768920898,0.7829039692878723
1765548726056904400,43.35090454101562,-2.425326347351074,8.918401718139648,0.7110779285430908
1765548726066883800,43.3608837890625,-2.80361008644104,8.676587104797363,0.49799394607543945
1765548726076863000,43.37086303710937,-2.9257144927978516,8.508993148803711,0.3519476354122162
1765548726086872800,43.38087280273437,-3.050212860107422,8.01339340209961,0.47165772318840027
1765548726096882700,43.39088256835937,-2.937685489654541,7.501033782958984,0.22744916379451752
1765548726106892300,43.40089233398437,-2.896984100341797,7.003039836883545,-0.3447650372982025
1765548726116902100,43.41090209960937,-2.7724854946136475,7.007828235626221,-0.6943184733390808
1765548726126912000,43.420912109375,-2.7269957065582275,7.575253963470459,-1.1827356815338135
1765548726136891100,43.43089111328125,-2.853888511657715,8.044517517089844,-1.5825673341751099
1765548726146901000,43.44090087890625,-2.9927520751953125,8.070854187011719,-1.9536685943603516
1765548726156910600,43.45091064453125,-2.8826189041137695,7.8314337730407715,-2.5306711196899414
1765548726176869000,43.470869140625,-3.3901896476745605,7.553706169128418,-3.804386615753174
1765548726186879000,43.48087890625,-3.799597978591919,7.587224960327148,-4.228160381317139
1765548726196858000,43.49085815429687,-4.036623954772949,7.383718013763428,-4.639962673187256
1765548726206898400,43.5008984375,-4.299986362457275,7.642292022705078,-4.788403511047363
1765548726216877800,43.5108779296875,-4.3622355461120605,7.903259754180908,-4.774038314819336
1765548726226887400,43.52088745117187,-4.481945514678955,7.960720539093018,-4.841075897216797
1765548726236866800,43.53086669921875,-4.448426723480225,7.723694801330566,-4.944026470184326
1765548726246876400,43.54087646484375,-4.697423934936523,7.309497833251953,-5.011064052581787
1765548726256855800,43.55085571289062,-4.948814868927002,6.998251438140869,-5.092466831207275
1765548726276844800,43.5708447265625,-6.088454723358154,6.399701118469238,-5.396530628204346
1765548726287892200,43.58189233398438,-6.3973069190979,5.7987565994262695,-5.590460777282715
1765548726297901800,43.59190185546875,-6.40927791595459,5.8873419761657715,-5.95677375793457
1765548726317890800,43.61189086914062,-6.212953567504883,6.993463039398193,-6.18182897567749
1765548726327900700,43.62190063476562,-6.157886981964111,7.163451671600342,-5.827486991882324
1765548726337910500,43.63191064453125,-6.095637321472168,6.94079065322876,-5.612008571624756
1765548726347920100,43.64192016601562,-6.3949127197265625,6.6127848625183105,-5.506663799285889
1765548726357930000,43.65192993164062,-6.756437301635742,5.863399982452393,-5.714959621429443
1765548726367970300,43.66197021484375,-6.9024834632873535,5.157110691070557,-5.839457988739014
1765548726387989800,43.68198974609375,-6.938396453857422,4.101267337799072,-6.756437301635742
1765548726397999600,43.69199951171875,-7.359776020050049,4.469974517822266,-7.003039836883545
1765548726408009200,43.70200927734375,-7.848193168640137,5.147533416748047,-7.264008045196533
1765548726418019000,43.71201904296875,-8.336610794067383,5.791574001312256,-7.132327079772949
1765548726427998200,43.72199829101562,-8.635885238647461,5.69580602645874,-6.92881965637207
1765548726437977600,43.7319775390625,-8.904036521911621,5.2265424728393555,-6.897695064544678
1765548726457966600,43.75196655273437,-9.23682975769043,4.311957359313965,-7.000645637512207
1765548726467976400,43.7619765625,-9.205705642700195,3.663128614425659,-7.481880187988281
1765548726477986000,43.77198608398437,-9.461885452270508,3.6559460163116455,-8.08282470703125
1765548726498005800,43.792005859375,-10.266336441040039,5.023035049438477,-8.398859977722168
1765548726508015400,43.80201538085937,-10.723628997802734,5.523423194885254,-8.281543731689453
1765548726518025200,43.81202514648437,-11.238382339477539,5.810727596282959,-8.379706382751465
1765548726528034800,43.82203491210937,-11.930307388305664,6.3302693367004395,-9.078812599182129
1765548726538044700,43.83204467773437,-12.500126838684082,7.096413612365723,-9.770736694335938
1765548726548054500,43.84205444335937,-12.97657299041748,7.965508937835693,-10.158597946166992
1765548726558033700,43.85203369140625,-13.61103630065918,8.877699851989746,-10.412383079528809
1765548726568074000,43.86207397460937,-14.089877128601074,9.454702377319336,-10.266336441040039
1765548726608235000,43.90223510742187,-16.0291805267334,8.865729331970215,-10.493785858154297
1765548726618122800,43.91212280273437,-16.984466552734375,8.121131896972656,-10.709263801574707
1765548726628132600,43.92213256835937,-17.760189056396484,7.5201873779296875,-10.821791648864746
1765548726638111700,43.93211181640625,-18.155231475830078,7.247248649597168,-10.747570991516113
1765548726648243700,43.94224365234375,-18.102558135986328,7.184999465942383,-10.515334129333496
1765548726658162000,43.95216186523437,-17.547103881835938,7.103596210479736,-10.374075889587402
1765548726668171800,43.962171875,-16.96770668029785,6.97430944442749,-10.417171478271484
1765548726678181400,43.97218139648437,-16.421829223632812,7.058106422424316,-10.469843864440918
1765548726688221700,43.9822216796875,-15.727511405944824,6.756437301635742,-10.383652687072754
1765548726708241200,44.0022412109375,-13.982137680053711,6.799532890319824,-10.192116737365723
1765548726718190000,44.01219018554688,-12.610260009765625,6.993463039398193,-9.909601211547852
1765548726728230100,44.02223022460937,-11.331756591796875,7.134721279144287,-9.780313491821289
1765548726748188700,44.04218872070312,-10.639832496643066,7.184999465942383,-9.610325813293457
1765548726758168000,44.05216796875,-9.99339771270752,7.395689010620117,-9.129091262817383
1765548726768208400,44.06220849609375,-9.57201862335205,7.268796443939209,-8.78193187713623
1765548726778218000,44.07221801757812,-9.07641887664795,6.983886241912842,-8.753201484680176
1765548726788227800,44.08222778320312,-8.779537200927734,7.070077419281006,-8.801085472106934
1765548726798207000,44.09220703125,-8.925583839416504,7.390900611877441,-8.635885238647461
1765548726818226700,44.11222680664063,-9.346963882446289,7.469909191131592,-7.886500358581543
1765548726828236300,44.122236328125,-9.368511199951172,7.3693528175354,-7.716512203216553
1765548726838215700,44.13221557617187,-9.038111686706543,7.105990409851074,-7.592013359069824
1765548726848225300,44.14222534179687,-8.628703117370605,7.043741226196289,-7.661445617675781
1765548726858265600,44.152265625,-8.164227485656738,6.825869083404541,-7.632715225219727
1765548726868275500,44.162275390625,-7.577648162841797,6.370970726013184,-7.51779317855835
1765548726878285000,44.17228515625,-7.038952827453613,5.743690013885498,-7.393294811248779
1765548726888325400,44.18232543945312,-6.299144744873047,5.035006046295166,-7.539340972900391
1765548726898304800,44.1923046875,-5.643133640289307,4.400542736053467,-7.534552574157715
1765548726908284000,44.20228393554687,-5.049371242523193,4.24970817565918,-7.242460250854492
1765548726928242400,44.22224243164062,-3.8115692138671875,4.129997730255127,-6.449979305267334
1765548726938282800,44.23228271484375,-3.406949043273926,4.153939723968506,-6.323086738586426
1765548726948262000,44.24226196289062,-2.894589900970459,4.101267337799072,-6.387730121612549
1765548726958241300,44.2522412109375,-2.5689783096313477,4.158728122711182,-6.385335922241211
1765548726968220400,44.26222045898437,-2.231395959854126,4.173093795776367,-6.31829833984375
1765548726978260700,44.2722607421875,-1.8411411046981812,3.9647979736328125,-6.1770405769348145
1765548726988240100,44.282240234375,-1.501164436340332,4.031835556030273,-5.664681434631348
1765548726998219300,44.29221923828125,-1.235408067703247,3.998316764831543,-4.99669885635376
1765548727008259600,44.30225952148437,-1.0079588890075684,4.14915132522583,-4.446032524108887
1765548727038197200,44.332197265625,0.2561795711517334,3.3207578659057617,-4.10366153717041
1765548727048207000,44.34220703125,0.16759411990642548,3.3446998596191406,-4.079719543457031
1765548727058247400,44.35224731445312,-0.19871874153614044,3.600879430770874,-3.292027235031128
1765548727068257000,44.36225708007812,-0.3902548849582672,3.3207578659057617,-2.252943754196167
1765548727078236400,44.372236328125,-0.021547814831137657,2.9089550971984863,-1.2641384601593018
1765548727088246000,44.38224609375,0.7493851184844971,2.6862943172454834,-0.5003881454467773
1765548727098256000,44.392255859375,1.7070658206939697,2.4660277366638184,-0.33518823981285095
1765548727108265700,44.402265625,2.559401512145996,2.3774423599243164,-0.35673606395721436
1765548727118275300,44.412275390625,3.1483752727508545,2.0254945755004883,-0.3926490843296051
1765548727158284000,44.45228393554687,4.486733913421631,1.4484920501708984,0.993593692779541
1765548727168293600,44.46229370117187,4.838681697845459,1.1300631761550903,1.0630255937576294
1765548727178303500,44.47230346679687,4.800374507904053,1.237802267074585,1.3551181554794312
1765548727188282600,44.48228271484375,5.0876784324646,1.3431471586227417,2.231395959854126
1765548727198262000,44.49226196289062,5.264849662780762,1.5322890281677246,3.0861260890960693
1765548727208272000,44.50227197265625,5.566518783569336,1.5179238319396973,3.6080620288848877
1765548727218251000,44.5122509765625,5.760449409484863,0.871489405632019,3.6822822093963623
1765548727228260900,44.5222607421875,5.499481201171875,0.13407529890537262,3.4117374420166016
1765548727248249900,44.54224975585937,5.1595048904418945,-0.3734954595565796,4.343081951141357
1765548727258290200,44.55229028320313,5.3127336502075195,-0.3687070608139038,4.881777286529541
1765548727268299800,44.5622998046875,5.4252610206604,-0.38307225704193115,5.272032260894775
1765548727278309600,44.5723095703125,5.439626216888428,-0.2968810200691223,5.710171222686768
1765548727289357000,44.58335717773438,5.540182590484619,-0.40222588181495667,6.076483726501465
1765548727299366700,44.59336669921875,5.904101371765137,-0.40940847992897034,6.090848922729492
1765548727309376500,44.60337646484375,5.990292549133301,-0.8930372595787048,5.928043365478516
1765548727319355600,44.61335571289062,6.030993938446045,-1.3048399686813354,5.856217384338379
1765548727329365500,44.62336547851562,5.74129581451416,-1.4173674583435059,6.253654956817627
1765548727339405800,44.63340576171875,5.743690013885498,-1.7717092037200928,6.63433313369751
1765548727359425300,44.65342529296875,5.791574001312256,-2.078166961669922,6.890512466430664
1765548727369435100,44.66343505859375,5.884947776794434,-2.274491548538208,7.225700855255127
1765548727379414300,44.67341430664062,5.829881191253662,-2.2912509441375732,7.608773231506348
1765548727389424000,44.68342407226562,5.796362400054932,-2.647987127304077,8.063671112060547
1765548727399403300,44.6934033203125,5.791574001312256,-2.959233283996582,8.276755332946777
1765548727409382700,44.70338256835937,5.872976779937744,-3.1100680828094482,8.662221908569336
1765548727419392300,44.71339233398437,5.808333396911621,-3.268085241317749,8.882488250732422
1765548727429402000,44.72340209960937,5.858611583709717,-3.337517261505127,9.131484985351562
1765548727439412000,44.73341186523437,5.774814605712891,-3.488351821899414,9.368511199951172
1765548727449391000,44.74339111328125,5.212177276611328,-3.5386300086975098,9.909601211547852
1765548727459401000,44.75340087890625,5.125985622406006,-3.778050184249878,10.63504409790039
1765548727469441300,44.76344116210937,5.125985622406006,-3.778050184249878,10.63504409790039
1765548727479420400,44.77342041015625,5.298368453979492,-3.627215623855591,11.130643844604492
1765548727489460700,44.78346069335937,5.698200225830078,-3.773261785507202,11.149797439575195
1765548727499470600,44.793470703125,6.086060523986816,-4.084507942199707,11.027692794799805
1765548727509480200,44.80348022460937,6.112396717071533,-4.158728122711182,11.02051067352295
1765548727519428900,44.81342895507812,5.949591159820557,-3.885789394378662,11.281478881835938
1765548727529408300,44.823408203125,5.595249176025391,-3.3734302520751953,11.820174217224121
1765548727539418000,44.83341821289063,5.394136428833008,-3.1292216777801514,11.832144737243652
1765548727549427700,44.843427734375,5.099649429321289,-3.3446998596191406,11.688492774963379
1765548727579426600,44.87342651367187,4.941632270812988,-4.0533833503723145,11.252747535705566
1765548727659413000,44.9534130859375,3.77565598487854,-3.1699230670928955,10.608707427978516
1765548727709431300,45.00343139648437,5.432443618774414,-2.853888511657715,9.86889934539795
1765548727719441200,45.01344116210937,5.494692802429199,-2.82515811920166,9.773131370544434
1765548727729420500,45.02342065429688,5.501875400543213,-2.7916390895843506,9.536105155944824
1765548727739430100,45.03343017578125,5.621585369110107,-2.9975404739379883,9.299078941345215
1765548727749470500,45.04347045898437,5.9974751472473145,-3.134010076522827,8.942343711853027
1765548727759480300,45.05348022460937,6.335057735443115,-3.2393548488616943,8.585607528686523
1765548727769490000,45.06348999023437,6.40927791595459,-3.0334534645080566,8.554482460021973
1765548727779530200,45.0735302734375,6.232107162475586,-2.8850131034851074,8.549694061279297
1765548727789540000,45.0835400390625,5.870582580566406,-2.7724854946136475,8.83939266204834
1765548727859608300,45.1536083984375,6.426037311553955,-1.400607943534851,6.186617374420166
1765548727869618200,45.1636181640625,6.449979305267334,-0.9816226959228516,5.837063789367676
1765548727909687800,45.20368774414062,5.473145008087158,0.24420857429504395,5.413290023803711
1765548727929646300,45.22364624023437,5.200206279754639,0.2992752194404602,4.93923807144165
1765548727949665800,45.24366577148437,4.8722004890441895,0.5027823448181152,3.8163576126098633
1765548727959645000,45.25364501953125,4.608838081359863,1.036689281463623,3.2824504375457764
1765548727969685200,45.26368530273437,4.185064792633057,1.922544002532959,3.066972494125366
1765548727979725600,45.2737255859375,3.663128614425659,2.5498247146606445,2.9281086921691895
1765548727989766000,45.28376586914062,3.050212860107422,3.098097085952759,2.853888511657715
1765548727999745000,45.2937451171875,2.604891538619995,3.2848446369171143,2.9089550971984863
1765548728009755000,45.3037548828125,2.2816741466522217,3.378218650817871,2.655169725418091
1765548728049794000,45.3437939453125,1.8531121015548706,4.383783340454102,0.38067805767059326
1765548728059834400,45.35383447265625,1.3958195447921753,4.9368438720703125,0.2825157940387726
1765548728069844000,45.36384399414062,0.8355764150619507,5.331887245178223,0.07661445438861847
1765548728079823400,45.3738232421875,0.28730419278144836,5.453991413116455,-0.009576806798577309
1765548728089802500,45.38380249023437,-0.08619125932455063,5.702988624572754,-0.3519476354122162
1765548728099812400,45.39381225585937,-0.23702596127986908,6.335057735443115,-0.7206547260284424
1765548728109822000,45.40382202148437,-0.33758243918418884,6.756437301635742,-0.8403648138046265
1765548728129872100,45.4238720703125,-0.4381389021873474,7.117961883544922,-1.216254472732544
1765548728139881700,45.4338818359375,-0.8044517636299133,6.979097843170166,-1.5825673341751099
1765548728149891600,45.4438916015625,-0.8044517636299133,6.979097843170166,-1.5825673341751099
1765548728169880600,45.46388061523437,-1.3551181554794312,7.0341644287109375,-2.209848165512085
1765548728179890400,45.47389038085937,-1.4963760375976562,6.732495307922363,-2.6886885166168213
1765548728189900300,45.483900390625,-1.577778935432434,6.593631267547607,-3.1316158771514893
1765548728199879400,45.49387939453125,-2.0183119773864746,6.646304130554199,-3.3854012489318848
1765548728209858600,45.50385864257812,-2.5330653190612793,6.9240312576293945,-3.2585084438323975
1765548728229908700,45.52390869140625,-3.201047658920288,7.206547260284424,-3.0119056701660156
1765548728239918600,45.53391870117188,-3.160346269607544,7.362170219421387,-2.8802247047424316
1765548728249928200,45.54392822265625,-3.1028854846954346,7.180211067199707,-3.071760892868042
1765548759176112400,76.4701123046875,-7.299921035766602,6.744466304779053,-5.729324817657471
1765548759185922300,76.47992236328125,-7.5968017578125,6.6846113204956055,-5.949591159820557
1765548759235540500,76.52954052734376,-9.399636268615723,4.9799394607543945,-5.104437828063965
1765548759245550300,76.53955029296876,-9.581595420837402,5.123591423034668,-4.98472785949707
1765548759365576000,76.65957592773438,-13.855245590209961,4.173093795776367,-7.462726593017578
1765548759375616300,76.6696162109375,-14.31014347076416,4.2760443687438965,-7.6566572189331055
1765548759425604000,76.71960400390626,-13.632584571838379,4.302380561828613,-8.128314971923828
1765548759475652900,76.76965283203126,-14.235923767089844,6.27280855178833,-7.927201747894287
1765548759555670000,76.849669921875,-13.79060173034668,4.345476150512695,-7.560888767242432
1765548759565679600,76.8596796875,-13.852850914001465,4.003105163574219,-6.909666061401367
1765548759575659000,76.86965893554688,-13.876792907714844,3.3470940589904785,-6.358999729156494
1765548759585668600,76.87966870117188,-13.742717742919922,3.3016040325164795,-6.402095317840576
1765548759595648000,76.88964794921876,-13.28063678741455,4.086902141571045,-6.378153324127197
1765548759605627100,76.89962719726563,-12.840104103088379,5.75326681137085,-6.287173748016357
1765548759615606500,76.9096064453125,-12.047622680664062,6.995857238769531,-5.944802761077881
1765548759625616100,76.9196162109375,-11.197681427001953,7.955932140350342,-5.863399982452393
1765548759635565000,76.92956494140626,-10.970232009887695,8.681375503540039,-5.693411827087402
1765548759645574700,76.93957470703126,-11.741165161132812,7.271190643310547,-5.070919036865234
1765548759675543000,76.96954296875,-9.80904483795166,5.2049946784973145,-5.020640850067139
1765548759695562500,76.9895625,-8.058882713317871,7.987056732177734,-2.518700122833252
1765548759705572400,76.999572265625,-8.578424453735352,6.167463779449463,-1.5705963373184204
1765548759715582000,77.00958203125,-9.23443603515625,4.924872875213623,-1.3742717504501343
1765548759725591800,77.019591796875,-9.59835433959961,4.838681697845459,-1.6065093278884888
1765548759735601700,77.0296015625,-9.919178009033203,5.295974254608154,-2.056619167327881
1765548759745580800,77.03958081054688,-10.36449909210205,5.504269599914551,-2.1116859912872314
1765548759755560000,77.04955981445312,-10.742782592773438,5.058948040008545,-2.274491548538208
1765548759775549200,77.06954907226563,-10.843339920043945,5.564124584197998,-1.8387469053268433
1765548759795568600,77.08956860351563,-10.053253173828125,6.581660270690918,-1.039083480834961
1765548759815588000,77.10958813476563,-9.466673851013184,6.694188117980957,-0.3902548849582672
1765548759845648000,77.13964794921876,-9.2033109664917,3.4763808250427246,0.24181437492370605
1765548759855596500,77.14959643554687,-8.494627952575684,3.995922565460205,0.4692635238170624
1765548759875585800,77.16958569335938,-7.175422668457031,6.629544734954834,0.5746083855628967
1765548759885595400,77.17959545898438,-6.828263282775879,7.230489253997803,0.6009446382522583
1765548759895605200,77.18960522460938,-6.751648902893066,6.519411087036133,0.7422025203704834
1765548759915594200,77.20959423828126,-6.4595561027526855,4.685452938079834,1.9129672050476074
1765548759925604000,77.21960400390626,-6.009446144104004,4.721365928649902,2.410961151123047
1765548759935613700,77.22961376953126,-5.664681434631348,5.183446884155273,2.8443117141723633
1765548759945593000,77.23959301757813,-5.403713226318359,5.700594425201416,3.1244332790374756
1765548759955602700,77.24960278320313,-5.161899089813232,5.717353820800781,3.2800562381744385
1765548759965612500,77.25961254882813,-4.93923807144165,5.5329999923706055,3.359065055847168
1765548759985601500,77.2796015625,-4.745307922363281,5.1116204261779785,3.687070608139038
1765548759995611400,77.289611328125,-4.596867084503174,4.596867084503174,4.206612586975098
1765548760005651700,77.29965161132813,-4.51067590713501,4.321534156799316,4.587290287017822
1765548760015630800,77.309630859375,-4.436455726623535,4.400542736053467,4.565742492675781
1765548760025610000,77.31960986328124,-4.343081951141357,4.481945514678955,4.546588897705078
1765548760035619800,77.32961987304688,-4.261679172515869,4.896142482757568,4.326322555541992
1765548760045629700,77.33962963867188,-3.780444383621216,5.262455463409424,4.3406877517700195
1765548760055608800,77.34960888671876,-3.2369606494903564,5.456385612487793,4.4939165115356445
1765548760065618700,77.35961865234376,-2.499546527862549,5.367800235748291,4.819528102874756
1765548760075597800,77.36959790039063,-1.941697597503662,4.975151062011719,5.219359874725342
1765548760105566200,77.39956616210938,-0.828393816947937,3.6535518169403076,5.69580602645874
1765548760115515000,77.40951489257813,-0.7230489253997803,3.6128504276275635,5.7556610107421875
1765548760125494000,77.41949389648437,-0.49320554733276367,3.4332852363586426,5.602431774139404
1765548760135473400,77.42947338867188,-0.2346317619085312,3.361459255218506,5.796362400054932
1765548760145483300,77.43948315429688,0,2.935291290283203,6.050147533416748
1765548760155492900,77.44949291992188,0.31364041566848755,2.846705913543701,6.150704383850098
1765548760165502700,77.45950268554688,0.6871358752250671,2.669534921646118,6.311115741729736
1765548760175451400,77.46945141601563,1.094150185585022,2.363077163696289,6.481103897094727
1765548760185461200,77.47946118164063,1.4700398445129395,2.1811177730560303,6.447585105895996
1765548760205480700,77.49948071289063,2.585737943649292,2.2673089504241943,6.5481414794921875
1765548760215490600,77.50949047851563,2.647987127304077,2.27209734916687,6.7277069091796875
1765548760225469700,77.5194697265625,2.736572504043579,2.406172752380371,6.909666061401367
1765548760235479600,77.5294794921875,2.9951462745666504,2.406172752380371,7.122750282287598
1765548760245458700,77.53945874023438,3.1651346683502197,2.0590133666992188,7.122750282287598
1765548760255468500,77.54946850585938,3.1052796840667725,1.7717092037200928,7.105990409851074
1765548760265478100,77.55947802734374,3.0837318897247314,1.9393033981323242,6.878541469573975
1765548760275427000,77.56942700195313,3.2992098331451416,1.9800047874450684,6.744466304779053
1765548760285467400,77.57946728515626,3.49314022064209,1.7597382068634033,6.651092529296875
1765548760295477000,77.58947705078126,3.7852327823638916,1.8363527059555054,6.48828649520874
1765548760315466000,77.60946606445313,4.041412353515625,1.3048399686813354,6.5481414794921875
1765548760325475800,77.61947583007813,4.247313976287842,0.8690952062606812,6.691793918609619
1765548760335455000,77.629455078125,4.548983097076416,0.5315127968788147,6.983886241912842
1765548760345464800,77.63946484375,4.78122091293335,0.49559974670410156,6.876147270202637
1765548760355444000,77.64944384765624,4.932055473327637,0.49799394607543945,6.596025466918945
1765548760365453800,77.65945385742188,5.011064052581787,0.3208230137825012,6.313509941101074
1765548760375402500,77.66940258789063,5.329493045806885,0.28969839215278625,6.050147533416748
1765548760385412400,77.67941235351563,5.683835029602051,0.4118026793003082,5.870582580566406
1765548760395391500,77.6893916015625,6.224924564361572,0.7757213711738586,5.870582580566406
1765548760415411200,77.7094111328125,7.19936466217041,0.6823474764823914,5.959167957305908
1765548760425390300,77.71939038085938,7.261613845825195,0.2082955539226532,5.949591159820557
1765548760435400200,77.72940014648438,7.247248649597168,0.08379705995321274,5.861005783081055
1765548760445409800,77.73940991210938,7.005434036254883,0.023942016065120697,5.851428985595703
1765548760455358700,77.74935864257813,7.101202011108398,0.3495534360408783,5.983109951019287
1765548760465368300,77.75936840820313,7.357381820678711,0.5219359993934631,6.117185115814209
1765548760475408600,77.76940869140626,7.709329605102539,0.05027823522686958,6.076483726501465
1765548760495397600,77.78939770507813,7.927201747894287,-0.3423708379268646,6.203376770019531
1765548760505407500,77.79940747070313,8.085219383239746,-0.26815059781074524,6.440402507781982
1765548760515417300,77.80941723632813,8.238448143005371,-0.26815059781074524,6.581660270690918
1765548760525396500,77.819396484375,8.267178535461426,-0.28730419278144836,6.581660270690918
1765548760535375600,77.82937573242188,8.202534675598145,-0.33758243918418884,6.344634532928467
1765548760545385500,77.83938549804688,8.054094314575195,-0.21547815203666687,6.478709697723389
1765548760555395300,77.84939526367188,7.9415669441223145,-0.2585737705230713,6.799532890319824
1765548760565405000,77.85940502929688,7.817068576812744,0.0071826050989329815,7.060500621795654
1765548760575414800,77.86941479492188,7.709329605102539,0.038307227194309235,7.304709434509277
1765548760585424600,77.87942456054688,7.354987621307373,-0.17477671802043915,7.328651428222656
1765548760595403800,77.88940380859376,7.041347026824951,-0.06464344263076782,7.422025203704834
1765548760605444000,77.89944409179688,7.127538681030273,-0.08619125932455063,7.568071365356445
1765548760625402600,77.91940258789063,6.98628044128418,-0.18914192914962769,7.5632829666137695
1765548760635412200,77.929412109375,6.797138690948486,-0.07661445438861847,7.371747016906738
1765548760645422000,77.93942211914063,6.50025749206543,0.20111294090747833,7.173028469085693
1765548760655432000,77.94943188476563,6.244078159332275,0.5171475410461426,6.8162922859191895
1765548760665411000,77.9594111328125,5.9088897705078125,0.6703764796257019,6.687005519866943
1765548760675421000,77.9694208984375,5.635950565338135,1.1827356815338135,6.4380083084106445
1765548760685430500,77.97943041992187,5.250484466552734,1.7693150043487549,6.567295074462891
1765548760695440400,77.9894404296875,4.699818134307861,2.3558945655822754,6.593631267547607
1765548760705450200,77.9994501953125,4.144362926483154,2.717418909072876,6.878541469573975
1765548760715459800,78.0094599609375,3.466804027557373,2.8227639198303223,7.3454108238220215
1765548760735479600,78.0294794921875,2.8203697204589844,2.3343467712402344,7.879317760467529
1765548760745489200,78.0394892578125,2.7485435009002686,1.7166426181793213,7.513004779815674
1765548760755499000,78.0494990234375,2.717418909072876,1.7334020137786865,7.237671852111816
1765548760765539300,78.05953930664063,2.9735984802246094,2.0231003761291504,6.8593878746032715
1765548760775549200,78.06954907226563,3.0550012588500977,2.5019407272338867,6.574477672576904
1765548760785528300,78.0795283203125,2.827552318572998,3.07415509223938,6.507440090179443
1765548760795538200,78.0895380859375,2.786850690841675,3.485957622528076,6.828263282775879
1765548760805547800,78.0995478515625,2.940079689025879,3.7924153804779053,7.108384609222412
1765548760815527200,78.10952709960938,2.7940332889556885,4.182670593261719,7.24485445022583
1765548760825536800,78.11953686523438,2.5929205417633057,4.1395745277404785,6.962338447570801
1765548760835546600,78.12954663085938,2.319981336593628,3.9264907836914062,6.708553314208984
1765548760845525800,78.13952587890626,1.7908629179000854,3.976768970489502,6.797138690948486
1765548760855505200,78.14950512695313,1.6639702320098877,3.9025487899780273,6.92881965637207
1765548760865515000,78.15951489257813,1.5107412338256836,3.665522813796997,6.94079065322876
1765548760875494100,78.169494140625,1.4293384552001953,3.754108190536499,6.773196697235107
1765548760885504000,78.17950390625,1.3024457693099976,4.290409564971924,6.787561893463135
1765548760895483100,78.18948315429688,0.9528923034667969,4.884171485900879,6.904877662658691
1765548760905493000,78.19949291992188,0.8571242094039917,5.39174222946167,7.122750282287598
1765548760915502600,78.20950268554688,0.7015010714530945,5.5976433753967285,7.273584842681885
1765548760935522300,78.22952221679688,-0.06464344263076782,5.360617637634277,7.036558628082275
1765548760945532000,78.23953198242188,-0.26575639843940735,5.880159378051758,6.888118267059326
1765548760955541800,78.24954174804688,-0.3519476354122162,6.110002517700195,6.92881965637207
1765548760965551600,78.25955151367188,0.1867477297782898,5.657498836517334,6.871358871459961
1765548760975561200,78.26956127929688,0.395043283700943,4.733336925506592,6.433219909667969
1765548760985571000,78.27957104492188,0.47165772318840027,4.54419469833374,6.246472358703613
1765548760995550200,78.28955029296876,0.49799394607543945,4.812345504760742,6.167463779449463
1765548761005560000,78.29956005859376,-0.17477671802043915,5.494692802429199,5.978321552276611
1765548761015508700,78.3095087890625,-0.7948749661445618,6.1530985832214355,5.748478412628174
1765548761025488100,78.31948803710938,-1.1779472827911377,6.3973069190979,5.827486991882324
1765548761045538000,78.3395380859375,-0.7326257228851318,6.1052141189575195,5.274426460266113
1765548761055517400,78.34951733398438,-0.4357447028160095,5.985504150390625,4.745307922363281
1765548761065527000,78.35952709960938,-0.19871874153614044,5.810727596282959,4.0964789390563965
1765548761075475700,78.36947583007813,-0.35434186458587646,6.208165168762207,3.3877954483032227
1765548761085485600,78.37948559570313,-0.7541735172271729,6.921637058258057,3.00711727142334
1765548761095465000,78.38946484375,-1.1516109704971313,7.441178798675537,2.7557260990142822
1765548761105505000,78.39950512695313,-1.235408067703247,7.694964408874512,2.557007312774658
1765548761115484400,78.409484375,-1.139639973640442,7.46033239364624,2.212242364883423
1765548761125494000,78.41949389648437,-0.9552865028381348,7.194576263427734,1.7764976024627686
1765548761155492900,78.44949291992188,-0.8786720037460327,8.429984092712402,0.9145850539207458
1765548761165502700,78.45950268554688,-1.8171991109848022,8.643068313598633,1.0462661981582642
1765548761175481900,78.46948193359376,-2.669534921646118,8.257601737976074,1.039083480834961
1765548761185491700,78.47949169921876,-3.1292216777801514,7.989450931549072,0.7757213711738586
1765548761195470800,78.48947094726563,-3.1004912853240967,7.716512203216553,0.2801215946674347
1765548761205480700,78.49948071289063,-2.695871114730835,7.702147006988525,-0.3280056416988373
1765548761215490600,78.50949047851563,-2.293645143508911,8.04930591583252,-0.7541735172271729
1765548761225500200,78.51950024414063,-2.0853497982025146,7.9176249504089355,-1.0893617868423462
1765548761235479600,78.5294794921875,-2.1092917919158936,7.594407558441162,-1.5298948287963867
1765548761255468500,78.54946850585938,-2.762908697128296,7.46033239364624,-2.4827871322631836
1765548761265478100,78.55947802734374,-3.2585084438323975,7.357381820678711,-2.7222073078155518
1765548761275457500,78.56945751953126,-3.2585084438323975,7.357381820678711,-2.7222073078155518
1765548761285467400,78.57946728515626,-3.6798880100250244,7.029376029968262,-3.045424461364746
1765548761295446500,78.58944653320313,-3.801992416381836,6.84981107711792,-3.5649664402008057
1765548761305486800,78.59948681640626,-3.2106244564056396,7.230489253997803,-4.247313976287842
1765548761315466000,78.60946606445313,-2.671929121017456,7.864952564239502,-4.630385875701904
1765548761325445400,78.6194453125,-2.6455929279327393,7.817068576812744,-4.6255974769592285
1765548761335424500,78.62942456054688,-3.069366693496704,6.979097843170166,-4.702212333679199
1765548761345464800,78.63946484375,-3.7421371936798096,6.701370716094971,-4.6471452713012695
1765548761395483100,78.68948315429688,-5.925649166107178,5.403713226318359,-5.468356609344482
1765548761405493000,78.69949291992188,-6.088454723358154,5.372588634490967,-6.035782337188721
1765548761415472000,78.70947216796876,-6.315904140472412,5.863399982452393,-6.165069580078125
1765548761425482000,78.71948193359376,-6.6846113204956055,6.186617374420166,-6.246472358703613
1765548761435461000,78.72946118164063,-6.919242858886719,6.021417140960693,-6.361393928527832
1765548761445440500,78.7394404296875,-7.259219646453857,5.995080947875977,-6.423643112182617
1765548761465429500,78.75942944335938,-7.936778545379639,6.050147533416748,-6.926425457000732
1765548761475408600,78.76940869140626,-8.465897560119629,5.851428985595703,-7.026981830596924
1765548761485449000,78.77944897460938,-8.87051773071289,5.22175407409668,-7.232883453369141
1765548761495397600,78.78939770507813,-9.251194953918457,4.967968463897705,-7.390900611877441
1765548761505377000,78.799376953125,-9.588777542114258,4.288015365600586,-7.493851184844971
1765548761515386600,78.80938671875,-9.840168952941895,3.818751811981201,-7.967903137207031
1765548761525366000,78.81936596679688,-10.132261276245117,3.533841609954834,-8.391676902770996
1765548761535375600,78.82937573242188,-10.295066833496094,3.56017804145813,-8.992621421813965
1765548761545416000,78.839416015625,-10.33098030090332,4.182670593261719,-9.548076629638672
1765548761565466000,78.85946606445313,-10.548852920532227,5.74129581451416,-10.005369186401367
1765548761585455000,78.879455078125,-10.618284225463867,5.724536418914795,-10.041281700134277
1765548761595434200,78.88943432617188,-10.225635528564453,6.3949127197265625,-10.44350814819336
1765548761605444000,78.89944409179688,-9.677363395690918,6.4164605140686035,-10.943896293640137
1765548761615423200,78.90942333984376,-9.404424667358398,6.435614109039307,-11.494562149047852
1765548761625463600,78.91946362304688,-10.113107681274414,6.325480937957764,-11.714828491210938
1765548761635443000,78.92944287109376,-11.437101364135742,6.890512466430664,-11.511322021484375
1765548761645483300,78.93948315429688,-12.751518249511719,7.283161640167236,-10.912771224975586
1765548761655492900,78.94949291992188,-13.927071571350098,7.038952827453613,-10.08437728881836
1765548761665502700,78.95950268554688,-14.575900077819824,6.6630635261535645,-9.995792388916016
1765548761675512300,78.96951220703124,-14.757859230041504,7.144298076629639,-10.625467300415039
1765548761685552600,78.979552734375,-14.927847862243652,7.450755596160889,-11.085153579711914
1765548761695532000,78.98953198242188,-15.21275806427002,6.885724067687988,-11.255142211914062
1765548761705541600,78.99954174804688,-15.670049667358398,6.191405773162842,-11.291055679321289
1765548761715551500,79.00955151367188,-16.05072784423828,6.050147533416748,-11.065999984741211
1765548761725561300,79.01956127929688,-16.0291805267334,6.2416839599609375,-10.991780281066895
1765548761735540500,79.02954052734376,-16.22071647644043,6.2416839599609375,-10.876858711242676
1765548761745550300,79.03955029296876,-16.46731948852539,5.813121795654297,-10.831368446350098
1765548761755560000,79.04955981445312,-16.323667526245117,5.298368453979492,-11.1474027633667
1765548761775549200,79.06954907226563,-15.145719528198242,6.184223175048828,-11.176133155822754
1765548761785558800,79.07955883789063,-13.7882080078125,6.964732646942139,-10.84094524383545
1765548761795538200,79.0895380859375,-12.442666053771973,7.515398979187012,-10.457873344421387
1765548761805517300,79.09951733398438,-11.252747535705566,8.078036308288574,-10.034099578857422
1765548761815496400,79.10949633789062,-10.146626472473145,8.24084186553955,-9.493009567260742
1765548761825475800,79.11947583007813,-9.488221168518066,7.843404769897461,-9.279925346374512
1765548761835455000,79.129455078125,-9.167398452758789,7.3238630294799805,-9.227252960205078
1765548761845495300,79.13949536132813,-9.064447402954102,6.967126846313477,-8.983044624328613
1765548761855444000,79.14944384765624,-8.487444877624512,6.5696892738342285,-8.588001251220703
1765548761865453800,79.15945385742188,-8.192957878112793,6.871358871459961,-8.33182144165039
1765548761875463700,79.16946362304688,-7.8745293617248535,7.378929615020752,-8.11634349822998
1765548761885504000,79.17950390625,-8.097189903259277,8.001421928405762,-7.9846625328063965
1765548761895452700,79.18945263671876,-8.40843677520752,8.432378768920898,-7.824251174926758
1765548761905431800,79.19943188476563,-8.688557624816895,8.473079681396484,-7.73087739944458
1765548761915411200,79.2094111328125,-8.825027465820312,8.398859977722168,-7.247248649597168
1765548761925420800,79.2194208984375,-8.825027465820312,8.398859977722168,-7.247248649597168
1765548761935430700,79.2294306640625,-8.458714485168457,7.817068576812744,-6.926425457000732
1765548761945440500,79.2394404296875,-8.183381080627441,7.007828235626221,-6.8378400802612305
1765548761955389200,79.24938916015626,-7.860164165496826,6.349422931671143,-7.110779285430908
1765548761965399000,79.25939892578126,-7.501033782958984,5.789179801940918,-7.223306655883789
1765548762005377000,79.299376953125,-5.315127849578857,5.410895824432373,-6.3302693367004395
1765548762035375600,79.32937573242188,-2.978386878967285,5.432443618774414,-6.165069580078125
1765548762045385500,79.33938549804688,-2.82515811920166,5.34625244140625,-5.714959621429443
1765548762055395300,79.34939526367188,-3.028665065765381,4.95120906829834,-5.142745018005371
1765548762065374500,79.35937451171876,-3.332728862762451,3.6798880100250244,-4.944026470184326
1765548762075353900,79.36935375976563,-3.201047658920288,3.203441858291626,-4.999093055725098
1765548762085363500,79.37936352539063,-2.5067291259765625,3.0789434909820557,-5.04218864440918
1765548762095342800,79.3893427734375,-1.7717092037200928,2.918531894683838,-5.298368453979492
1765548762105352400,79.3993525390625,-1.039083480834961,3.043030261993408,-5.169081687927246
1765548762115331800,79.40933178710938,-0.30885201692581177,3.1052796840667725,-4.6950297355651855
1765548762125341400,79.41934155273438,0.3734954595565796,3.3877954483032227,-4.010287761688232
1765548762135290400,79.42929028320313,1.0654197931289673,3.7253777980804443,-3.5458126068115234
1765548762145330400,79.43933032226562,1.764526605606079,3.7493197917938232,-3.162740468978882
1765548762155340300,79.44934033203126,2.1332337856292725,4.098873138427734,-2.8131868839263916
1765548762165380600,79.45938061523438,2.2242133617401123,4.077325344085693,-2.126051187515259
1765548762175359700,79.46935986328126,2.3127987384796143,3.380612850189209,-1.5538369417190552
1765548762185400000,79.47940014648438,2.652775526046753,2.6839001178741455,-1.1324573755264282
1765548762195410000,79.48940991210938,2.868253707885742,1.7621324062347412,-0.9361328482627869
1765548762205450200,79.4994501953125,3.2632968425750732,1.0199298858642578,-0.9145850539207458
1765548762225469700,79.5194697265625,3.6990416049957275,1.0319008827209473,0.15562310814857483
1765548762235479600,79.5294794921875,3.840299606323242,1.173158884048462,0.6129156351089478
1765548762245489200,79.5394892578125,4.474762916564941,1.4963760375976562,1.1252747774124146
1765548762255468500,79.54946850585938,4.917690277099609,1.678335428237915,1.2761094570159912
1765548762265447700,79.55944775390626,5.525817394256592,1.98958158493042,1.3431471586227417
1765548762275457500,79.56945751953126,5.896918773651123,2.229001760482788,1.4437036514282227
1765548762285497900,79.57949780273438,6.19379997253418,2.296039342880249,1.6639702320098877
1765548762295477000,79.58947705078126,6.382941722869873,2.31758713722229,2.0853497982025146
1765548762305486800,79.59948681640626,6.22731876373291,1.8171991109848022,2.75812029838562
1765548762315466000,79.60946606445313,6.026205539703369,0.9696516990661621,3.248931646347046
1765548762335455000,79.629455078125,6.112396717071533,-0.023942016065120697,3.8546648025512695
1765548762345464800,79.63946484375,6.5481414794921875,-0.6320692300796509,3.6607344150543213
1765548762355474700,79.649474609375,6.586448669433594,-0.6440402865409851,3.6583402156829834
1765548762365484300,79.659484375,6.607996463775635,-0.3280056416988373,4.151545524597168
1765548762375494100,79.669494140625,6.5265936851501465,-0.12928688526153564,4.37420654296875
1765548762385504000,79.67950390625,6.378153324127197,0.22266076505184174,4.570530891418457
1765548762395513600,79.689513671875,7.137115478515625,0.6248866319656372,4.7189717292785645
1765548762405523500,79.6995234375,7.419631004333496,0.507570743560791,4.594472885131836
1765548762415502600,79.70950268554688,7.474697589874268,0.38307225704193115,4.410119533538818
1765548762435491600,79.72949169921876,7.177816867828369,0.1604115068912506,4.747702121734619
1765548762445501400,79.73950146484376,6.777985095977783,0.08379705995321274,5.485116004943848
1765548762455480600,79.74948046875,6.9910688400268555,-0.47165772318840027,6.090848922729492
1765548762465490400,79.75949047851563,7.146692276000977,-1.1300631761550903,6.167463779449463
1765548762475500300,79.76950024414063,7.527369976043701,-1.3407529592514038,6.069301128387451
1765548762485510000,79.77951000976563,7.6566572189331055,-1.1300631761550903,5.966350555419922
1765548762495519700,79.78951977539063,7.352593421936035,-0.7948749661445618,6.270414352416992
1765548762505529600,79.79952954101563,6.785167694091797,-0.8451532125473022,6.842628479003906
1765548762515539200,79.80953930664063,6.160281181335449,-1.4173674583435059,7.316680431365967
1765548762535528200,79.82952807617187,6.045359134674072,-2.3535003662109375,8.018181800842285
1765548762545507600,79.83950756835938,6.593631267547607,-2.4468741416931152,7.716512203216553
1765548762555486700,79.84948681640626,7.094019412994385,-2.43011474609375,7.654263019561768
1765548762565496600,79.85949658203126,7.577648162841797,-2.078166961669922,7.9846625328063965
1765548762575475700,79.86947583007813,7.577648162841797,-2.078166961669922,7.9846625328063965
1765548762585485600,79.87948559570313,7.838616371154785,-1.968033790588379,8.607154846191406
1765548762595495400,79.88949536132813,8.037335395812988,-2.190694570541382,9.057265281677246
1765548762605505000,79.89950512695313,8.190564155578613,-2.343923568725586,9.284713745117188
1765548762615515000,79.90951489257813,8.183381080627441,-2.3558945655822754,9.133879661560059
1765548762625494000,79.91949389648437,8.133103370666504,-2.75812029838562,8.798690795898438
1765548762645483300,79.93948315429688,7.47230339050293,-3.579331636428833,8.956708908081055
1765548762655462400,79.94946240234376,7.024587631225586,-3.8163576126098633,9.385271072387695
1765548762665441500,79.95944165039063,6.84981107711792,-4.010287761688232,9.68933391571045
1765548762675421000,79.9694208984375,6.550535678863525,-3.825934410095215,9.552865028381348
1765548762685461200,79.97946118164063,6.435614109039307,-3.7205893993377686,9.193734169006348
1765548762695440400,79.9894404296875,6.517016887664795,-3.335123062133789,9.330204010009766
1765548762705450200,79.9994501953125,6.610390663146973,-3.2609026432037354,9.521739959716797
1765548762715459800,80.0094599609375,6.806715488433838,-3.337517261505127,9.727641105651855
1765548762725469700,80.0194697265625,7.007828235626221,-3.49314022064209,9.895236015319824
1765548762735449000,80.02944897460938,7.218518257141113,-3.4763808250427246,10.122684478759766
1765548762785497900,80.07949780273438,6.368576526641846,-3.1675288677215576,10.1753568649292
1765548762795507500,80.08950756835938,6.299144744873047,-3.222595453262329,10.093954086303711
1765548762805517300,80.09951733398438,6.303933143615723,-3.136404275894165,9.998186111450195
1765548762815496400,80.10949633789062,6.2847795486450195,-2.964021682739258,9.579200744628906
1765548762825536800,80.11953686523438,6.205770969390869,-3.021482467651367,9.191340446472168
1765548762835546600,80.12954663085938,6.054935932159424,-2.9688100814819336,9.071630477905273
1765548762845587000,80.1395869140625,5.858611583709717,-2.403778553009033,8.908824920654297
1765548762855596500,80.14959643554687,5.8873419761657715,-1.9273324012756348,9.030928611755371
1765548762875555000,80.16955517578126,6.074089527130127,-1.9823989868164062,8.504204750061035
1765548762895544000,80.1895439453125,6.143521785736084,-2.456450939178467,7.910442352294922
1765548762905584400,80.19958447265626,6.19379997253418,-2.5689783096313477,8.159439086914062
1765548762925573400,80.21957348632813,6.251260757446289,-2.693476915359497,8.003816604614258
1765548762975652900,80.26965283203126,6.564900875091553,-1.2976573705673218,7.060500621795654
1765548762985693200,80.27969311523438,6.339846134185791,-0.790086567401886,6.675034523010254
1765548762995702800,80.28970288085938,6.1770405769348145,-0.608127236366272,6.165069580078125
1765548763035742000,80.32974194335938,5.822698593139648,0.24899697303771973,6.007051944732666
1765548763075781000,80.36978100585938,5.125985622406006,0.950498104095459,5.544970989227295
1765548763085790700,80.37979077148438,5.020640850067139,0.8020575642585754,5.013458251953125
1765548763095800600,80.38980053710938,4.786009311676025,0.8643068075180054,4.534617900848389
1765548763105810200,80.39981005859374,4.532223701477051,1.094150185585022,3.9647979736328125
1765548763115820000,80.40982006835938,4.2090067863464355,1.6041151285171509,3.624821424484253
1765548763125799400,80.41979931640626,4.036623954772949,2.4612393379211426,3.1459810733795166
1765548763135809000,80.42980908203126,4.041412353515625,3.4596214294433594,2.80361008644104
1765548763145819000,80.43981884765626,3.9863457679748535,4.333505153656006,2.516305923461914
1765548763175848200,80.46984814453126,3.3686418533325195,5.003881454467773,2.164358377456665
1765548763185857800,80.47985791015626,3.0597896575927734,4.659116744995117,1.824381709098816
1765548763195837200,80.48983715820313,2.693476915359497,4.563348293304443,1.4844050407409668
1765548763205847000,80.49984692382813,2.367865562438965,4.637568473815918,1.3287819623947144
1765548763215795700,80.50979565429688,2.0470423698425293,4.747702121734619,1.1468225717544556
1765548763225805300,80.51980541992188,1.702277421951294,4.766855716705322,0.7254431247711182
1765548763235815200,80.52981518554688,1.158793568611145,4.991910457611084,0.11252748221158981
1765548763245825000,80.53982495117188,1.158793568611145,4.991910457611084,0.11252748221158981
1765548763255804200,80.54980419921876,0.6703764796257019,5.3582234382629395,-0.42377370595932007
1765548763285772500,80.5797724609375,-0.17717093229293823,5.834669589996338,-0.6751648783683777
1765548763295782100,80.5897822265625,-0.4620809257030487,6.007051944732666,-0.8427590131759644
1765548763305792000,80.5997919921875,-0.7805097699165344,6.4380083084106445,-1.036689281463623
1765548763315771100,80.60977124023438,-0.9768342971801758,6.9240312576293945,-1.4197616577148438
1765548763325811500,80.6198115234375,-1.1827356815338135,7.1490864753723145,-1.9105730056762695
1765548763335760100,80.62976000976562,-1.45806884765625,6.469132900238037,-2.5905263423919678
1765548763345739500,80.63973950195313,-1.9057846069335938,5.9735331535339355,-3.224989652633667
1765548937319003600,254.61300366210938,-3.8977603912353516,9.9000244140625,-3.404554843902588
1765548937328782800,254.62278295898437,-4.273650169372559,9.852140426635742,-3.4548330307006836
1765548937348602400,254.6426022949219,-4.7405195236206055,9.823410034179688,-3.44765043258667
1765548937358612200,254.6526123046875,-4.788403511047363,9.452308654785156,-3.620033025741577
1765548937378601200,254.67260131835937,-5.149928092956543,9.710882186889648,-4.1395745277404785
1765548937388611000,254.68261108398437,-5.303156852722168,9.636661529541016,-4.201824188232422
1765548937408630500,254.70263061523437,-5.22175407409668,9.674968719482422,-4.261679172515869
1765548937418609700,254.71260961914064,-5.0469770431518555,9.763554573059082,-4.268861770629883
1765548937428589000,254.72258911132812,-4.759673118591309,9.749189376831055,-4.532223701477051
1765548937448608500,254.7426083984375,-4.290409564971924,9.119514465332031,-4.733336925506592
1765548937458618400,254.75261840820312,-4.32871675491333,8.918401718139648,-4.680664539337158
1765548937468567000,254.76256713867187,-4.54419469833374,8.669404029846191,-4.613626480102539
1765548937478577000,254.77257690429687,-4.807557106018066,8.482656478881836,-4.508281707763672
1765548937488586500,254.78258642578126,-4.98472785949707,8.489839553833008,-4.220977783203125
1765548937498596400,254.79259643554687,-5.092466831207275,8.643068313598633,-4.259284973144531
1765548937508575500,254.80257543945314,-5.049371242523193,8.358158111572266,-4.477157115936279
1765548937518585300,254.81258544921874,-5.07570743560791,8.358158111572266,-4.513070106506348
1765548937528595200,254.82259521484374,-5.0014872550964355,8.542511940002441,-4.525041103363037
1765548937548614700,254.84261474609374,-5.250484466552734,8.47547435760498,-4.608838081359863
1765548937568603600,254.86260375976562,-5.3797712326049805,8.322244644165039,-4.967968463897705
1765548937578583000,254.8725830078125,-5.461174011230469,7.939172744750977,-5.125985622406006
1765548937588562200,254.88256225585937,-5.410895824432373,7.987056732177734,-4.970362663269043
1765548937598602500,254.8926025390625,-5.281609058380127,8.377311706542969,-4.795586109161377
1765548937608581600,254.90258154296876,-5.260061264038086,8.588001251220703,-4.90571928024292
1765548937618622000,254.9126220703125,-5.458779811859131,8.719682693481445,-5.056553840637207
1765548937628570600,254.92257055664064,-5.7556610107421875,8.880094528198242,-4.960785865783691
1765548937638580500,254.93258056640624,-5.738901615142822,8.848969459533691,-4.869806289672852
1765548937688568300,254.982568359375,-5.92325496673584,9.770736694335938,-5.214571475982666
1765548937708587800,255.002587890625,-6.734889507293701,10.359710693359375,-5.501875400543213
1765548937718567200,255.01256713867187,-6.734889507293701,10.359710693359375,-5.501875400543213
1765548937728546300,255.02254638671874,-6.9910688400268555,10.448296546936035,-5.633556365966797
1765548937738525400,255.032525390625,-7.362170219421387,10.271124839782715,-6.160281181335449
1765548937748535300,255.04253540039062,-7.872135162353516,10.098742485046387,-6.751648902893066
1765548937778564600,255.07256469726562,-8.695740699768066,9.593565940856934,-7.876923561096191
1765548937798553600,255.0925537109375,-8.791508674621582,10.158597946166992,-8.061277389526367
1765548937808533000,255.10253295898437,-8.87051773071289,10.747570991516113,-8.161833763122559
1765548937818542600,255.11254248046876,-8.87291145324707,11.274295806884766,-8.20492935180664
1765548937828522000,255.12252197265624,-8.7484130859375,11.834539413452148,-8.322244644165039
1765548937838531600,255.13253149414064,-8.597578048706055,12.052411079406738,-8.38449478149414
1765548937848541400,255.14254150390624,-8.468291282653809,11.868058204650879,-8.259995460510254
1765548937878570800,255.17257080078124,-7.807491779327393,11.365275382995605,-8.17380428314209
1765548937928619500,255.22261962890624,-7.424419403076172,13.457807540893555,-6.184223175048828
1765548937968567000,255.26256713867187,-6.9024834632873535,13.51766300201416,-4.752490520477295
1765548937978546400,255.27254638671874,-6.926425457000732,12.871228218078613,-4.594472885131836
1765548937998535400,255.29253540039062,-6.97430944442749,11.458649635314941,-4.417302131652832
1765548938068451000,255.362451171875,-5.1116204261779785,10.697293281555176,-3.6511576175689697
1765548938108459500,255.40245947265626,-3.5386300086975098,8.669404029846191,-3.0190882682800293
1765548938128448800,255.42244873046874,-3.0382418632507324,7.266402244567871,-2.1547815799713135
1765548938138488800,255.43248876953126,-2.937685489654541,6.799532890319824,-1.37906014919281
1765548938148468200,255.44246826171874,-2.4396915435791016,6.289567947387695,-0.6584054827690125
1765548938158508500,255.45250854492187,-1.7980455160140991,5.91128396987915,0.033518824726343155
1765548938168487700,255.46248779296874,-1.1037269830703735,5.477933406829834,0.5051765441894531
1765548938198486500,255.49248657226562,-0.6631938815116882,4.223371982574463,1.723825216293335
1765548938208435200,255.50243530273437,-0.5147533416748047,4.079719543457031,2.2170307636260986
1765548938228393700,255.52239379882812,0.1843535304069519,3.4572272300720215,2.3127987384796143
1765548938238434000,255.53243408203124,0.24420857429504395,3.2968156337738037,2.4899697303771973
1765548938268402200,255.5624020996094,0.8068459630012512,3.928884983062744,3.6391866207122803
1765548938288360700,255.58236059570314,1.5729905366897583,3.689464807510376,3.892971992492676
1765548938298370600,255.59237060546874,1.6950948238372803,3.7876269817352295,3.883395195007324
1765548938308380400,255.60238037109374,1.7334020137786865,3.670311212539673,3.907337188720703
1765548938318390000,255.61239013671874,2.0470423698425293,3.7158010005950928,3.9432501792907715
1765548938328400000,255.62239990234374,2.4229321479797363,3.8738183975219727,4.010287761688232
1765548938338409500,255.63240942382814,2.7485435009002686,4.290409564971924,4.268861770629883
1765548938348419300,255.64241943359374,2.738966703414917,4.513070106506348,4.46518611907959
1765548938358429200,255.65242919921874,2.738966703414917,4.513070106506348,4.46518611907959
1765548938368438800,255.66243872070314,2.7533318996429443,4.479551315307617,4.568136692047119
1765548938378479000,255.67247900390626,2.8586769104003906,4.352658748626709,4.692635536193848
1765548938408508400,255.70250830078126,3.222595453262329,2.985569477081299,5.681440830230713
1765548938418518300,255.71251831054687,3.536235809326172,2.6575639247894287,6.0836663246154785
1765548938428527900,255.72252783203126,3.840299606323242,2.078166961669922,6.610390663146973
1765548938438537700,255.73253784179687,4.0964789390563965,1.7046716213226318,7.3454108238220215
1765548938448547600,255.74254760742187,4.546588897705078,1.3694833517074585,7.8529815673828125
1765548938458526700,255.75252661132814,4.932055473327637,1.2473790645599365,8.17380428314209
1765548938468536600,255.76253662109374,5.295974254608154,1.1683704853057861,8.59997272491455
1765548938478577000,255.77257690429687,5.252878665924072,1.2234370708465576,8.89445972442627
1765548938488556000,255.78255615234374,5.22175407409668,1.3048399686813354,9.05487060546875
1765548938498535400,255.79253540039062,5.449203014373779,1.158793568611145,9.346963882446289
1765548938508545000,255.802544921875,5.523423194885254,0.7350199222564697,9.337387084960938
1765548938518555000,255.81255493164062,5.683835029602051,0.45010992884635925,9.294290542602539
1765548938528534000,255.8225339355469,5.683835029602051,0.3926490843296051,9.44752025604248
1765548938538543900,255.8325439453125,5.600037574768066,0.21787235140800476,9.495404243469238
1765548938548553700,255.8425537109375,5.540182590484619,0.014365210197865963,9.526528358459473
1765548938558593800,255.85259375,5.549759387969971,0.304063618183136,9.445125579833984
1765548938568603600,255.86260375976562,5.4013190269470215,0.7230489253997803,9.188945770263672
1765548938578613500,255.87261352539062,5.274426460266113,0.811634361743927,9.07641887664795
1765548938588623000,255.882623046875,5.054159641265869,1.0773907899856567,9.155426979064941
1765548938608612400,255.9026123046875,5.094861030578613,1.1300631761550903,8.468291282653809
1765548938628601300,255.92260131835937,5.207388877868652,1.3455413579940796,8.209717750549316
1765548938638611000,255.93261083984376,5.123591423034668,1.4652514457702637,8.362946510314941
1765548938648620800,255.94262084960937,5.152322292327881,1.8698714971542358,8.20732307434082
1765548938658630700,255.95263061523437,5.293580055236816,2.1763293743133545,8.274360656738281
1765548938668609800,255.96260986328124,5.123591423034668,1.98958158493042,8.169015884399414
1765548938678619600,255.97261962890624,5.2049946784973145,1.7405846118927002,8.216899871826172
1765548938688598800,255.98259887695312,5.415684223175049,1.7118542194366455,8.233659744262695
1765548938698608600,255.99260864257812,5.556941986083984,1.656787633895874,8.161833763122559
1765548938748596500,256.0425964355469,5.118803024291992,2.7102363109588623,8.13789176940918
1765548938758606000,256.0526062011719,4.795586109161377,2.959233283996582,8.018181800842285
1765548938768616000,256.0626159667969,4.49870491027832,2.9520506858825684,7.838616371154785
1765548938778625500,256.07262548828123,4.37420654296875,2.8874073028564453,7.881711959838867
1765548938788574500,256.08257446289065,4.304774761199951,2.612074136734009,7.754819393157959
1765548938798553600,256.0925537109375,4.242525577545166,2.1380221843719482,7.338228225708008
1765548938808563500,256.1025634765625,4.153939723968506,2.0470423698425293,7.326257228851318
1765548938818542600,256.11254248046873,3.7900211811065674,1.886630892753601,6.919242858886719
1765548938838531600,256.1325314941406,2.8826189041137695,1.7956513166427612,6.452373504638672
1765548938848511000,256.14251098632815,2.7461493015289307,2.0254945755004883,5.918466567993164
1765548938858551300,256.1525512695313,2.631227731704712,2.454056739807129,5.202600479125977
1765548938868530400,256.16253051757815,1.9943699836730957,3.098097085952759,4.654327869415283
1765548938878570800,256.1725708007813,1.2306196689605713,3.794809579849243,4.402936935424805
1765548938888580600,256.1825805664063,0.8307880163192749,3.931279182434082,4.76924991607666
1765548938898590200,256.1925900878906,0.727837324142456,4.091690540313721,5.125985622406006
1765548938908600000,256.2026000976563,0.9481038451194763,4.079719543457031,5.161899089813232
1765548938918609700,256.2126096191406,1.0821791887283325,4.189853191375732,5.011064052581787
1765548938928589000,256.22258911132815,1.192312479019165,4.350264549255371,4.845864295959473
1765548938938599000,256.23259887695315,1.2976573705673218,4.611232280731201,4.443638324737549
1765548938948608500,256.2426083984375,1.335964560508728,5.011064052581787,4.292803764343262
1765548938958588000,256.252587890625,1.4053963422775269,5.43723201751709,4.424484729766846
1765548938968567000,256.2625671386719,1.4724340438842773,5.772420406341553,4.3622355461120605
1765548938978577000,256.2725769042969,1.659181833267212,6.179434776306152,4.127603530883789
1765548938988586500,256.28258642578123,1.9536685943603516,6.406883716583252,3.8810009956359863
1765548938998596400,256.2925964355469,1.965639591217041,6.536170482635498,3.488351821899414
1765548939008606200,256.3026062011719,1.7812861204147339,6.651092529296875,3.071760892868042
1765548939018615800,256.31261572265623,1.7812861204147339,6.651092529296875,3.071760892868042
1765548939038635500,256.3326354980469,1.2617442607879639,7.395689010620117,1.5322890281677246
1765548939058655000,256.3526550292969,0.7445967197418213,8.056488990783691,1.292868971824646
1765548939068664800,256.3626647949219,0.2944868206977844,7.972691535949707,1.1420341730117798
1765548939078674400,256.37267431640623,-0.16759411990642548,8.058882713317871,1.1252747774124146
1765548939088623000,256.382623046875,-0.30885201692581177,8.394071578979492,0.8858546018600464
1765548939098633000,256.39263305664065,-0.5793967843055725,8.786720275878906,0.47884035110473633
1765548939108642800,256.40264282226565,-0.7852981686592102,9.205705642700195,-0.1628057211637497
1765548939118652400,256.41265234375,-1.0342950820922852,9.461885452270508,-0.5434837937355042
1765548939128662300,256.42266235351565,-1.192312479019165,9.734824180603027,-0.7805097699165344
1765548939158661000,256.4526611328125,-2.2361843585968018,9.07641887664795,-1.4245500564575195
1765548939168670700,256.46267065429686,-2.4420857429504395,8.724471092224121,-1.6160861253738403
1765548939178650000,256.4726501464844,-2.406172752380371,8.69334602355957,-2.0207061767578125
1765548939188659700,256.48265966796873,-2.5498247146606445,9.14345645904541,-2.229001760482788
1765548939198700000,256.49269995117186,-2.7916390895843506,9.727641105651855,-2.183511972427368
1765548939228699000,256.5226989746094,-2.494758129119873,11.149797439575195,-3.0621838569641113
1765548939238708700,256.5327087402344,-2.4588451385498047,11.587936401367188,-3.272873640060425
1765548939248718300,256.54271826171873,-2.363077163696289,11.57357120513916,-3.44765043258667
1765548939258728200,256.5527282714844,-2.4588451385498047,10.99896240234375,-3.5434184074401855
1765548939268707300,256.5627072753906,-2.5929205417633057,10.160991668701172,-3.485957622528076
1765548939278747600,256.57274755859373,-2.7964274883270264,9.320627212524414,-3.512293815612793
1765548939288757500,256.5827575683594,-2.9520506858825684,9.028534889221191,-4.050989151000977
1765548939298736600,256.5927365722656,-3.203441858291626,9.083600997924805,-4.707000732421875
1765548939308746500,256.6027465820313,-3.531447410583496,9.579200744628906,-5.30076265335083
1765548939318756400,256.6127563476563,-4.022258758544922,10.431536674499512,-5.640739440917969
1765548939328766000,256.6227658691406,-4.580107688903809,11.137825965881348,-6.0405707359313965
1765548939338775800,256.6327758789063,-5.063736438751221,11.547234535217285,-6.086060523986816
1765548939348785700,256.6427856445313,-5.360617637634277,11.815385818481445,-6.071695327758789
1765548939368774700,256.66277465820315,-4.726154327392578,11.377246856689453,-5.671864032745361
1765548939378753800,256.67275390625,-4.558559894561768,11.295844078063965,-5.853823184967041
1765548939388763600,256.682763671875,-4.716577529907227,11.259930610656738,-6.435614109039307
1765548939398742800,256.69274267578123,-5.0876784324646,11.350910186767578,-6.904877662658691
1765548939408722200,256.7027221679688,-5.303156852722168,11.638214111328125,-7.271190643310547
1765548939418701300,256.71270141601565,-5.710171222686768,11.834539413452148,-7.4986395835876465
1765548939428680700,256.7226806640625,-5.880159378051758,11.99255657196045,-7.357381820678711
1765548939438720800,256.732720703125,-6.138733386993408,12.24155330657959,-6.8809356689453125
1765548939448730600,256.74273071289065,-6.184223175048828,12.045228958129883,-6.6391215324401855
1765548939468719600,256.7627197265625,-6.035782337188721,11.84650993347168,-7.3693528175354
1765548939478729500,256.7727294921875,-6.291962146759033,12.20803451538086,-7.783549785614014
1765548939488708600,256.78270849609373,-6.490680694580078,12.713211059570312,-8.08043098449707
1765548939498718500,256.7927185058594,-6.562506675720215,13.127408027648926,-8.051700592041016
1765548939508728000,256.80272802734373,-6.423643112182617,13.57512378692627,-7.7883381843566895
1765548939518768400,256.81276831054686,-6.1770405769348145,13.69962215423584,-7.553706169128418
1765548939528747800,256.8227478027344,-6.169857978820801,13.661314964294434,-7.599195957183838
1765548939538788000,256.8327880859375,-6.3518171310424805,14.056358337402344,-7.577648162841797
1765548939548797700,256.84279760742186,-6.423643112182617,14.25268268585205,-7.522581577301025
1765548939568817400,256.8628173828125,-6.708553314208984,14.786589622497559,-7.168240070343018
1765548939578827000,256.87282690429686,-6.655880928039551,14.930241584777832,-6.636727333068848
1765548939588867300,256.88286743164065,-6.761225700378418,14.822503089904785,-6.3518171310424805
1765548939598877200,256.89287719726565,-6.878541469573975,14.654908180236816,-6.19379997253418
1765548939608856300,256.90285620117186,-6.84981107711792,14.645331382751465,-6.042964935302734
1765548939618866200,256.9128662109375,-6.660669326782227,14.611812591552734,-5.827486991882324
1765548939628845300,256.92284521484373,-6.694188117980957,14.269442558288574,-5.87776517868042
1765548939638855200,256.9328552246094,-6.636727333068848,14.087482452392578,-6.074089527130127
1765548939648834300,256.9428342285156,-6.742072105407715,14.312538146972656,-6.114790916442871
1765548939668884500,256.9628845214844,-6.890512466430664,14.982913970947266,-6.248866558074951
1765548939678924800,256.9729248046875,-6.964732646942139,15.150507926940918,-6.18182897567749
1765548939688934400,256.98293432617186,-6.964732646942139,15.150507926940918,-6.18182897567749
1765548939698944300,256.9929443359375,-7.062894821166992,15.083470344543457,-5.963956356048584
1765548939708923400,257.00292333984373,-6.89530086517334,15.026009559631348,-5.8203043937683105
1765548939718902800,257.0129028320313,-6.552929878234863,14.539986610412598,-5.758055210113525
1765548939728851500,257.0228515625,-6.256049156188965,14.044386863708496,-5.875370979309082
1765548939748932000,257.0429321289063,-5.580883979797363,12.306197166442871,-5.738901615142822
1765548939758941700,257.0529416503906,-5.078101634979248,11.592724800109863,-5.535394191741943
1765548939778961400,257.0729614257813,-4.778826713562012,10.450690269470215,-4.934449672698975
1765548939788940500,257.0829404296875,-4.639962673187256,10.223240852355957,-4.726154327392578
1765548939798950400,257.09295043945315,-4.5394062995910645,10.089165687561035,-4.548983097076416
1765548939808899000,257.1028991699219,-4.211400985717773,9.763554573059082,-4.170699596405029
1765548939818909000,257.1129089355469,-3.576937437057495,9.289502143859863,-3.892971992492676
1765548939828949200,257.12294921875,-3.337517261505127,9.263166427612305,-3.4572272300720215
1765548939838989300,257.1329892578125,-2.8371291160583496,9.155426979064941,-2.935291290283203
1765548939848999200,257.14299926757815,-2.3965959548950195,8.796297073364258,-2.4133553504943848
1765548939859009000,257.15300903320315,-2.1045033931732178,8.190564155578613,-2.1475989818573
1765548939889007600,257.18300756835936,-1.3455413579940796,7.007828235626221,-0.9840168952941895
1765548939899017500,257.193017578125,-0.7876923680305481,6.423643112182617,-0.6847416758537292
1765548939909027300,257.20302734375,-0.22266076505184174,6.490680694580078,-0.11971008777618408
1765548939919006500,257.21300634765623,0.3734954595565796,6.469132900238037,0.33518823981285095
1765548939929016300,257.2230163574219,0.6703764796257019,6.277596950531006,0.9840168952941895
1765548939939026000,257.23302587890623,0.6344634294509888,6.5050458908081055,1.656787633895874
1765548939949005300,257.2430053710938,0.6991068720817566,6.313509941101074,2.477998733520508
1765548939959045600,257.2530456542969,0.8690952062606812,5.9088897705078125,3.021482467651367
1765548939969055200,257.26305517578123,1.0271124839782715,5.750872611999512,3.3710360527038574
1765548939989105400,257.28310546875,1.482010841369629,4.711789131164551,3.758896589279175
1765548939999084500,257.29308447265623,1.7573440074920654,4.216189384460449,3.866635799407959
1765548940009033500,257.30303344726565,1.745373010635376,4.2760443687438965,4.230554580688477
1765548940019012600,257.3130126953125,1.558625340461731,4.343081951141357,4.443638324737549
1765548940029022500,257.3230224609375,1.4939818382263184,4.517858505249023,4.802768707275391
1765548940039032000,257.33303198242186,1.6879122257232666,4.81473970413208,4.982333660125732
1765548940049042000,257.3430419921875,1.7142484188079834,4.991910457611084,4.8267107009887695
1765548940059051800,257.3530517578125,1.6160861253738403,5.355829238891602,4.774038314819336
1765548940069031000,257.3630310058594,1.5203180313110352,4.975151062011719,5.1116204261779785
1765548940089050400,257.38305029296873,1.9967641830444336,4.185064792633057,5.377377033233643
1765548940099060200,257.3930603027344,2.382230758666992,3.7421371936798096,5.365406036376953
1765548940109070000,257.4030700683594,2.671929121017456,3.6798880100250244,5.432443618774414
1765548940119079700,257.41307958984373,2.7772738933563232,3.6152446269989014,5.446808815002441
1765548940129059000,257.4230590820313,2.9089550971984863,3.536235809326172,5.669469833374023
1765548940139068700,257.4330686035156,3.1531636714935303,3.5051112174987793,6.210559368133545
1765548940149017600,257.443017578125,3.3470940589904785,3.1076738834381104,6.466738700866699
1765548940159057700,257.4530576171875,3.361459255218506,3.0142998695373535,6.660669326782227
1765548940169067500,257.46306762695315,3.246537446975708,2.760514497756958,6.92881965637207
1765548940179077400,257.47307739257815,3.201047658920288,2.5450363159179688,6.936002254486084
1765548940219116300,257.5131162109375,3.021482467651367,2.5115175247192383,7.168240070343018
1765548940229095700,257.523095703125,2.978386878967285,2.8347349166870117,7.161057472229004
1765548940239105300,257.53310522460936,3.19865345954895,2.738966703414917,7.050923824310303
1765548940249115100,257.543115234375,3.2776620388031006,3.0550012588500977,7.1490864753723145
1765548940259125000,257.553125,3.40216064453125,3.6367924213409424,7.0772600173950195
