time,seconds_elapsed,z,y,x
1765548681415124700,-1.290875244140625,9.714771270751953,-0.8854364156723022,-1.0047988891601562
1765548681465112600,-1.240887451171875,9.71876335144043,-0.8867918848991394,-0.9641770720481873
1765548681475122400,-1.230877685546875,9.7175931930542,-0.8913983106613159,-0.9716843366622925
1765548681485132000,-1.220867919921875,9.71628189086914,-0.8991271257400513,-0.977665901184082
1765548681495111400,-1.210888671875,9.716877937316895,-0.8845710158348083,-0.9849942922592163
1765548681505121000,-1.20087890625,9.719084739685059,-0.859546959400177,-0.985373854637146
1765548681515131000,-1.190869140625,9.7206449508667,-0.8424379229545593,-0.9847571849822998
1765548681555231000,-1.15076904296875,9.720036506652832,-0.8491398692131042,-0.9850106835365295
1765548681565240800,-1.14075927734375,9.720003128051758,-0.8493357300758362,-0.9851619005203247
1765548681575250400,-1.13074951171875,9.719441413879395,-0.8528273701667786,-0.9876927137374878
1765548681585260300,-1.12073974609375,9.718437194824219,-0.8579182624816895,-0.9931483864784241
1765548681595239400,-1.110760498046875,9.717608451843262,-0.862861156463623,-0.9969698190689087
1765548681605279700,-1.10072021484375,9.717865943908691,-0.8625421524047852,-0.9947314858436584
1765548681615259100,-1.090740966796875,9.718437194824219,-0.8578603863716125,-0.9931954145431519
1765548681625268700,-1.080731201171875,9.718835830688477,-0.8554559946060181,-0.9913657903671265
1765548681665277400,-1.04072265625,9.720675468444824,-0.8398178219795227,-0.9866923093795776
1765548681675256600,-1.030743408203125,9.72153377532959,-0.8323197364807129,-0.9845851063728333
1765548681685297000,-1.020703125,9.722198486328125,-0.8275211453437805,-0.982064962387085
1765548681695306800,-1.010693359375,9.722827911376953,-0.8234097957611084,-0.9792847037315369
1765548681705286000,-1.000714111328125,9.722718238830566,-0.8247058391571045,-0.9792827367782593
1765548681715265300,-0.990734619140625,9.722891807556152,-0.8213000297546387,-0.9804182052612305
1765548681735284700,-0.97071533203125,9.723858833312988,-0.8088257312774658,-0.9812036156654358
1765548681765283600,-0.94071630859375,9.725496292114258,-0.7946217060089111,-0.9765686392784119
1765548681775293200,-0.930706787109375,9.72574234008789,-0.7933949828147888,-0.975114643573761
1765548681785303000,-0.920697021484375,9.725950241088867,-0.7932680249214172,-0.9731441140174866
1765548681795313000,-0.91068701171875,9.72635555267334,-0.7892734408378601,-0.9723353981971741
1765548681805292000,-0.9007080078125,9.72680377960205,-0.7841269969940186,-0.9720180630683899
1765548681815271200,-0.890728759765625,9.727495193481445,-0.7759581804275513,-0.9716572761535645
1765548681825281000,-0.880718994140625,9.727630615234375,-0.7716410160064697,-0.9737305045127869
1765548681835260200,-0.87073974609375,9.727744102478027,-0.7692797183990479,-0.9744693040847778
1765548681865289500,-0.84071044921875,9.72822093963623,-0.7644296288490295,-0.9735245108604431
1765548681875268900,-0.830731201171875,9.728190422058105,-0.7675281167030334,-0.9713913202285767
1765548681885278500,-0.820721435546875,9.727981567382812,-0.7736296653747559,-0.9686407446861267
1765548681895257900,-0.8107421875,9.727805137634277,-0.7792438268661499,-0.9659034609794617
1765548681905237000,-0.800762939453125,9.727741241455078,-0.781475841999054,-0.9647462964057922
1765548681915246800,-0.790753173828125,9.727897644042969,-0.7856506109237671,-0.9597609639167786
1765548681925256700,-0.780743408203125,9.728124618530273,-0.786753237247467,-0.9565630555152893
1765548681935266300,-0.770733642578125,9.728196144104004,-0.7869980335235596,-0.9556295871734619
1765548681945276200,-0.760723876953125,9.728032112121582,-0.7886946201324463,-0.9559028744697571
1765548681975305500,-0.730694580078125,9.728059768676758,-0.7879942655563354,-0.9561986327171326
1765548681985315300,-0.7206845703125,9.728083610534668,-0.7890497446060181,-0.9550727605819702
1765548681995264000,-0.710736083984375,9.727779388427734,-0.7915026545524597,-0.956146776676178
1765548682005304300,-0.70069580078125,9.727474212646484,-0.7952598929405212,-0.9561325907707214
1765548682015314000,-0.69068603515625,9.727179527282715,-0.798478901386261,-0.9564577341079712
1765548682025293300,-0.680706787109375,9.727127075195312,-0.8004152774810791,-0.9553660750389099
1765548682035303000,-0.670697021484375,9.727055549621582,-0.80210280418396,-0.9546829462051392
1765548682045312800,-0.660687255859375,9.727099418640137,-0.8014213442802429,-0.9547996520996094
1765548682055322600,-0.650677490234375,9.727258682250977,-0.800365149974823,-0.9540655016899109
1765548682075342000,-0.630657958984375,9.72765064239502,-0.7946229577064514,-0.954868495464325
1765548682085352000,-0.62064794921875,9.727542877197266,-0.7960742712020874,-0.954755425453186
1765548682095331000,-0.6106689453125,9.727039337158203,-0.802001953125,-0.9549325704574585
1765548682105341000,-0.6006591796875,9.726499557495117,-0.8089055418968201,-0.9545948505401611
1765548682115350500,-0.5906494140625,9.726031303405762,-0.8140950798988342,-0.954959511756897
1765548682155481300,-0.5505185546875,9.72836971282959,-0.8188951015472412,-0.9266144633293152
1765548682165491000,-0.540509033203125,9.727526664733887,-0.8282806277275085,-0.9271286725997925
1765548682175500800,-0.530499267578125,9.726388931274414,-0.8407492637634277,-0.9278430938720703
1765548682195550700,-0.51044921875,9.7257080078125,-0.8480274677276611,-0.9283561110496521
1765548682205560600,-0.500439453125,9.725296974182129,-0.8529648184776306,-0.9281362295150757
1765548682215539700,-0.490460205078125,9.724902153015137,-0.8583275079727173,-0.9273242950439453
1765548682225580000,-0.480419921875,9.724609375,-0.8628937602043152,-0.9261571168899536
1765548682235559400,-0.470440673828125,9.724474906921387,-0.8658487796783447,-0.9248117208480835
1765548682245569000,-0.460430908203125,9.724860191345215,-0.8656398057937622,-0.9209475517272949
1765548682255579000,-0.450421142578125,9.725142478942871,-0.8655152320861816,-0.9180799126625061
1765548682265588700,-0.440411376953125,9.725419998168945,-0.8658746480941772,-0.9147951006889343
1765548682285608200,-0.420391845703125,9.725709915161133,-0.8693363070487976,-0.908406138420105
1765548682295618000,-0.4103818359375,9.725785255432129,-0.8727402687072754,-0.9043334722518921
1765548682305658000,-0.400341796875,9.725868225097656,-0.8747013211250305,-0.9015418291091919
1765548682315668000,-0.39033203125,9.725635528564453,-0.8823583722114563,-0.8965741991996765
1765548682325677800,-0.380322265625,9.725489616394043,-0.8852419853210449,-0.8953143954277039
1765548682335657000,-0.370343017578125,9.725423812866211,-0.8909244537353516,-0.8903744220733643
1765548682345666800,-0.360333251953125,9.724618911743164,-0.9050015211105347,-0.8849543929100037
1765548682365686300,-0.340313720703125,9.723379135131836,-0.9233654737472534,-0.8795885443687439
1765548682375665700,-0.330334228515625,9.72254467010498,-0.9314777255058289,-0.8802580237388611
1765548682405695000,-0.300304931640625,9.717211723327637,-0.9817536473274231,-0.8845005631446838
1765548682415704600,-0.29029541015625,9.716143608093262,-0.9879902005195618,-0.8892746567726135
1765548682425714400,-0.28028564453125,9.714414596557617,-1.0126978158950806,-0.8803351521492004
1765548682435724000,-0.27027587890625,9.712048530578613,-1.0446269512176514,-0.869052529335022
1765548682445703400,-0.260296630859375,9.709247589111328,-1.071561574935913,-0.8675538897514343
1765548682455682600,-0.2503173828125,9.708805084228516,-1.0848748683929443,-0.8558902144432068
1765548682465692400,-0.2403076171875,9.710038185119629,-1.0826454162597656,-0.8446457386016846
1765548682475702300,-0.230297607421875,9.710047721862793,-1.0799466371536255,-0.847986102104187
1765548682505731600,-0.200268310546875,9.709345817565918,-1.1159608364105225,-0.8084698915481567
1765548682515710700,-0.190289306640625,9.70881175994873,-1.1211837530136108,-0.8076512217521667
1765548682525751000,-0.1802490234375,9.706366539001465,-1.1453089714050293,-0.8031892776489258
1765548682535761000,-0.170239013671875,9.70500659942627,-1.1494921445846558,-0.8135747909545898
1765548682545770500,-0.1602294921875,9.70351791381836,-1.1538162231445312,-0.82513028383255
1765548682555780400,-0.1502197265625,9.701421737670898,-1.1668893098831177,-0.8313624262809753
1765548682565790000,-0.1402099609375,9.701224327087402,-1.1628233194351196,-0.8393270373344421
1765548682575799800,-0.1302001953125,9.69890308380127,-1.179558515548706,-0.8427993059158325
1765548682585809700,-0.1201904296875,9.697006225585938,-1.1912118196487427,-0.8482169508934021
1765548682625787600,-0.08021240234375,9.667389869689941,-1.4273312091827393,-0.8213946223258972
1765548682635766800,-0.070233154296875,9.653596878051758,-1.5206924676895142,-0.8160629868507385
1765548682645776600,-0.060223388671875,9.646903038024902,-1.5636333227157593,-0.8140640258789062
1765548682655786500,-0.050213623046875,9.635903358459473,-1.6334277391433716,-0.8072605729103088
1765548682675806000,-0.030194091796875,9.600167274475098,-1.8458778858184814,-0.7745380401611328
1765548682685815800,-0.02018408203125,9.589954376220703,-1.9036664962768555,-0.7610626220703125
1765548682715784000,0.009783935546875,9.513982772827148,-2.2724075317382812,-0.700494647026062
1765548682725763300,0.019763427734375,9.491246223449707,-2.3698813915252686,-0.6857776641845703
1765548682735742500,0.029742431640625,9.470088005065918,-2.457388162612915,-0.6701268553733826
1765548682745752300,0.03975244140625,9.450191497802734,-2.5340023040771484,-0.6656541228294373
1765548682755762000,0.049761962890625,9.4443359375,-2.554842948913574,-0.6690914630889893
1765548682765771800,0.059771728515625,9.416519165039062,-2.6507515907287598,-0.687800943851471
1765548682775751000,0.0697509765625,9.399528503417969,-2.706022024154663,-0.7047649025917053
1765548682785791200,0.079791259765625,9.390759468078613,-2.7319979667663574,-0.7212561964988708
1765548682795770600,0.0897705078125,9.352975845336914,-2.8598783016204834,-0.7164708971977234
1765548682845849900,0.139849853515625,9.178982734680176,-3.396089553833008,-0.6190676093101501
1765548682855859700,0.149859619140625,9.103472709655762,-3.5956783294677734,-0.6068524718284607
1765548682865869300,0.159869384765625,9.05058479309082,-3.728778839111328,-0.5945644378662109
1765548682875848700,0.1698486328125,8.995983123779297,-3.8589978218078613,-0.5922918915748596
1765548682885827800,0.179827880859375,8.940247535705566,-3.987602949142456,-0.5842816829681396
1765548682895807200,0.18980712890625,8.908478736877441,-4.06118631362915,-0.5622843503952026
1765548682905816800,0.19981689453125,8.858841896057129,-4.1736955642700195,-0.5211392045021057
1765548682925805800,0.219805908203125,8.7544584274292,-4.394397258758545,-0.46810677647590637
1765548682935785200,0.22978515625,8.730347633361816,-4.443093299865723,-0.45863524079322815
1765548682945795000,0.239795166015625,8.664042472839355,-4.574283599853516,-0.4250727891921997
1765548682955774200,0.249774169921875,8.643536567687988,-4.614468097686768,-0.4078468978404999
1765548682965814500,0.259814453125,8.602158546447754,-4.69333553314209,-0.3819063603878021
1765548682975793700,0.269793701171875,8.553990364074707,-4.782337188720703,-0.35901349782943726
1765548682985803500,0.279803466796875,8.465923309326172,-4.938257694244385,-0.33488133549690247
1765548682995782700,0.28978271484375,8.398157119750977,-5.053675174713135,-0.3189259171485901
1765548683005792500,0.29979248046875,8.361112594604492,-5.115072727203369,-0.3133876621723175
1765548683015802400,0.30980224609375,8.284392356872559,-5.239246368408203,-0.29921185970306396
1765548683035791400,0.329791259765625,8.119988441467285,-5.492231845855713,-0.2675260603427887
1765548683045801000,0.339801025390625,7.996612548828125,-5.671703815460205,-0.23738449811935425
1765548683055780400,0.3497802734375,7.95697021484375,-5.727530002593994,-0.22891229391098022
1765548683065790000,0.3597900390625,7.8246307373046875,-5.908259868621826,-0.19498707354068756
1765548683075799800,0.3697998046875,7.722208023071289,-6.041773796081543,-0.1867121458053589
1765548683085809700,0.3798095703125,7.664275646209717,-6.115115165710449,-0.18611037731170654
1765548683095788800,0.389788818359375,7.491614818572998,-6.326295852661133,-0.15518274903297424
1765548683105829000,0.3998291015625,7.423121929168701,-6.40654182434082,-0.15451179444789886
1765548683115808300,0.409808349609375,7.292081356048584,-6.555647373199463,-0.13938400149345398
1765548683135858400,0.4298583984375,7.069656848907471,-6.795973300933838,-0.07138261944055557
1765548683155847400,0.449847412109375,6.872940540313721,-6.9952168464660645,0.00010667524475138634
1765548683165887700,0.4598876953125,6.7929816246032715,-7.072815418243408,0.032888125628232956
1765548683175867000,0.469866943359375,6.724374771118164,-7.137853622436523,0.06502163410186768
1765548683185907200,0.4799072265625,6.637792587280273,-7.217931270599365,0.10756006836891174
1765548683195917000,0.4899169921875,6.611588954925537,-7.241687297821045,0.12345307320356369
1765548683205927000,0.499927001953125,6.564855098724365,-7.283518314361572,0.15308116376399994
1765548683215906000,0.509906005859375,6.5211501121521,-7.322108745574951,0.17808321118354797
1765548683225916000,0.519916015625,6.46434211730957,-7.371459484100342,0.21035686135292053
1765548683235925500,0.529925537109375,6.452110767364502,-7.3816962242126465,0.22632059454917908
1765548683255884000,0.549884033203125,6.392320156097412,-7.432464122772217,0.259060263633728
1765548683265894000,0.559893798828125,6.369715690612793,-7.451413631439209,0.271201491355896
1765548683275873000,0.569873046875,6.354449272155762,-7.464040279388428,0.28191840648651123
1765548683285913300,0.579913330078125,6.334695339202881,-7.480586051940918,0.2878267765045166
1765548683295892500,0.589892578125,6.289909839630127,-7.518198013305664,0.2900375723838806
1765548683305902300,0.59990234375,6.275052070617676,-7.530642509460449,0.28902533650398254
1765548683315912200,0.609912109375,6.2453436851501465,-7.555263042449951,0.28996217250823975
1765548683325921800,0.619921875,6.231949329376221,-7.566282749176025,0.2907821238040924
1765548683335901200,0.629901123046875,6.196057319641113,-7.595380783081055,0.2990788221359253
1765548683365930500,0.659930419921875,6.101133346557617,-7.670466899871826,0.3323838412761688
1765548683385950000,0.679949951171875,6.007281303405762,-7.742970943450928,0.35969796776771545
1765548683425958400,0.71995849609375,5.607762813568115,-8.031113624572754,0.47389382123947144
1765548683445947600,0.73994775390625,5.2728424072265625,-8.24691390991211,0.5966079235076904
1765548683455987700,0.74998779296875,5.118766784667969,-8.339503288269043,0.6490781307220459
1765548683486078200,0.780078125,4.687272548675537,-8.578035354614258,0.785597562789917
1765548683526025700,0.820025634765625,3.927367687225342,-8.927727699279785,1.0207127332687378
1765548683596033000,0.890032958984375,2.1922621726989746,-9.454825401306152,1.4037978649139404
1765548683626092800,0.9200927734375,1.4458942413330078,-9.58761978149414,1.4687837362289429
1765548683646112300,0.9401123046875,1.1452422142028809,-9.622406959533691,1.5060226917266846
1765548683746057500,1.040057373046875,-0.13514000177383423,-9.66807746887207,1.6372010707855225
1765548683756067000,1.050067138671875,-0.19001856446266174,-9.665461540222168,1.647168517112732
1765548683766077000,1.060076904296875,-0.24948841333389282,-9.661284446716309,1.6636607646942139
1765548683786127000,1.080127197265625,-0.28003743290901184,-9.656340599060059,1.6873297691345215
1765548683796106200,1.090106201171875,-0.27108123898506165,-9.654350280761719,1.7001299858093262
1765548683816125700,1.110125732421875,-0.2323760986328125,-9.648494720458984,1.738669991493225
1765548683826105000,1.12010498046875,-0.2125789225101471,-9.644709587097168,1.7620476484298706
1765548683836114700,1.13011474609375,-0.19775865972042084,-9.640299797058105,1.7877153158187866
1765548683846124500,1.14012451171875,-0.1889445185661316,-9.63524341583252,1.81570565700531
1765548683856134400,1.150134521484375,-0.1927979737520218,-9.6318998336792,1.8329535722732544
1765548683866174500,1.160174560546875,-0.19512905180454254,-9.625598907470703,1.8655149936676025
1765548683876153900,1.17015380859375,-0.1927390843629837,-9.61620044708252,1.9136159420013428
1765548683896142800,1.190142822265625,-0.24641981720924377,-9.599501609802246,1.9897911548614502
1765548705273378800,22.56737890625,9.635004997253418,1.2247390747070312,1.3553844690322876
1765548705283219200,22.57721923828125,9.632218360900879,1.2379894256591797,1.3631341457366943
1765548705313048300,22.60704833984375,9.630389213562012,1.3196642398834229,1.2978723049163818
1765548705323058200,22.61705810546875,9.630011558532715,1.339424967765808,1.2803101539611816
1765548705333006800,22.6270068359375,9.628291130065918,1.4015902280807495,1.2255356311798096
1765548705343047200,22.637047119140625,9.627631187438965,1.4225705862045288,1.2063947916030884
1765548705352995800,22.646995849609375,9.626788139343262,1.474469780921936,1.1494649648666382
1765548705363005700,22.657005615234375,9.626678466796875,1.50377357006073,1.1118119955062866
1765548705382994700,22.67699462890625,9.628377914428711,1.5475372076034546,1.0343348979949951
1765548705392973800,22.686973876953125,9.62920093536377,1.556339144706726,1.0132559537887573
1765548705452971500,22.746971435546875,9.644617080688477,1.6835441589355469,0.5634094476699829
1765548705462981400,22.7569814453125,9.642533302307129,1.7226462364196777,0.4737392067909241
1765548705552977700,22.846977783203126,9.611227035522461,1.9467519521713257,-0.06976838409900665
1765548705563018000,22.85701806640625,9.605452537536621,1.9735112190246582,-0.10451099276542664
1765548705572936200,22.866936279296876,9.598984718322754,2.0029983520507812,-0.1336997002363205
1765548705592986000,22.886986083984375,9.583483695983887,2.0723512172698975,-0.1805025041103363
1765548705602965500,22.896965576171876,9.574424743652344,2.111903667449951,-0.20161893963813782
1765548705612944600,22.906944580078125,9.564661979675293,2.1536953449249268,-0.22186149656772614
1765548705622954500,22.91695458984375,9.554351806640625,2.1962730884552,-0.24723777174949646
1765548705632964000,22.926964111328125,9.538406372070312,2.2606263160705566,-0.28062769770622253
1765548705642943500,22.936943603515626,9.52647590637207,2.306013345718384,-0.31454479694366455
1765548705652953000,22.946953125,9.519819259643555,2.328620433807373,-0.3477914333343506
1765548705662963000,22.956962890625,9.50684928894043,2.3779983520507812,-0.3678671717643738
1765548705672942000,22.966942138671875,9.494401931762695,2.424856185913086,-0.38313210010528564
1765548705682921500,22.97692138671875,9.482967376708984,2.467836380004883,-0.39179226756095886
1765548705692931300,22.986931396484376,9.469405174255371,2.5191292762756348,-0.3933652639389038
1765548705712920300,23.00692041015625,9.460088729858398,2.5540261268615723,-0.3925234377384186
1765548705752959200,23.046959228515625,9.43942928314209,2.6314854621887207,-0.3779492676258087
1765548705762999600,23.05699951171875,9.437068939208984,2.6404621601104736,-0.37428033351898193
1765548705772978700,23.066978759765625,9.437705039978027,2.6387739181518555,-0.3701246678829193
1765548705782988500,23.076988525390625,9.442147254943848,2.6234564781188965,-0.36568209528923035
1765548705802977500,23.0969775390625,9.474871635437012,2.5054774284362793,-0.3460819125175476
1765548705812987400,23.1069873046875,9.484284400939941,2.470290422439575,-0.34117329120635986
1765548705822966500,23.116966552734375,9.521337509155273,2.3272743225097656,-0.31356385350227356
1765548705832946000,23.12694580078125,9.551177978515625,2.205305337905884,-0.28637003898620605
1765548705842955500,23.13695556640625,9.567011833190918,2.1375555992126465,-0.2711851894855499
1765548705852935000,23.146934814453125,9.605500221252441,1.9629026651382446,-0.2275589555501938
1765548705862944500,23.156944580078125,9.674772262573242,1.5972788333892822,-0.133633092045784
1765548705872924000,23.166923828125,9.721770286560059,1.2862417697906494,-0.056062087416648865
1765548705882964200,23.176964111328125,9.761173248291016,0.9429519176483154,0.026965320110321045
1765548705892973800,23.186973876953125,9.776046752929688,0.7712122201919556,0.06724897027015686
1765548705902953200,23.196953125,9.803123474121094,0.1626768410205841,0.20664212107658386
1765548705932921300,23.22692138671875,9.714905738830566,-1.241055965423584,0.5007819533348083
1765548705942931200,23.23693115234375,9.634442329406738,-1.731067419052124,0.5927136540412903
1765548705952941000,23.246941162109376,9.584662437438965,-1.9750415086746216,0.6354814767837524
1765548705962950700,23.25695068359375,9.468375205993652,-2.451685905456543,0.7137938141822815
1765548705972930000,23.266929931640625,9.256057739257812,-3.13857102394104,0.8032159209251404
1765548705982939600,23.276939697265625,9.088891983032227,-3.5857675075531006,0.8394690155982971
1765548705992919000,23.2869189453125,8.998161315917969,-3.8053879737854004,0.8500056266784668
1765548706002928600,23.2969287109375,8.691067695617676,-4.464448928833008,0.8393012881278992
1765548706092955600,23.38695556640625,6.175395965576172,-7.525371551513672,-1.1847625970840454
1765548706102965500,23.396965576171876,5.921454906463623,-7.660473346710205,-1.5568927526474
1765548706122954500,23.41695458984375,5.4409589767456055,-7.811718463897705,-2.3544445037841797
1765548706132964000,23.426964111328125,5.203581809997559,-7.8357157707214355,-2.7739322185516357
1765548706142974000,23.436973876953125,4.956974983215332,-7.8323140144348145,-3.2021355628967285
1765548706152983800,23.44698388671875,4.829330921173096,-7.820833683013916,-3.417969226837158
1765548706162963000,23.456962890625,4.561651706695557,-7.782403469085693,-3.8465497493743896
1765548706172911600,23.46691162109375,4.164815902709961,-7.6743574142456055,-4.464184761047363
1765548706182921500,23.47692138671875,4.034966945648193,-7.6230645179748535,-4.666725158691406
1765548706192870100,23.4868701171875,3.801759719848633,-7.502623081207275,-5.0425848960876465
1765548706202941000,23.49694091796875,3.474655866622925,-7.310898780822754,-5.536055564880371
1765548706232939800,23.526939697265625,2.946413516998291,-7.020854949951172,-6.180343151092529
1765548706242949600,23.53694970703125,2.744034767150879,-6.9242658615112305,-6.379279136657715
1765548706252898300,23.546898193359375,2.5428783893585205,-6.842955112457275,-6.5481390953063965
1765548706262877400,23.55687744140625,2.3413209915161133,-6.776882648468018,-6.690476417541504
1765548706272826000,23.566826171875,2.144512414932251,-6.7199625968933105,-6.812751293182373
1765548706282866400,23.576866455078125,1.8579541444778442,-6.640162467956543,-6.9732818603515625
1765548706292876300,23.586876220703125,1.6694352626800537,-6.5884480476379395,-7.0693535804748535
1765548706302886100,23.59688623046875,1.4773319959640503,-6.536734104156494,-7.159539222717285
1765548706342925000,23.636925048828125,0.7622538805007935,-6.341536521911621,-7.441389083862305
1765548706362944500,23.656944580078125,0.21563853323459625,-6.2744598388671875,-7.533594131469727
1765548706372954400,23.666954345703125,0.12028912454843521,-6.267939567565918,-7.541143417358398
1765548706382964200,23.676964111328125,-0.11742380261421204,-6.238200664520264,-7.565808296203613
1765548706402983700,23.696983642578125,-0.3017643392086029,-6.193458557128906,-7.597396373748779
1765548706412902000,23.70690185546875,-0.4606504440307617,-6.15740966796875,-7.6186957359313965
1765548706442931200,23.73693115234375,-0.8176217079162598,-6.072856426239014,-7.656520366668701
1765548706482939600,23.776939697265625,-1.4659096002578735,-5.759823322296143,-7.800378799438477
1765548706523009300,23.81700927734375,-1.8838858604431152,-5.430931091308594,-7.94520902633667
1765548706542998300,23.836998291015625,-2.115330696105957,-5.244959354400635,-8.011629104614258
1765548706552977700,23.846977783203126,-2.2593648433685303,-5.120930194854736,-8.052438735961914
1765548706562987300,23.8569873046875,-2.3507418632507324,-5.050225734710693,-8.070915222167969
1765548706572997000,23.8669970703125,-2.4301116466522217,-4.991039752960205,-8.084212303161621
1765548706583007000,23.877007080078126,-2.4664995670318604,-4.962451457977295,-8.09078598022461
1765548706602996000,23.896995849609375,-2.566486120223999,-4.8995442390441895,-8.09802532196045
1765548706613005600,23.907005615234375,-2.594496250152588,-4.880197525024414,-8.100781440734863
1765548706623015400,23.917015380859375,-2.6477999687194824,-4.868038654327393,-8.090843200683594
1765548706663054600,23.9570546875,-2.968240261077881,-4.765792369842529,-8.040348052978516
1765548706693114400,23.9871142578125,-3.001558542251587,-4.7406134605407715,-8.042861938476562
1765548706713103400,24.007103271484375,-2.9666216373443604,-4.734625816345215,-8.059332847595215
1765548706723113200,24.01711328125,-2.9375457763671875,-4.738943576812744,-8.067441940307617
1765548706753111800,24.04711181640625,-2.8136708736419678,-4.750130653381348,-8.10493278503418
1765548706773100800,24.067100830078125,-2.6622345447540283,-4.707983016967773,-8.180329322814941
1765548706783110700,24.077110595703125,-2.6099066734313965,-4.688011169433594,-8.208612442016602
1765548706793089800,24.08708984375,-2.5825767517089844,-4.680019855499268,-8.221806526184082
1765548706803099600,24.097099609375,-2.500274419784546,-4.639575481414795,-8.270027160644531
1765548706813079000,24.1070791015625,-2.4580607414245605,-4.6118550300598145,-8.298142433166504
1765548706823119000,24.117119140625,-2.439915180206299,-4.598677635192871,-8.310798645019531
1765548706833068000,24.127068115234376,-2.3664379119873047,-4.57402229309082,-8.34557819366455
1765548706853057000,24.14705712890625,-2.205875873565674,-4.58469820022583,-8.38361930847168
1765548706873076500,24.167076416015625,-2.0651228427886963,-4.61593770980835,-8.402308464050293
1765548706883086300,24.17708642578125,-1.9114091396331787,-4.654059886932373,-8.417640686035156
1765548706893065500,24.1870654296875,-1.838079810142517,-4.665434837341309,-8.427668571472168
1765548706903105800,24.197105712890625,-1.641067385673523,-4.664694786071777,-8.468643188476562
1765548706913085000,24.2070849609375,-1.5235662460327148,-4.62567138671875,-8.511892318725586
1765548706923064300,24.217064208984375,-1.3579944372177124,-4.59063196182251,-8.558759689331055
1765548706933043500,24.22704345703125,-1.251536250114441,-4.542652606964111,-8.600484848022461
1765548706943053300,24.23705322265625,-1.1905802488327026,-4.49928092956543,-8.631881713867188
1765548707003142400,24.297142333984375,-1.35060453414917,-3.8742330074310303,-8.907106399536133
1765548707033141200,24.327141357421876,-1.5681685209274292,-3.5485880374908447,-9.006596565246582
1765548707043150800,24.33715087890625,-1.6049879789352417,-3.4472501277923584,-9.039407730102539
1765548707083220500,24.377220458984375,-1.529789686203003,-3.129769802093506,-9.16704273223877
1765548707093169200,24.387169189453125,-1.492079257965088,-3.0763022899627686,-9.191324234008789
1765548707103179000,24.397178955078125,-1.4615960121154785,-3.036695957183838,-9.20937728881836
1765548707113158100,24.407158203125,-1.4410370588302612,-3.0160937309265137,-9.219381332397461
1765548715217290500,32.51129052734375,-2.1344056129455566,9.557887077331543,-0.5113683938980103
1765548715236879400,32.53087939453125,-2.2411088943481445,9.529472351074219,-0.5805342793464661
1765548715326898000,32.62089794921875,-3.0960750579833984,9.137624740600586,-1.757422924041748
1765548715336877000,32.630876953125,-3.2336294651031494,9.051278114318848,-1.9463807344436646
1765548715346856400,32.6408564453125,-3.3230478763580322,8.991778373718262,-2.0677716732025146
1765548715356866000,32.65086596679687,-3.411961317062378,8.93093490600586,-2.1834216117858887
1765548715366845400,32.660845458984376,-3.5029685497283936,8.867774963378906,-2.2939541339874268
1765548715376855000,32.67085498046875,-3.550135374069214,8.834856033325195,-2.34781551361084
1765548715386865000,32.680864990234376,-3.6895251274108887,8.733388900756836,-2.507131338119507
1765548715396813600,32.6908134765625,-3.780129909515381,8.663712501525879,-2.6117336750030518
1765548715406884400,32.70088427734375,-3.8685314655303955,8.591896057128906,-2.7173943519592285
1765548715486871000,32.78087109375,-4.459191799163818,7.976465225219727,-3.5583722591400146
1765548715526849000,32.82084912109375,-4.624124526977539,7.734379768371582,-3.8687541484832764
1765548715536889300,32.830889404296876,-4.660856246948242,7.6697516441345215,-3.9524357318878174
1765548715546899200,32.840899169921876,-4.703123569488525,7.601211071014404,-4.033933162689209
1765548715556847900,32.850847900390626,-4.773971080780029,7.493829250335693,-4.149951457977295
1765548715566888200,32.86088818359375,-4.797609329223633,7.4576215744018555,-4.187744140625
1765548715576867300,32.870867431640626,-4.85535192489624,7.3568196296691895,-4.298038005828857
1765548715586907600,32.88090771484375,-4.871623992919922,7.324934005737305,-4.3339409828186035
1765548715596856300,32.89085620117187,-4.904481410980225,7.242641925811768,-4.434025764465332
1765548715606896600,32.900896728515626,-4.921868324279785,7.192180633544922,-4.496460914611816
1765548715616906500,32.910906494140626,-4.930341720581055,7.16758394241333,-4.526352405548096
1765548715646935800,32.940935791015626,-4.989063262939453,7.016199111938477,-4.696021556854248
1765548715656915000,32.9509150390625,-5.014724254608154,6.963836193084717,-4.746358394622803
1765548715666894300,32.960894287109376,-5.055655002593994,6.886605739593506,-4.815127372741699
1765548715676873500,32.97087353515625,-5.081481456756592,6.838054180145264,-4.856952667236328
1765548715686913800,32.980913818359376,-5.103535175323486,6.79341459274292,-4.8963117599487305
1765548715696923600,32.990923583984376,-5.1131978034973145,6.772521018981934,-4.915135860443115
1765548715706902800,33.00090283203125,-5.126451015472412,6.73829984664917,-4.9482526779174805
1765548715716912600,33.01091259765625,-5.1355390548706055,6.711849689483643,-4.974710941314697
1765548715726922200,33.02092211914062,-5.152970790863037,6.6811137199401855,-4.998002529144287
1765548715756890600,33.050890625,-5.179415702819824,6.659989356994629,-4.998857021331787
1765548715776940500,33.0709404296875,-5.192773342132568,6.680936336517334,-4.956872463226318
1765548715796929500,33.09092944335937,-5.213743686676025,6.694814205169678,-4.915969371795654
1765548715806939400,33.100939453125,-5.240079879760742,6.699600696563721,-4.881327152252197
1765548715816949200,33.11094921875,-5.2870869636535645,6.710774898529053,-4.814835548400879
1765548715826958800,33.12095874023437,-5.316134452819824,6.725893497467041,-4.761457920074463
1765548715836938200,33.130938232421876,-5.329526901245117,6.735555648803711,-4.7327423095703125
1765548715846978600,33.140978515625,-5.367499351501465,6.775032043457031,-4.632422924041748
1765548715866967600,33.160967529296876,-5.410650253295898,6.819546699523926,-4.515426158905029
1765548715886987000,33.180987060546876,-5.4940690994262695,6.90875768661499,-4.272548675537109
1765548715896966100,33.19096606445312,-5.51127815246582,6.929287910461426,-4.21677303314209
1765548715907006500,33.20100634765625,-5.56317663192749,6.999897480010986,-4.027768135070801
1765548715927026200,33.221026123046876,-5.616480827331543,7.075918197631836,-3.815349578857422
1765548715937005300,33.23100537109375,-5.648270606994629,7.131813049316406,-3.6612446308135986
1765548715957024800,33.25102465820312,-5.700297832489014,7.252993583679199,-3.327320098876953
1765548715967034600,33.26103466796875,-5.745160102844238,7.337104797363281,-3.0545685291290283
1765548715977013800,33.271013671875,-5.760780334472656,7.363101482391357,-2.961179256439209
1765548715987054000,33.28105419921875,-5.808593273162842,7.440456867218018,-2.658989429473877
1765548715997033500,33.291033447265626,-5.835336685180664,7.491845607757568,-2.447751522064209
1765548716007073800,33.30107373046875,-5.858282089233398,7.542360782623291,-2.2279534339904785
1765548716017083400,33.31108349609375,-5.879554271697998,7.587265491485596,-2.0086498260498047
1765548716027093200,33.32109326171875,-5.898996353149414,7.625538349151611,-1.7953821420669556
1765548716037072400,33.331072265625,-5.919436931610107,7.658140659332275,-1.5759356021881104
1765548716047082200,33.341082275390626,-5.928695201873779,7.671990871429443,-1.4702216386795044
1765548716067071200,33.3610712890625,-5.99130916595459,7.721730709075928,-0.8059057593345642
1765548716077081000,33.3710810546875,-6.005024433135986,7.724537372589111,-0.6645017266273499
1765548716087151900,33.38115185546875,-6.040533542633057,7.722980976104736,-0.1947498321533203
1765548716097161500,33.39116137695312,-6.055285453796387,7.7128214836120605,0.12786446511745453
1765548716107171300,33.40117138671875,-6.0596208572387695,7.7049174308776855,0.29266104102134705
1765548716117181200,33.41118115234375,-6.0580339431762695,7.685679912567139,0.633222222328186
1765548716127190800,33.42119067382812,-6.045039176940918,7.65891695022583,0.9843272566795349
1765548716137200600,33.43120068359375,-6.021328926086426,7.623084545135498,1.3425997495651245
1765548716147210500,33.44121044921875,-5.986673831939697,7.57839822769165,1.7023627758026123
1765548716167230000,33.46122998046875,-5.841811656951904,7.436080455780029,2.5977678298950195
1765548716177239800,33.47123974609375,-5.803565979003906,7.402188301086426,2.7742857933044434
1765548716187249400,33.48124951171875,-5.719812393188477,7.328680515289307,3.1216301918029785
1765548716197198000,33.49119799804687,-5.629697799682617,7.245059013366699,3.4620888233184814
1765548716207238400,33.50123828125,-5.477021217346191,7.103017807006836,3.9648213386535645
1765548716217248300,33.511248291015626,-5.359202861785889,7.001737594604492,4.292437553405762
1765548716227258000,33.521258056640626,-5.293754577636719,6.949887275695801,4.454847812652588
1765548716237267700,33.531267822265626,-5.159090042114258,6.8408427238464355,4.770434856414795
1765548716257256700,33.55125659179687,-4.8011884689331055,6.531269550323486,5.519195079803467
1765548716287286000,33.5812861328125,-4.409094333648682,6.173168659210205,6.214681148529053
1765548716297265400,33.591265380859376,-4.158359050750732,5.952176570892334,6.591665267944336
1765548716307305700,33.6013056640625,-4.069796085357666,5.87324333190918,6.716558933258057
1765548716317315300,33.6113154296875,-3.8903796672821045,5.720371723175049,6.95073127746582
1765548716327294700,33.621294677734376,-3.7043561935424805,5.568702697753906,7.172006607055664
1765548716337334800,33.63133471679687,-3.5127391815185547,5.420405387878418,7.379044055938721
1765548716347344600,33.6413447265625,-3.318124532699585,5.27459716796875,7.5722575187683105
1765548716357354500,33.6513544921875,-3.118326187133789,5.127399444580078,7.756044864654541
1765548716367364000,33.66136401367187,-2.914013624191284,4.980756759643555,7.929120063781738
1765548716397424000,33.691424072265626,-2.2476859092712402,4.547889232635498,8.392556190490723
1765548716407433700,33.701433837890626,-2.0105478763580322,4.4044318199157715,8.528135299682617
1765548716417443600,33.711443603515626,-1.7760306596755981,4.2619547843933105,8.651695251464844
1765548716427453200,33.721453125,-1.5416338443756104,4.115941524505615,8.766571044921875
1765548716437432600,33.7314326171875,-1.2027508020401,3.9043400287628174,8.915151596069336
1765548716467492400,33.761492431640626,-0.5086813569068909,3.5074620246887207,9.143815994262695
1765548716477502200,33.771502197265626,-0.3855874836444855,3.442650556564331,9.17441463470459
1765548716527581400,33.82158154296875,0.7498749494552612,2.964055299758911,9.317856788635254
1765548716537591300,33.83159130859375,1.0641758441925049,2.871541976928711,9.31623363494873
1765548716547601000,33.84160083007812,1.1712042093276978,2.842754364013672,9.31221866607666
1765548716557610800,33.85161083984375,1.3757271766662598,2.7898566722869873,9.300240516662598
1765548716567681500,33.861681640625,1.6723265647888184,2.7125463485717773,9.274471282958984
1765548716577691400,33.87169140625,1.861047625541687,2.6618735790252686,9.253180503845215
1765548716587731700,33.881731689453126,1.9544618129730225,2.6361708641052246,9.241270065307617
1765548716597741300,33.8917412109375,2.124229669570923,2.5933778285980225,9.215879440307617
1765548716607751200,33.901751220703126,2.351107120513916,2.54901123046875,9.17307186126709
1765548716617761000,33.911760986328126,2.4922821521759033,2.5231993198394775,9.142887115478516
1765548716627770600,33.9217705078125,2.5649502277374268,2.507956027984619,9.126970291137695
1765548716637750000,33.93175,2.7491304874420166,2.473531484603882,9.082640647888184
1765548716647790300,33.941790283203126,2.860199451446533,2.4534754753112793,9.05373477935791
1765548716657800000,33.951800048828126,2.956144332885742,2.4391562938690186,9.026744842529297
1765548716667809800,33.961809814453126,3.0446789264678955,2.4242289066314697,9.001301765441895
1765548716677789000,33.97178881835937,3.091825485229492,2.402841567993164,8.990961074829102
1765548716707757300,34.00175732421875,3.373678207397461,2.301499366760254,8.915817260742188
1765548716717767000,34.01176684570312,3.3934364318847656,2.3016369342803955,8.908281326293945
1765548716727807200,34.02180712890625,3.368398427963257,2.336914539337158,8.908597946166992
1765548716737817000,34.031817138671876,3.344029664993286,2.3606913089752197,8.911507606506348
1765548716747827000,34.041826904296876,3.3554134368896484,2.3513145446777344,8.909709930419922
1765548716757867000,34.05186694335937,3.3222079277038574,2.364410400390625,8.918682098388672
1765548716767876900,34.061876953125,3.239333391189575,2.399880886077881,8.939669609069824
1765548716777886700,34.07188671875,3.2447476387023926,2.3898093700408936,8.94040298461914
1765548716817895200,34.111895263671876,2.8730952739715576,2.623243570327759,9.001907348632812
1765548716877953800,34.171953857421876,2.0963001251220703,2.8734071254730225,9.138897895812988
1765548716897942800,34.19194287109375,1.6554337739944458,3.107205629348755,9.152878761291504
1765548716938043000,34.23204296875,1.0573650598526,3.6104414463043213,9.056331634521484
1765548716988061200,34.282061279296876,0.335506796836853,4.267995357513428,8.82281494140625
1765548716998071000,34.292071044921876,0.09235212206840515,4.515117645263672,8.704916954040527
1765548717008080600,34.30208056640625,0.014103928580880165,4.596852779388428,8.66251277923584
1765548717018090500,34.312090576171876,-0.1466992199420929,4.787805557250977,8.557207107543945
1765548717028100400,34.322100341796876,-0.3890811502933502,5.102313995361328,8.365729331970215
1765548717038079500,34.33207958984375,-0.5491162538528442,5.322030544281006,8.218568801879883
1765548717078118700,34.37211865234375,-1.1854554414749146,6.167477130889893,7.531755447387695
1765548717088128300,34.38212817382812,-1.3244366645812988,6.364270210266113,7.342500686645508
1765548717118157600,34.41215747070312,-1.690965175628662,6.948782920837402,6.710100173950195
1765548717128167400,34.42216748046875,-1.801680564880371,7.136138916015625,6.480731010437012
1765548717138177300,34.43217724609375,-1.9021698236465454,7.31608772277832,6.247159481048584
1765548717158196700,34.45219677734375,-2.0750205516815186,7.647447109222412,5.777649879455566
1765548717168175900,34.46217578125,-2.1583781242370605,7.796481609344482,5.5431671142578125
1765548717178185700,34.472185791015626,-2.247572660446167,7.935361862182617,5.30554723739624
1765548717188195600,34.482195556640626,-2.342228889465332,8.065376281738281,5.063010215759277
1765548717198174700,34.4921748046875,-2.4357962608337402,8.188281059265137,4.8155364990234375
1765548717208184600,34.5021845703125,-2.5237090587615967,8.3046875,4.56436824798584
1765548717218225000,34.512224853515626,-2.6027350425720215,8.414527893066406,4.311826229095459
1765548717238214000,34.5322138671875,-2.7323808670043945,8.613396644592285,3.80971097946167
1765548717248223500,34.54222338867187,-2.7610809803009033,8.659062385559082,3.683403253555298
1765548717288232200,34.582232177734376,-3.042661428451538,8.926896095275879,2.6875975131988525
1765548717308251600,34.602251708984376,-3.2034833431243896,9.01196002960205,2.1662604808807373
1765548717318261500,34.612261474609376,-3.3133437633514404,9.057289123535156,1.7769783735275269
1765548717328271000,34.62227099609375,-3.3492748737335205,9.069706916809082,1.641095519065857
1765548717338281000,34.632281005859376,-3.4721665382385254,9.085857391357422,1.2496663331985474
1765548717348260000,34.64226000976562,-3.568995475769043,9.081778526306152,0.976732611656189
1765548717368279800,34.66227978515625,-3.728710174560547,9.054269790649414,0.5360413789749146
1765548717378289400,34.67228930664062,-3.8846991062164307,9.004105567932129,0.0745069608092308
1765548717388329700,34.682329833984376,-3.937821626663208,8.980729103088379,-0.10228519141674042
1765548717398339600,34.692339599609376,-4.036749839782715,8.928788185119629,-0.38960108160972595
1765548717408318700,34.70231860351562,-4.181487083435059,8.835541725158691,-0.7866247296333313
1765548717418298000,34.712298095703126,-4.242783546447754,8.788935661315918,-0.9611355066299438
1765548717428307700,34.7223076171875,-4.4131269454956055,8.650103569030762,-1.367638349533081
1765548725148526300,42.4425263671875,0.8917205929756165,2.8740150928497314,9.333556175231934
1765548725158166500,42.45216650390625,0.9027847051620483,2.859144926071167,9.337058067321777
1765548725167676400,42.461676513671875,0.9163219332695007,2.8302292823791504,9.344547271728516
1765548725177386000,42.47138598632812,0.9871154427528381,2.7840497493743896,9.351205825805664
1765548725187095800,42.481095703125,1.2501672506332397,2.714609384536743,9.340147972106934
1765548725236744700,42.53074462890625,2.286911725997925,2.39302134513855,9.2311372756958
1765548725306843600,42.60084375,3.704470634460449,1.9264880418777466,8.873326301574707
1765548725316822800,42.61082275390625,3.8574321269989014,1.8680180311203003,8.820494651794434
1765548725326863000,42.62086303710937,3.931701421737671,1.8382021188735962,8.793926239013672
1765548725336842200,42.63084228515625,4.068575859069824,1.77597975730896,8.74431037902832
1765548725346852000,42.64085205078125,4.19507360458374,1.7095685005187988,8.697650909423828
1765548725356862000,42.65086206054688,4.310263633728027,1.6408976316452026,8.654448509216309
1765548725366871600,42.66087158203125,4.475379467010498,1.5360212326049805,8.589645385742188
1765548725436909600,42.73090966796875,4.8822503089904785,1.252514123916626,8.412205696105957
1765548725446949600,42.74094970703125,4.889862537384033,1.245574712753296,8.40881633758545
1765548725456959500,42.75095947265625,4.860183238983154,1.2379343509674072,8.427131652832031
1765548725466938600,42.76093872070312,4.827917098999023,1.2343661785125732,8.44618034362793
1765548725476918000,42.77091796875,4.8153605461120605,1.2313190698623657,8.453787803649902
1765548725486928000,42.78092797851563,4.766334056854248,1.2233072519302368,8.482686042785645
1765548725496937500,42.7909375,4.669279098510742,1.2125242948532104,8.538034439086914
1765548725506947300,42.800947265625,4.638115882873535,1.2092434167861938,8.555466651916504
1765548725526936300,42.82093627929687,4.445923328399658,1.228319525718689,8.654212951660156
1765548725536915500,42.83091552734375,4.410001754760742,1.2361907958984375,8.671454429626465
1765548725546894800,42.84089477539062,4.326162338256836,1.2700015306472778,8.708719253540039
1765548725556904400,42.85090454101562,4.2401227951049805,1.3216416835784912,8.74328327178955
1765548725566944800,42.86094482421875,4.157618999481201,1.3869447708129883,8.772740364074707
1765548725576924200,42.87092407226562,4.064144134521484,1.4599828720092773,8.804633140563965
1765548725586903300,42.8809033203125,3.9686508178710938,1.5379899740219116,8.834861755371094
1765548725606861800,42.90086181640625,3.7091407775878906,1.7220607995986938,8.913313865661621
1765548725636891100,42.93089111328125,3.367074489593506,1.9747124910354614,8.996316909790039
1765548725646901000,42.94090087890625,3.2337112426757812,2.0845284461975098,9.02043628692627
1765548725656910600,42.95091064453125,3.164057970046997,2.1444740295410156,9.03107738494873
1765548725666890000,42.96088989257812,3.0102312564849854,2.2772469520568848,9.051136016845703
1765548725676869000,42.970869140625,2.846586227416992,2.4175922870635986,9.067667007446289
1765548725686879000,42.98087890625,2.5857386589050293,2.6272122859954834,9.087470054626465
1765548725696858000,42.99085815429687,2.4995639324188232,2.6969728469848633,9.091144561767578
1765548725706868000,43.00086791992187,2.3262643814086914,2.825615406036377,9.098064422607422
1765548725716877800,43.0108779296875,2.07104229927063,3.0084471702575684,9.10112190246582
1765548725756855800,43.05085571289062,1.4633708000183105,3.4942336082458496,9.045400619506836
1765548725766835000,43.0608349609375,1.2761346101760864,3.6551461219787598,9.010092735290527
1765548725776814300,43.070814453125,1.0858771800994873,3.816976308822632,8.967828750610352
1765548725786824000,43.08082397460937,0.8051862120628357,4.054635524749756,8.892807006835938
1765548725796833800,43.09083374023437,0.624659538269043,4.214178562164307,8.832942008972168
1765548725806813000,43.10081298828125,0.45045799016952515,4.379283428192139,8.762955665588379
1765548725816822800,43.11082275390625,0.28096505999565125,4.553267955780029,8.680970191955566
1765548725826832600,43.12083251953125,0.19778263568878174,4.643669128417969,8.63525390625
1765548725856800800,43.15080078125,-0.46149203181266785,5.283820629119873,8.248554229736328
1765548725866841000,43.16084106445312,-0.5630193948745728,5.372082233428955,8.184993743896484
1765548725876851000,43.17085083007812,-0.7590242028236389,5.540872097015381,8.055619239807129
1765548725886860500,43.18086059570312,-1.0214905738830566,5.790591716766357,7.8483123779296875
1765548725896870400,43.19087036132812,-1.1823022365570068,5.961528301239014,7.696281909942627
1765548725906880300,43.20088037109375,-1.2602888345718384,6.048995018005371,7.615229606628418
1765548725916889900,43.21088989257812,-1.4129505157470703,6.229553699493408,7.440875053405762
1765548725926869200,43.220869140625,-1.490897297859192,6.323190212249756,7.346079349517822
1765548725956867800,43.25086791992187,-2.0769481658935547,6.922797203063965,6.6280903816223145
1765548726016865500,43.31086547851562,-2.908134937286377,7.851122856140137,5.106175899505615
1765548726026875400,43.32087548828125,-2.9633495807647705,7.913305282592773,4.976802825927734
1765548726036885000,43.33088500976562,-3.0871176719665527,8.026494979858398,4.713328838348389
1765548726056904400,43.35090454101562,-3.4167020320892334,8.268595695495605,4.015828609466553
1765548726066883800,43.3608837890625,-3.4773499965667725,8.314897537231445,3.8653461933135986
1765548726076863000,43.37086303710937,-3.6164169311523438,8.431697845458984,3.463867664337158
1765548726086872800,43.38087280273437,-3.65389084815979,8.470733642578125,3.326580762863159
1765548726096882700,43.39088256835937,-3.7476093769073486,8.5735502243042,2.9359967708587646
1765548726106892300,43.40089233398437,-3.819784164428711,8.626774787902832,2.6755244731903076
1765548726116902100,43.41090209960937,-3.911574363708496,8.662527084350586,2.4146721363067627
1765548726126912000,43.420912109375,-4.01894998550415,8.683318138122559,2.149049758911133
1765548726136891100,43.43089111328125,-4.128751277923584,8.694663047790527,1.8779481649398804
1765548726146901000,43.44090087890625,-4.230471611022949,8.700455665588379,1.6048835515975952
1765548726176869000,43.470869140625,-4.423329830169678,8.70566177368164,0.9033397436141968
1765548726186879000,43.48087890625,-4.531526565551758,8.683917999267578,0.4745931923389435
1765548726196858000,43.49085815429687,-4.620345115661621,8.6486234664917,0.15515871345996857
1765548726206898400,43.5008984375,-4.669342041015625,8.623544692993164,-0.04628770425915718
1765548726216877800,43.5108779296875,-4.778189659118652,8.557143211364746,-0.3385375440120697
1765548726226887400,43.52088745117187,-4.954662322998047,8.430904388427734,-0.7359396815299988
1765548726236866800,43.53086669921875,-5.010098457336426,8.382031440734863,-0.900506854057312
1765548726246876400,43.54087646484375,-5.1160969734191895,8.282288551330566,-1.18306303024292
1765548726256855800,43.55085571289062,-5.211494445800781,8.177755355834961,-1.4611787796020508
1765548726287892200,43.58189233398438,-5.528517246246338,7.776272296905518,-2.2661547660827637
1765548726297901800,43.59190185546875,-5.5771989822387695,7.705639362335205,-2.3850250244140625
1765548726317890800,43.61189086914062,-5.776072025299072,7.4229559898376465,-2.7761712074279785
1765548726327900700,43.62190063476562,-5.938798427581787,7.186886787414551,-3.0413451194763184
1765548726337910500,43.63191064453125,-6.041432857513428,7.025895595550537,-3.2106540203094482
1765548726347920100,43.64192016601562,-6.13817834854126,6.867867469787598,-3.3653512001037598
1765548726357930000,43.65192993164062,-6.186575889587402,6.783327579498291,-3.447192668914795
1765548726387989800,43.68198974609375,-6.492264270782471,6.259793281555176,-3.851733922958374
1765548726397999600,43.69199951171875,-6.604333400726318,6.0730485916137695,-3.958690643310547
1765548726408009200,43.70200927734375,-6.7764058113098145,5.7824602127075195,-4.100478172302246
1765548726418019000,43.71201904296875,-6.831923484802246,5.682973384857178,-4.147177696228027
1765548726427998200,43.72199829101562,-6.9791340827941895,5.413651466369629,-4.260796070098877
1765548726437977600,43.7319775390625,-7.023492813110352,5.327533721923828,-4.296321392059326
1765548726457966600,43.75196655273437,-7.177152156829834,5.027430534362793,-4.402706146240234
1765548726467976400,43.7619765625,-7.258878231048584,4.873228549957275,-4.441935062408447
1765548726498005800,43.792005859375,-7.5415143966674805,4.305758476257324,-4.555933952331543
1765548726508015400,43.80201538085937,-7.5947265625,4.1729416847229,-4.590978622436523
1765548726518025200,43.81202514648437,-7.632442474365234,4.064746379852295,-4.6253767013549805
1765548726528034800,43.82203491210937,-7.64746618270874,4.0167317390441895,-4.642470359802246
1765548726538044700,43.83204467773437,-7.670854091644287,3.938614845275879,-4.6707329750061035
1765548726548054500,43.84205444335937,-7.707795143127441,3.832664966583252,-4.69797945022583
1765548726558033700,43.85203369140625,-7.720872402191162,3.797900676727295,-4.70473575592041
1765548726568074000,43.86207397460937,-7.750266075134277,3.7283711433410645,-4.712014675140381
1765548726608235000,43.90223510742187,-7.847543239593506,3.524960517883301,-4.707561492919922
1765548726618122800,43.91212280273437,-7.848110198974609,3.5234436988830566,-4.707752704620361
1765548726628132600,43.92213256835937,-7.817772388458252,3.576484441757202,-4.718227386474609
1765548726638111700,43.93211181640625,-7.7803802490234375,3.639789342880249,-4.731600284576416
1765548726648243700,43.94224365234375,-7.757927894592285,3.6769063472747803,-4.739757537841797
1765548726668171800,43.962171875,-7.625423908233643,3.8860466480255127,-4.7876877784729
1765548726678181400,43.97218139648437,-7.482235908508301,4.117080211639404,-4.820400238037109
1765548726708241200,44.0022412109375,-7.086772918701172,4.735857963562012,-4.8497114181518555
1765548726718190000,44.01219018554688,-7.009078025817871,4.849608898162842,-4.850208282470703
1765548726728230100,44.02223022460937,-6.838480472564697,5.090113639831543,-4.8473029136657715
1765548726748188700,44.04218872070312,-6.449734687805176,5.58256196975708,-4.838006019592285
1765548726758168000,44.05216796875,-6.23997163772583,5.823080062866211,-4.829584121704102
1765548726768208400,44.06220849609375,-5.889472484588623,6.183038234710693,-4.822300434112549
1765548726778218000,44.07221801757812,-5.638635158538818,6.413440704345703,-4.821203231811523
1765548726788227800,44.08222778320312,-5.375515937805176,6.633896827697754,-4.823449611663818
1765548726818226700,44.11222680664063,-4.5106730461120605,7.244501113891602,-4.831301689147949
1765548726828236300,44.122236328125,-4.3572468757629395,7.338840961456299,-4.829723358154297
1765548726838215700,44.13221557617187,-3.8646600246429443,7.620162487030029,-4.813301086425781
1765548726848225300,44.14222534179687,-3.5243723392486572,7.797739028930664,-4.790035247802734
1765548726858265600,44.152265625,-3.3547375202178955,7.880593299865723,-4.776227951049805
1765548726868275500,44.162275390625,-2.8165154457092285,8.129878044128418,-4.705606937408447
1765548726878285000,44.17228515625,-2.647616386413574,8.199016571044922,-4.683661937713623
1765548726888325400,44.18232543945312,-2.0950512886047363,8.410743713378906,-4.587000370025635
1765548726898304800,44.1923046875,-1.7569341659545898,8.511159896850586,-4.543534278869629
1765548726928242400,44.22224243164062,-1.0003881454467773,8.658967971801758,-4.493538856506348
1765548726938282800,44.23228271484375,-0.6242449879646301,8.746881484985352,-4.39008092880249
1765548726948262000,44.24226196289062,-0.04276143014431,8.856772422790527,-4.210242748260498
1765548726958241300,44.2522412109375,0.14760565757751465,8.882802963256836,-4.1526384353637695
1765548726968220400,44.26222045898437,0.7371068000793457,8.951936721801758,-3.9357218742370605
1765548726978260700,44.2722607421875,0.9313934445381165,8.96623420715332,-3.8612897396087646
1765548726988240100,44.282240234375,1.4894508123397827,9.000182151794434,-3.5984244346618652
1765548726998219300,44.29221923828125,1.6666607856750488,9.005413055419922,-3.506450653076172
1765548727038197200,44.332197265625,2.983520746231079,8.958857536315918,-2.647233247756958
1765548727048207000,44.34220703125,3.321810007095337,8.910567283630371,-2.3953592777252197
1765548727058247400,44.35224731445312,3.8361403942108154,8.801522254943848,-1.996907114982605
1765548727068257000,44.36225708007812,4.167375087738037,8.708576202392578,-1.7216510772705078
1765548727078236400,44.372236328125,4.480743408203125,8.603476524353027,-1.4399755001068115
1765548727088246000,44.38224609375,4.7741241455078125,8.488231658935547,-1.152421474456787
1765548727098256000,44.392255859375,5.046074867248535,8.364520072937012,-0.8615791201591492
1765548727108265700,44.402265625,5.176243782043457,8.298628807067871,-0.7138879895210266
1765548727158284000,44.45228393554687,6.360959053039551,7.419329643249512,0.8137252330780029
1765548727168293600,44.46229370117187,6.565610885620117,7.196743488311768,1.1269584894180298
1765548727178303500,44.47230346679687,6.814449787139893,6.870168209075928,1.5919967889785767
1765548727188282600,44.48228271484375,6.885126113891602,6.761354923248291,1.7462860345840454
1765548727198262000,44.49226196289062,7.000156402587891,6.555574417114258,2.0475919246673584
1765548727208272000,44.50227197265625,7.141185283660889,6.240428924560547,2.4961798191070557
1765548727218251000,44.5122509765625,7.226034641265869,6.0115437507629395,2.7957372665405273
1765548727228260900,44.5222607421875,7.266351222991943,5.889876365661621,2.9461658000946045
1765548727248249900,44.54224975585937,7.396123886108398,5.3871355056762695,3.527961492538452
1765548727258290200,44.55229028320313,7.430068492889404,5.143101692199707,3.809589385986328
1765548727268299800,44.5622998046875,7.441633701324463,4.909559726715088,4.085182189941406
1765548727278309600,44.5723095703125,7.427460670471191,4.580130577087402,4.474999904632568
1765548727289357000,44.58335717773438,7.404143810272217,4.33006477355957,4.753902435302734
1765548727299366700,44.59336669921875,7.392129898071289,4.201519966125488,4.886106967926025
1765548727309376500,44.60337646484375,7.363827705383301,3.962812662124634,5.122552871704102
1765548727319355600,44.61335571289062,7.330441951751709,3.7184786796569824,5.348638534545898
1765548727339405800,44.63340576171875,7.201555252075195,3.1224303245544434,5.878641605377197
1765548727359425300,44.65342529296875,7.095668792724609,2.7198405265808105,6.198737621307373
1765548727369435100,44.66343505859375,7.015194416046143,2.4179933071136475,6.4117655754089355
1765548727379414300,44.67341430664062,6.916874408721924,2.0540130138397217,6.6414055824279785
1765548727389424000,44.68342407226562,6.819619178771973,1.7981125116348267,6.8139543533325195
1765548727399403300,44.6934033203125,6.722970962524414,1.5656347274780273,6.9656901359558105
1765548727409382700,44.70338256835937,6.627219200134277,1.3589987754821777,7.099541187286377
1765548727419392300,44.71339233398437,6.530543327331543,1.1696534156799316,7.221794605255127
1765548727429402000,44.72340209960937,6.391140937805176,0.9367521405220032,7.378767013549805
1765548727449391000,44.74339111328125,6.250516891479492,0.7041215300559998,7.5236711502075195
1765548727459401000,44.75340087890625,6.1647515296936035,0.5689300894737244,7.605428218841553
1765548727469441300,44.76344116210937,6.0832953453063965,0.4375564455986023,7.679352760314941
1765548727479420400,44.77342041015625,6.001466274261475,0.30933600664138794,7.749651908874512
1765548727489460700,44.78346069335937,5.905913352966309,0.1449020951986313,7.827489376068115
1765548727499470600,44.793470703125,5.872015953063965,0.08408932387828827,7.8538360595703125
1765548727509480200,44.80348022460937,5.8170061111450195,-0.017604922875761986,7.895095348358154
1765548727519428900,44.81342895507812,5.770589351654053,-0.09963847696781158,7.928477764129639
1765548727529408300,44.823408203125,5.730412006378174,-0.1604638248682022,7.956571102142334
1765548727539418000,44.83341821289063,5.694820404052734,-0.20543548464775085,7.981053829193115
1765548727569447200,44.863447265625,5.609869003295898,-0.3303963243961334,8.036828994750977
1765548727659413000,44.9534130859375,5.726222038269043,-0.13605506718158722,7.960040092468262
1765548727709431300,45.00343139648437,5.997255325317383,0.2168973684310913,7.756047248840332
1765548727719441200,45.01344116210937,6.028689861297607,0.25310325622558594,7.730538368225098
1765548727729420500,45.02342065429688,6.099521160125732,0.3439364731311798,7.6712422370910645
1765548727739430100,45.03343017578125,6.210838794708252,0.49672552943229675,7.5729217529296875
1765548727749470500,45.04347045898437,6.245368480682373,0.5318284034729004,7.542076587677002
1765548727759480300,45.05348022460937,6.363865375518799,0.7014645934104919,7.428293704986572
1765548727769490000,45.06348999023437,6.401261806488037,0.7417424917221069,7.3921613693237305
1765548727779530200,45.0735302734375,6.478949546813965,0.8609501719474792,7.311112403869629
1765548727789540000,45.0835400390625,6.594040870666504,1.0833362340927124,7.17742395401001
1765548727859608300,45.1536083984375,7.10555362701416,2.05344557762146,6.439321994781494
1765548727909687800,45.20368774414062,7.350162982940674,3.2783401012420654,5.603390216827393
1765548727929646300,45.22364624023437,7.367535591125488,3.683939218521118,5.321502685546875
1765548727949665800,45.24366577148437,7.327528953552246,4.381250381469727,4.825179576873779
1765548727959645000,45.25364501953125,7.285401344299316,4.663786888122559,4.619783878326416
1765548727969685200,45.26368530273437,7.258131980895996,4.806017875671387,4.515760898590088
1765548727979725600,45.2737255859375,7.143476486206055,5.244182109832764,4.1999616622924805
1765548727999745000,45.2937451171875,6.936955451965332,5.813838958740234,3.77469539642334
1765548728049794000,45.3437939453125,6.169175624847412,7.140655517578125,2.668839931488037
1765548728059834400,45.35383447265625,6.07255220413208,7.263387203216553,2.556891918182373
1765548728069844000,45.36384399414062,5.8805131912231445,7.4919538497924805,2.3367888927459717
1765548728079823400,45.3738232421875,5.686527252197266,7.703521251678467,2.1188628673553467
1765548728089802500,45.38380249023437,5.383942604064941,7.999497890472412,1.7865041494369507
1765548728099812400,45.39381225585937,5.161994934082031,8.191184043884277,1.5584266185760498
1765548728129872100,45.4238720703125,4.508090496063232,8.653573036193848,0.9814233779907227
1765548728139881700,45.4338818359375,4.226902484893799,8.81687068939209,0.7526611089706421
1765548728149891600,45.4438916015625,3.8034069538116455,9.029257774353027,0.42069268226623535
1765548728169880600,45.46388061523437,3.3618836402893066,9.211926460266113,0.09245529025793076
1765548728179890400,45.47389038085937,3.074023485183716,9.311663627624512,-0.11710048466920853
1765548728189900300,45.483900390625,2.658489942550659,9.430407524108887,-0.4126023054122925
1765548728199879400,45.49387939453125,2.3835525512695312,9.493202209472656,-0.6067939400672913
1765548728229908700,45.52390869140625,1.638567328453064,9.606886863708496,-1.092345118522644
1765548728239918600,45.53391870117188,1.159559965133667,9.641353607177734,-1.3675175905227661
1765548728249928200,45.54392822265625,0.9814501404762268,9.646738052368164,-1.4654691219329834
1765548728259907600,45.55390747070312,0.6381393671035767,9.64647388458252,-1.645819902420044
1765548759185922300,76.47992236328125,-6.34655237197876,5.584485054016113,-4.970432758331299
1765548759225530600,76.51953051757812,-6.774006366729736,5.030426025390625,-4.997807025909424
1765548759235540500,76.52954052734376,-6.946840763092041,4.786205768585205,-5.000405788421631
1765548759355596500,76.64959643554687,-8.278721809387207,1.7990319728851318,-4.939294338226318
1765548759365576000,76.65957592773438,-8.302924156188965,1.5881479978561401,-4.970884799957275
1765548759375616300,76.6696162109375,-8.311639785766602,1.408591389656067,-5.010287284851074
1765548759425604000,76.71960400390626,-8.28677749633789,0.7483245134353638,-5.190352439880371
1765548759495672300,76.78967236328126,-8.335104942321777,0.4021434783935547,-5.151185512542725
1765548759565679600,76.8596796875,-8.427896499633789,0.7650843858718872,-4.95536994934082
1765548759575659000,76.86965893554688,-8.432076454162598,0.9153512120246887,-4.92266845703125
1765548759585668600,76.87966870117188,-8.439020156860352,1.0788438320159912,-4.8774495124816895
1765548759595648000,76.88964794921876,-8.452628135681152,1.2382577657699585,-4.815616130828857
1765548759605627100,76.89962719726563,-8.461194038391113,1.3159149885177612,-4.779849052429199
1765548759615606500,76.9096064453125,-8.487060546875,1.4596456289291382,-4.691443920135498
1765548759625616100,76.9196162109375,-8.517669677734375,1.6165822744369507,-4.583268165588379
1765548759635565000,76.92956494140626,-8.55825138092041,1.935381293296814,-4.379615306854248
1765548759675543000,76.96954296875,-8.628881454467773,2.9754207134246826,-3.5860397815704346
1765548759695562500,76.9895625,-8.748350143432617,3.1519851684570312,-3.11476469039917
1765548759705572400,76.999572265625,-8.77616024017334,3.1963930130004883,-2.9887335300445557
1765548759715582000,77.00958203125,-8.813453674316406,3.3184587955474854,-2.7351975440979004
1765548759725591800,77.019591796875,-8.841909408569336,3.5312697887420654,-2.349721908569336
1765548759735601700,77.0296015625,-8.855793952941895,3.656181573867798,-2.0922868251800537
1765548759745580800,77.03958081054688,-8.861468315124512,3.7135770320892334,-1.9631907939910889
1765548759775549200,77.06954907226563,-8.839628219604492,4.112026214599609,-1.0595507621765137
1765548759795568600,77.08956860351563,-8.75948429107666,4.376862525939941,-0.5338175296783447
1765548759815588000,77.10958813476563,-8.613680839538574,4.687719345092773,0.015114713460206985
1765548759845648000,77.13964794921876,-8.333667755126953,5.089162349700928,0.9059994220733643
1765548759875585800,77.16958569335938,-8.146903991699219,5.190197467803955,1.691209316253662
1765548759885595400,77.17959545898438,-8.035666465759277,5.181224822998047,2.180239677429199
1765548759895605200,77.18960522460938,-7.987273216247559,5.186761856079102,2.339097738265991
1765548759915594200,77.20959423828126,-7.611141681671143,5.306203365325928,3.175712823867798
1765548759925604000,77.21960400390626,-7.427243232727051,5.361972332000732,3.5008301734924316
1765548759935613700,77.22961376953126,-7.33198356628418,5.386057376861572,3.6609907150268555
1765548759945593000,77.23959301757813,-7.140308380126953,5.4210076332092285,3.974799871444702
1765548759955602700,77.24960278320313,-6.941819667816162,5.447859287261963,4.278127193450928
1765548759975591700,77.269591796875,-6.380475997924805,5.512727737426758,5.006973743438721
1765548759985601500,77.2796015625,-6.1323018074035645,5.535298824310303,5.284478187561035
1765548759995611400,77.289611328125,-6.005428314208984,5.543341636657715,5.420019626617432
1765548760005651700,77.29965161132813,-5.6227641105651855,5.547986030578613,5.811604976654053
1765548760015630800,77.309630859375,-5.492213726043701,5.544683456420898,5.938220977783203
1765548760025610000,77.31960986328124,-5.235902786254883,5.524363994598389,6.183618068695068
1765548760035619800,77.32961987304688,-4.859095573425293,5.462672710418701,6.5359673500061035
1765548760045629700,77.33962963867188,-4.607509613037109,5.407942295074463,6.759834289550781
1765548760055608800,77.34960888671876,-4.480429172515869,5.378469467163086,6.867913722991943
1765548760065618700,77.35961865234376,-4.092386722564697,5.2783122062683105,7.180682182312012
1765548760105566200,77.39956616210938,-3.1459972858428955,5.01069450378418,7.820872783660889
1765548760115515000,77.40951489257813,-2.8823177814483643,4.921260356903076,7.97770881652832
1765548760125494000,77.41949389648437,-2.6246109008789062,4.8213043212890625,8.126306533813477
1765548760135473400,77.42947338867188,-2.3732519149780273,4.714127540588379,8.265294075012207
1765548760145483300,77.43948315429688,-2.1235132217407227,4.603755950927734,8.39443302154541
1765548760155492900,77.44949291992188,-1.7509896755218506,4.443125247955322,8.565224647521973
1765548760165502700,77.45950268554688,-1.5025912523269653,4.33791446685791,8.66574478149414
1765548760175451400,77.46945141601563,-1.3790210485458374,4.285477161407471,8.712255477905273
1765548760205480700,77.49948071289063,-0.6512620449066162,3.9752378463745117,8.94112777709961
1765548760215490600,77.50949047851563,-0.30947160720825195,3.8229076862335205,9.025521278381348
1765548760225469700,77.5194697265625,-0.19416005909442902,3.7709150314331055,9.05057430267334
1765548760235479600,77.5294794921875,0.12814940512180328,3.623561382293701,9.111738204956055
1765548760245458700,77.53945874023438,0.33869653940200806,3.52889084815979,9.143447875976562
1765548760255468500,77.54946850585938,0.4453805387020111,3.480928421020508,9.157246589660645
1765548760265478100,77.55947802734374,0.7396756410598755,3.3475301265716553,9.187889099121094
1765548760275427000,77.56942700195313,0.8379746675491333,3.303816795349121,9.195270538330078
1765548760285467400,77.57946728515626,1.1124316453933716,3.1808974742889404,9.209494590759277
1765548760315466000,77.60946606445313,1.5548633337020874,2.9900224208831787,9.209372520446777
1765548760325475800,77.61947583007813,1.7223305702209473,2.9130446910858154,9.204244613647461
1765548760335455000,77.629455078125,1.9628000259399414,2.8024981021881104,9.190420150756836
1765548760345464800,77.63946484375,2.119145631790161,2.732820749282837,9.176671981811523
1765548760355444000,77.64944384765624,2.199683904647827,2.6974220275878906,9.168190002441406
1765548760365453800,77.65945385742188,2.340277910232544,2.638983726501465,9.150369644165039
1765548760375402500,77.66940258789063,2.47172212600708,2.5872740745544434,9.130553245544434
1765548760385412400,77.67941235351563,2.647134780883789,2.524731397628784,9.098835945129395
1765548760415411200,77.7094111328125,3.0170414447784424,2.4097044467926025,9.014498710632324
1765548760425390300,77.71939038085938,3.1096441745758057,2.375580310821533,8.992059707641602
1765548760435400200,77.72940014648438,3.244843006134033,2.325474500656128,8.957319259643555
1765548760445409800,77.73940991210938,3.305727958679199,2.303166389465332,8.940804481506348
1765548760455358700,77.74935864257813,3.3868601322174072,2.281914472579956,8.915852546691895
1765548760465368300,77.75936840820313,3.496432304382324,2.2584781646728516,8.879449844360352
1765548760475408600,77.76940869140626,3.688535451889038,2.186199903488159,8.819616317749023
1765548760495397600,77.78939770507813,3.8851287364959717,2.088632345199585,8.75864028930664
1765548760515417300,77.80941723632813,3.9641807079315186,2.0413215160369873,8.734339714050293
1765548760525396500,77.819396484375,3.983628988265991,2.032593011856079,8.727522850036621
1765548760535375600,77.82937573242188,4.005030155181885,2.0255606174468994,8.719358444213867
1765548760545385500,77.83938549804688,4.019993782043457,2.02278208732605,8.713115692138672
1765548760555395300,77.84939526367188,4.020103931427002,2.026019334793091,8.712313652038574
1765548760565405000,77.85940502929688,4.008530616760254,2.037522315979004,8.71496295928955
1765548760575414800,77.86941479492188,3.9576492309570312,2.077224016189575,8.72883415222168
1765548760585424600,77.87942456054688,3.9338645935058594,2.0992519855499268,8.73431396484375
1765548760595403800,77.88940380859376,3.9435951709747314,2.096846580505371,8.73050308227539
1765548760625402600,77.91940258789063,3.8412024974823,2.208003520965576,8.748729705810547
1765548760635412200,77.929412109375,3.783137321472168,2.2764556407928467,8.75648307800293
1765548760645422000,77.93942211914063,3.8061985969543457,2.2755281925201416,8.746726036071777
1765548760655432000,77.94943188476563,3.7503843307495117,2.346128463745117,8.752182960510254
1765548760665411000,77.9594111328125,3.6794397830963135,2.4320714473724365,8.758831977844238
1765548760675421000,77.9694208984375,3.540564775466919,2.5922605991363525,8.770118713378906
1765548760685430500,77.97943041992187,3.437021017074585,2.713076114654541,8.774765968322754
1765548760695440400,77.9894404296875,3.3841683864593506,2.7769620418548584,8.775321006774902
1765548760705450200,77.9994501953125,3.1945950984954834,2.9738686084747314,8.7818603515625
1765548760735479600,78.0294794921875,2.8695361614227295,3.2763748168945312,8.786439895629883
1765548760745489200,78.0394892578125,2.749950408935547,3.3869287967681885,8.782759666442871
1765548760755499000,78.0494990234375,2.636385440826416,3.5005297660827637,8.773036003112793
1765548760765539300,78.05953930664063,2.455493450164795,3.6955597400665283,8.745501518249512
1765548760775549200,78.06954907226563,2.3929994106292725,3.764744281768799,8.733306884765625
1765548760785528300,78.0795283203125,2.250253200531006,3.9184601306915283,8.70358657836914
1765548760795538200,78.0895380859375,2.0909271240234375,4.082776069641113,8.667718887329102
1765548760805547800,78.0995478515625,1.9189128875732422,4.253306865692139,8.62540054321289
1765548760815527200,78.10952709960938,1.740878701210022,4.425520420074463,8.57639217376709
1765548760825536800,78.11953686523438,1.4658102989196777,4.673943042755127,8.495650291442871
1765548760835546600,78.12954663085938,1.3758763074874878,4.754421234130859,8.465980529785156
1765548760845525800,78.13952587890626,1.1017664670944214,4.988426685333252,8.3709077835083
1765548760855505200,78.14950512695313,1.0130261182785034,5.065380096435547,8.335832595825195
1765548760865515000,78.15951489257813,0.8356781005859375,5.221439361572266,8.258851051330566
1765548760875494100,78.169494140625,0.656466007232666,5.3799729347229,8.172842025756836
1765548760885504000,78.17950390625,0.3691740930080414,5.6230669021606445,8.025909423828125
1765548760895483100,78.18948315429688,0.2721773684024811,5.704123497009277,7.972408294677734
1765548760905493000,78.19949291992188,0.06732698529958725,5.8668742179870605,7.857841491699219
1765548760915502600,78.20950268554688,-0.13947628438472748,6.025805950164795,7.735672473907471
1765548760935522300,78.22952221679688,-0.5361112356185913,6.320587158203125,7.478847980499268
1765548760945532000,78.23953198242188,-0.7085346579551697,6.463580131530762,7.34101676940918
1765548760955541800,78.24954174804688,-0.9303426146507263,6.676278114318848,7.122651100158691
1765548760965551600,78.25955151367188,-1.0526012182235718,6.816199779510498,6.971500873565674
1765548760975561200,78.26956127929688,-1.1589572429656982,6.957987308502197,6.8127546310424805
1765548760985571000,78.27957104492188,-1.2053555250167847,7.028021335601807,6.73234224319458
1765548760995550200,78.28955029296876,-1.3540631532669067,7.242023944854736,6.472250461578369
1765548761005560000,78.29956005859376,-1.472821593284607,7.382004261016846,6.285476207733154
1765548761015508700,78.3095087890625,-1.604327917098999,7.518383026123047,6.088549613952637
1765548761045538000,78.3395380859375,-1.973334789276123,7.905775547027588,5.456655025482178
1765548761055517400,78.34951733398438,-2.021174907684326,7.968235492706299,5.347194194793701
1765548761065527000,78.35952709960938,-2.1490795612335205,8.153770446777344,5.006781578063965
1765548761075475700,78.36947583007813,-2.231038808822632,8.272085189819336,4.771317005157471
1765548761085485600,78.37948559570313,-2.319223403930664,8.386048316955566,4.523913860321045
1765548761095465000,78.38946484375,-2.36427640914917,8.4417724609375,4.39511775970459
1765548761105505000,78.39950512695313,-2.524592161178589,8.590054512023926,4.000977993011475
1765548761115484400,78.409484375,-2.5766024589538574,8.636051177978516,3.8665380477905273
1765548761125494000,78.41949389648437,-2.7123966217041016,8.762978553771973,3.4674928188323975
1765548761165502700,78.45950268554688,-2.965014696121216,9.033698081970215,2.4023706912994385
1765548761175481900,78.46948193359376,-3.0296478271484375,9.07927417755127,2.135040521621704
1765548761185491700,78.47949169921876,-3.06496524810791,9.098852157592773,1.996820330619812
1765548761195470800,78.48947094726563,-3.1453654766082764,9.127243041992188,1.723513126373291
1765548761205480700,78.49948071289063,-3.245161533355713,9.140129089355469,1.4482403993606567
1765548761225500200,78.51950024414063,-3.4884073734283447,9.121432304382324,0.8948997855186462
1765548761255468500,78.54946850585938,-3.8231070041656494,9.030674934387207,-0.03518412634730339
1765548761265478100,78.55947802734374,-3.8608999252319336,9.012897491455078,-0.17744886875152588
1765548761275457500,78.56945751953126,-3.986348867416382,8.941703796386719,-0.5704571604728699
1765548761285467400,78.57946728515626,-4.081920623779297,8.877739906311035,-0.8330804705619812
1765548761295446500,78.58944653320313,-4.1302947998046875,8.841021537780762,-0.973346471786499
1765548761305486800,78.59948681640626,-4.344196796417236,8.685707092285156,-1.362680435180664
1765548761315466000,78.60946606445313,-4.391143798828125,8.631718635559082,-1.5432690382003784
1765548761325445400,78.6194453125,-4.5240888595581055,8.506000518798828,-1.8305624723434448
1765548761335424500,78.62942456054688,-4.73754358291626,8.301786422729492,-2.1923515796661377
1765548761395483100,78.68948315429688,-5.42137336730957,7.385433197021484,-3.497783660888672
1765548761405493000,78.69949291992188,-5.548640251159668,7.179047584533691,-3.7207870483398438
1765548761415472000,78.70947216796876,-5.68029260635376,6.969186782836914,-3.9160103797912598
1765548761425482000,78.71948193359376,-5.888220310211182,6.630739688873291,-4.187189102172852
1765548761435461000,78.72946118164063,-6.026597499847412,6.388524055480957,-4.3631672859191895
1765548761465429500,78.75942944335938,-6.335796356201172,5.777360439300537,-4.759220123291016
1765548761475408600,78.76940869140626,-6.4879045486450195,5.424398422241211,-4.965224742889404
1765548761485449000,78.77944897460938,-6.53588342666626,5.303101062774658,-5.032867908477783
1765548761495397600,78.78939770507813,-6.622888565063477,5.072292327880859,-5.155542373657227
1765548761505377000,78.799376953125,-6.747482776641846,4.73098611831665,-5.315981388092041
1765548761515386600,78.80938671875,-6.789331912994385,4.613131999969482,-5.366042613983154
1765548761525366000,78.81936596679688,-6.918201446533203,4.257132530212402,-5.4941582679748535
1765548761535375600,78.82937573242188,-6.960623741149902,4.133716106414795,-5.534667015075684
1765548761545416000,78.839416015625,-7.04056978225708,3.894174575805664,-5.60679817199707
1765548761565466000,78.85946606445313,-7.1932597160339355,3.400205373764038,-5.73288631439209
1765548761585455000,78.879455078125,-7.261420249938965,3.1761417388916016,-5.775319576263428
1765548761595434200,78.88943432617188,-7.310645580291748,3.037583589553833,-5.787739276885986
1765548761605444000,78.89944409179688,-7.394066333770752,2.8210947513580322,-5.791337966918945
1765548761615423200,78.90942333984376,-7.42033576965332,2.749998092651367,-5.791934967041016
1765548761625463600,78.91946362304688,-7.48394250869751,2.570941925048828,-5.792348861694336
1765548761635443000,78.92944287109376,-7.499757766723633,2.5207462310791016,-5.79395055770874
1765548761645483300,78.93948315429688,-7.517383098602295,2.4451844692230225,-5.803488254547119
1765548761665502700,78.95950268554688,-7.5176520347595215,2.357168674468994,-5.839445114135742
1765548761675512300,78.96951220703124,-7.510244846343994,2.3336257934570312,-5.858396530151367
1765548761685552600,78.979552734375,-7.503877639770508,2.314746141433716,-5.87402868270874
1765548761695532000,78.98953198242188,-7.494924068450928,2.3060617446899414,-5.888853549957275
1765548761705541600,78.99954174804688,-7.478076457977295,2.3212642669677734,-5.904280185699463
1765548761715551500,79.00955151367188,-7.450416088104248,2.370288848876953,-5.919747829437256
1765548761725561300,79.01956127929688,-7.411192417144775,2.4510722160339355,-5.936063766479492
1765548761735540500,79.02954052734376,-7.362085819244385,2.5580477714538574,-5.952018737792969
1765548761745550300,79.03955029296876,-7.2664690017700195,2.775735855102539,-5.971941947937012
1765548761755560000,79.04955981445312,-7.230690002441406,2.8566689491271973,-5.977203369140625
1765548761775549200,79.06954907226563,-7.065586090087891,3.213822364807129,-5.9932661056518555
1765548761785558800,79.07955883789063,-6.970527648925781,3.4010961055755615,-6.001227378845215
1765548761795538200,79.0895380859375,-6.8619866371154785,3.602957010269165,-6.00851583480835
1765548761805517300,79.09951733398438,-6.734879016876221,3.826434373855591,-6.014169216156006
1765548761815496400,79.10949633789062,-6.585988998413086,4.070173740386963,-6.019040107727051
1765548761825475800,79.11947583007813,-6.411373615264893,4.334292888641357,-6.023172378540039
1765548761835455000,79.129455078125,-6.212767601013184,4.609134674072266,-6.027255058288574
1765548761845495300,79.13949536132813,-5.989260196685791,4.888392925262451,-6.033470153808594
1765548761855444000,79.14944384765624,-5.6254730224609375,5.279125213623047,-6.054365634918213
1765548761875463700,79.16946362304688,-5.243577003479004,5.631150722503662,-6.079923152923584
1765548761885504000,79.17950390625,-4.979739189147949,5.84468936920166,-6.100182056427002
1765548761895452700,79.18945263671876,-4.704367160797119,6.047367572784424,-6.121167182922363
1765548761905431800,79.19943188476563,-4.414729595184326,6.243032932281494,-6.140448570251465
1765548761915411200,79.2094111328125,-4.110475063323975,6.4361186027526855,-6.15230131149292
1765548761925420800,79.2194208984375,-3.787102222442627,6.629360198974609,-6.154656887054443
1765548761935430700,79.2294306640625,-3.286909818649292,6.905384540557861,-6.138590335845947
1765548761945440500,79.2394404296875,-3.124096632003784,6.991271018981934,-6.126380920410156
1765548761955389200,79.24938916015626,-2.7809581756591797,7.161590576171875,-6.094938278198242
1765548761985388000,79.27938793945313,-1.7658354043960571,7.588245868682861,-5.955732345581055
1765548762035375600,79.32937573242188,-0.1798299103975296,8.013103485107422,-5.650506496429443
1765548762045385500,79.33938549804688,0.19569939374923706,8.088025093078613,-5.54219913482666
1765548762055395300,79.34939526367188,0.7551888227462769,8.18442440032959,-5.349327087402344
1765548762065374500,79.35937451171876,0.9373182654380798,8.209624290466309,-5.28147029876709
1765548762075353900,79.36935375976563,1.3041530847549438,8.251923561096191,-5.135693073272705
1765548762085363500,79.37936352539063,1.6707777976989746,8.281695365905762,-4.979197978973389
1765548762105352400,79.3993525390625,2.5761022567749023,8.289630889892578,-4.562471866607666
1765548762115331800,79.40933178710938,2.7542624473571777,8.279939651489258,-4.475157260894775
1765548762125341400,79.41934155273438,3.113924741744995,8.249046325683594,-4.292682647705078
1765548762135290400,79.42929028320313,3.465761661529541,8.205428123474121,-4.102420806884766
1765548762145330400,79.43933032226562,3.807422399520874,8.153036117553711,-3.898965835571289
1765548762155340300,79.44934033203126,4.137155532836914,8.093437194824219,-3.6811161041259766
1765548762165380600,79.45938061523438,4.622628688812256,7.98244571685791,-3.3290035724639893
1765548762175359700,79.46935986328126,4.940158367156982,7.891114711761475,-3.0814836025238037
1765548762185400000,79.47940014648438,5.256961822509766,7.782166957855225,-2.8235836029052734
1765548762195410000,79.48940991210938,5.413168907165527,7.721206188201904,-2.692762851715088
1765548762225469700,79.5194697265625,6.4232048988342285,7.200061798095703,-1.7526967525482178
1765548762235479600,79.5294794921875,6.668514728546143,7.0373101234436035,-1.475663423538208
1765548762245489200,79.5394892578125,6.8970866203308105,6.867247581481934,-1.2006267309188843
1765548762255468500,79.54946850585938,7.006353855133057,6.778581619262695,-1.0640616416931152
1765548762265447700,79.55944775390626,7.310328483581543,6.50339412689209,-0.6598145961761475
1765548762275457500,79.56945751953126,7.492315292358398,6.315525531768799,-0.3869594931602478
1765548762285497900,79.57949780273438,7.579342365264893,6.2179789543151855,-0.24638795852661133
1765548762295477000,79.58947705078126,7.798295021057129,5.943880558013916,0.16512757539749146
1765548762305486800,79.59948681640626,7.926044464111328,5.757909774780273,0.44124066829681396
1765548762335455000,79.629455078125,8.203548431396484,5.2556471824646,1.1181957721710205
1765548762345464800,79.63946484375,8.302186965942383,5.033452987670898,1.3814611434936523
1765548762355474700,79.649474609375,8.419544219970703,4.707738399505615,1.7660268545150757
1765548762365484300,79.659484375,8.454197883605957,4.591808319091797,1.9005860090255737
1765548762375494100,79.669494140625,8.517826080322266,4.29831600189209,2.267489433288574
1765548762385504000,79.67950390625,8.533205032348633,4.19821310043335,2.3937008380889893
1765548762395513600,79.689513671875,8.562864303588867,3.91865611076355,2.737131118774414
1765548762405523500,79.6995234375,8.572566986083984,3.8069536685943604,2.86156964302063
1765548762435491600,79.72949169921876,8.584532737731934,3.103935480117798,3.58354115486145
1765548762445501400,79.73950146484376,8.576140403747559,2.9937915802001953,3.6955928802490234
1765548762455480600,79.74948046875,8.551575660705566,2.7723546028137207,3.918545961380005
1765548762465490400,79.75949047851563,8.504770278930664,2.439056158065796,4.229689121246338
1765548762475500300,79.76950024414063,8.480175018310547,2.1938555240631104,4.409538745880127
1765548762485510000,79.77951000976563,8.428760528564453,1.891533613204956,4.642035484313965
1765548762495519700,79.78951977539063,8.333914756774902,1.5889573097229004,4.918482303619385
1765548762505529600,79.79952954101563,8.245827674865723,1.3764318227767944,5.126612663269043
1765548762515539200,79.80953930664063,8.176352500915527,1.227036714553833,5.27371072769165
1765548762535528200,79.82952807617187,7.968085765838623,0.787956714630127,5.662077903747559
1765548762545507600,79.83950756835938,7.844587326049805,0.5385660529136658,5.860272407531738
1765548762555486700,79.84948681640626,7.762064456939697,0.3853679895401001,5.980989456176758
1765548762565496600,79.85949658203126,7.684385776519775,0.25746801495552063,6.087224960327148
1765548762575475700,79.86947583007813,7.609221935272217,0.1412847936153412,6.184671878814697
1765548762585485600,79.87948559570313,7.569977283477783,0.08353373408317566,6.233687400817871
1765548762595495400,79.88949536132813,7.464824199676514,-0.06479483842849731,6.359449863433838
1765548762605505000,79.89950512695313,7.397745609283447,-0.160411074757576,6.4356818199157715
1765548762615515000,79.90951489257813,7.331319808959961,-0.2550308406352997,6.508232593536377
1765548762645483300,79.93948315429688,7.1484375,-0.5374969840049744,6.691885471343994
1765548762655462400,79.94946240234376,7.116831302642822,-0.585538387298584,6.721477031707764
1765548762665441500,79.95944165039063,7.038379192352295,-0.6726476550102234,6.795524597167969
1765548762675421000,79.9694208984375,7.008969783782959,-0.703097403049469,6.822783946990967
1765548762685461200,79.97946118164063,6.960920333862305,-0.7404580116271973,6.867874622344971
1765548762695440400,79.9894404296875,6.907750129699707,-0.7727131247520447,6.917824745178223
1765548762705450200,79.9994501953125,6.8886494636535645,-0.7877253890037537,6.935155391693115
1765548762715459800,80.0094599609375,6.8617777824401855,-0.80768883228302,6.959455490112305
1765548762725469700,80.0194697265625,6.852766036987305,-0.8178592324256897,6.967143535614014
1765548762785497900,80.07949780273438,6.893855571746826,-0.6799896955490112,6.941380500793457
1765548762795507500,80.08950756835938,6.915420055389404,-0.6229087710380554,6.925268650054932
1765548762805517300,80.09951733398438,6.9589385986328125,-0.517079770565033,6.8902974128723145
1765548762815496400,80.10949633789062,6.9687724113464355,-0.48652753233909607,6.882578372955322
1765548762825536800,80.11953686523438,7.022254467010498,-0.35562005639076233,6.836071491241455
1765548762845587000,80.1395869140625,7.068346977233887,-0.2235012948513031,6.794034957885742
1765548762855596500,80.14959643554687,7.134965896606445,-0.04122019186615944,6.727625370025635
1765548762865576000,80.15957592773438,7.148627281188965,0.010983751155436039,6.713225364685059
1765548762895544000,80.1895439453125,7.283942699432373,0.3404237926006317,6.557337760925293
1765548762905584400,80.19958447265626,7.3732523918151855,0.5400888919830322,6.443124294281006
1765548762925573400,80.21957348632813,7.4853515625,0.8006047606468201,6.284817218780518
1765548762975652900,80.26965283203126,7.706853866577148,1.4141621589660645,5.897027969360352
1765548762985693200,80.27969311523438,7.763453960418701,1.6106979846954346,5.77103328704834
1765548762995702800,80.28970288085938,7.847848892211914,1.9422321319580078,5.5506205558776855
1765548763025762600,80.31976245117187,7.958949089050293,2.5006985664367676,5.154806137084961
1765548763035742000,80.32974194335938,8.003911972045898,2.8562698364257812,4.89382266998291
1765548763075781000,80.36978100585938,8.010340690612793,3.7313802242279053,4.252250671386719
1765548763085790700,80.37979077148438,7.973394393920898,4.116364479064941,3.9561233520507812
1765548763095800600,80.38980053710938,7.955663204193115,4.242485523223877,3.8573453426361084
1765548763105810200,80.39981005859374,7.912837028503418,4.497202396392822,3.651379108428955
1765548763115820000,80.40982006835938,7.856693744659424,4.7546916007995605,3.440300464630127
1765548763125799400,80.41979931640626,7.784236907958984,5.0176100730896,3.2248456478118896
1765548763135809000,80.42980908203126,7.692502021789551,5.286754608154297,3.007661819458008
1765548763175848200,80.46984814453126,7.080251216888428,6.472404956817627,2.036761999130249
1765548763185857800,80.47985791015626,6.920016765594482,6.704275608062744,1.8265951871871948
1765548763195837200,80.48983715820313,6.836064338684082,6.817089080810547,1.7221823930740356
1765548763205847000,80.49984692382813,6.657582759857178,7.039370536804199,1.5146746635437012
1765548763215795700,80.50979565429688,6.353634834289551,7.372114658355713,1.2056713104248047
1765548763225805300,80.51980541992188,6.243165493011475,7.481748104095459,1.1030515432357788
1765548763235815200,80.52981518554688,6.0103254318237305,7.696584701538086,0.8994354009628296
1765548763245825000,80.53982495117188,5.768660545349121,7.899662494659424,0.6987760663032532
1765548763285772500,80.5797724609375,4.614454746246338,8.6514892578125,-0.1700841784477234
1765548763295782100,80.5897822265625,4.480687618255615,8.719130516052246,-0.26572921872138977
1765548763305792000,80.5997919921875,4.052765846252441,8.912466049194336,-0.5598480701446533
1765548763315771100,80.60977124023438,3.7379262447357178,9.034573554992676,-0.7581517696380615
1765548763325811500,80.6198115234375,3.568061113357544,9.093973159790039,-0.8596446514129639
1765548763335760100,80.62976000976562,3.2304937839508057,9.199057579040527,-1.054340124130249
1765548937319003600,254.61300366210938,-3.4216766357421875,8.69080638885498,-2.9887123107910156
1765548937328782800,254.62278295898437,-3.3804409503936768,8.709662437438965,-2.980740547180176
1765548937348602400,254.6426022949219,-3.4717836380004883,8.655118942260742,-3.034147024154663
1765548937358612200,254.6526123046875,-3.484524965286255,8.634651184082031,-3.077550172805786
1765548937378601200,254.67260131835937,-3.6048834323883057,8.501785278320312,-3.300734758377075
1765548937388611000,254.68261108398437,-3.6975276470184326,8.398324012756348,-3.4593122005462646
1765548937408630500,254.70263061523437,-3.807807683944702,8.263639450073242,-3.658313035964966
1765548937428589000,254.72258911132812,-3.942673921585083,8.097633361816406,-3.879955768585205
1765548937448608500,254.7426083984375,-4.016520977020264,8.003273010253906,-3.9982035160064697
1765548937458618400,254.75261840820312,-4.039384841918945,7.972611427307129,-4.036238670349121
1765548937468567000,254.76256713867187,-4.1031174659729,7.885286808013916,-4.142115116119385
1765548937478577000,254.77257690429687,-4.124565601348877,7.855898857116699,-4.176506996154785
1765548937488586500,254.78258642578126,-4.182964324951172,7.772074222564697,-4.274114608764648
1765548937498596400,254.79259643554687,-4.201314449310303,7.744510650634766,-4.306031227111816
1765548937508575500,254.80257543945314,-4.251246929168701,7.663707733154297,-4.400552272796631
1765548937518585300,254.81258544921874,-4.268045902252197,7.636183738708496,-4.432031154632568
1765548937548614700,254.84261474609374,-4.3962225914001465,7.438408374786377,-4.638286113739014
1765548937568603600,254.86260375976562,-4.449954032897949,7.341970443725586,-4.739595890045166
1765548937578583000,254.8725830078125,-4.4611382484436035,7.319565773010254,-4.763676166534424
1765548937588562200,254.88256225585937,-4.4803924560546875,7.27677583694458,-4.810926914215088
1765548937598602500,254.8926025390625,-4.5017194747924805,7.232329368591309,-4.857812881469727
1765548937608581600,254.90258154296876,-4.538448810577393,7.162342071533203,-4.926840305328369
1765548937628570600,254.92257055664064,-4.568692207336426,7.099518299102783,-4.989420413970947
1765548937688568300,254.982568359375,-4.621380805969238,6.917454719543457,-5.192501544952393
1765548937708587800,255.002587890625,-4.6350202560424805,6.875908851623535,-5.235352039337158
1765548937718567200,255.01256713867187,-4.643218994140625,6.848818778991699,-5.263519763946533
1765548937728546300,255.02254638671874,-4.651310920715332,6.8216471672058105,-5.291585445404053
1765548937738525400,255.032525390625,-4.646014213562012,6.798335075378418,-5.326125621795654
1765548937768554800,255.0625546875,-4.614450454711914,6.792821884155273,-5.360487461090088
1765548937778564600,255.07256469726562,-4.5931220054626465,6.802429676055908,-5.3666205406188965
1765548937798553600,255.0925537109375,-4.5345940589904785,6.844168663024902,-5.3633222579956055
1765548937808533000,255.10253295898437,-4.499578475952148,6.876380920410156,-5.35159969329834
1765548937818542600,255.11254248046876,-4.44035005569458,6.944370746612549,-5.313138008117676
1765548937828522000,255.12252197265624,-4.419459819793701,6.970693111419678,-5.296056747436523
1765548937838531600,255.13253149414064,-4.349226474761963,7.074760437011719,-5.215587615966797
1765548937848541400,255.14254150390624,-4.324706077575684,7.11366081237793,-5.182966709136963
1765548937868561000,255.16256079101564,-4.191202163696289,7.357850551605225,-4.946341037750244
1765548937928619500,255.22261962890624,-3.8615241050720215,8.018402099609375,-4.118770599365234
1765548937968567000,255.26256713867187,-3.4966883659362793,8.55166244506836,-3.288255453109741
1765548937998535400,255.29253540039062,-3.13401460647583,8.936302185058594,-2.5477242469787598
1765548938068451000,255.362451171875,-2.0635714530944824,9.566140174865723,-0.6332444548606873
1765548938108459500,255.40245947265626,-1.4987971782684326,9.685774803161621,0.3313099443912506
1765548938118469400,255.41246948242187,-1.3537662029266357,9.694628715515137,0.5932181477546692
1765548938128448800,255.42244873046874,-1.2030787467956543,9.69382381439209,0.8676312565803528
1765548938138488800,255.43248876953126,-1.0502040386199951,9.682485580444336,1.1475974321365356
1765548938148468200,255.44246826171874,-0.8960556983947754,9.660938262939453,1.4261112213134766
1765548938158508500,255.45250854492187,-0.7393167614936829,9.629512786865234,1.701836109161377
1765548938168487700,255.46248779296874,-0.583937406539917,9.589592933654785,1.96700918674469
1765548938198486500,255.49248657226562,-0.15278641879558563,9.426412582397461,2.699964761734009
1765548938218414600,255.51241455078124,0.09734627604484558,9.293461799621582,3.1292965412139893
1765548938228393700,255.52239379882812,0.1586427539587021,9.25795841217041,3.2303922176361084
1765548938268402200,255.5624020996094,0.7513467669487,8.929643630981445,3.9833762645721436
1765548938288360700,255.58236059570314,1.0248744487762451,8.777213096618652,4.252126693725586
1765548938298370600,255.59237060546874,1.0902760028839111,8.7379732131958,4.316192150115967
1765548938308380400,255.60238037109374,1.2080752849578857,8.662274360656738,4.435759544372559
1765548938318390000,255.61239013671874,1.368480920791626,8.551982879638672,4.600137233734131
1765548938328400000,255.62239990234374,1.469853401184082,8.480420112609863,4.700254440307617
1765548938338409500,255.63240942382814,1.568483829498291,8.410303115844727,4.793442249298096
1765548938348419300,255.64241943359374,1.6654993295669556,8.341021537780762,4.880970478057861
1765548938358429200,255.65242919921874,1.7619634866714478,8.27127742767334,4.96506404876709
1765548938368438800,255.66243872070314,1.8556548357009888,8.202335357666016,5.044666767120361
1765548938408508400,255.70250830078126,2.180210590362549,7.934130668640137,5.335412979125977
1765548938418518300,255.71251831054687,2.2167093753814697,7.898370265960693,5.373300552368164
1765548938428527900,255.72252783203126,2.2981278896331787,7.801667213439941,5.479324817657471
1765548938438537700,255.73253784179687,2.3502726554870605,7.7299485206604,5.558281898498535
1765548938448547600,255.74254760742187,2.4130232334136963,7.641997337341309,5.652218818664551
1765548938458526700,255.75252661132814,2.4913082122802734,7.537271976470947,5.7578935623168945
1765548938468536600,255.76253662109374,2.5767600536346436,7.421845436096191,5.869148254394531
1765548938478577000,255.77257690429687,2.647961378097534,7.322303295135498,5.961758613586426
1765548938498535400,255.79253540039062,2.7782676219940186,7.12741231918335,6.136091232299805
1765548938508545000,255.802544921875,2.8268957138061523,7.051572799682617,6.2011590003967285
1765548938518555000,255.81255493164062,2.8612301349639893,6.998577117919922,6.245293617248535
1765548938528534000,255.8225339355469,2.903578519821167,6.930942535400391,6.300926685333252
1765548938538543900,255.8325439453125,2.942978858947754,6.865997791290283,6.353529930114746
1765548938548553700,255.8425537109375,2.981746196746826,6.802848815917969,6.403188228607178
1765548938558593800,255.85259375,3.020947217941284,6.7427849769592285,6.448188304901123
1765548938568603600,255.86260375976562,3.0602872371673584,6.683103084564209,6.4916229248046875
1765548938578613500,255.87261352539062,3.0963528156280518,6.627338886260986,6.531567096710205
1765548938608612400,255.9026123046875,3.205826759338379,6.4482622146606445,6.656800746917725
1765548938628601300,255.92260131835937,3.3717970848083496,6.200705528259277,6.8082780838012695
1765548938638611000,255.93261083984376,3.421159267425537,6.1393022537231445,6.839226722717285
1765548938648620800,255.94262084960937,3.47479510307312,6.056959629058838,6.885451316833496
1765548938658630700,255.95263061523437,3.5026323795318604,6.026068210601807,6.898439407348633
1765548938668609800,255.96260986328124,3.5476877689361572,5.963619709014893,6.929611682891846
1765548938678619600,255.97261962890624,3.5927889347076416,5.889120101928711,6.969972610473633
1765548938688598800,255.98259887695312,3.6259407997131348,5.84479284286499,6.990087509155273
1765548938698608600,255.99260864257812,3.659080743789673,5.800936222076416,7.0093255043029785
1765548938738586600,256.0325866699219,3.695362091064453,5.745485305786133,7.03591251373291
1765548938748596500,256.0425964355469,3.710916757583618,5.717795372009277,7.050270080566406
1765548938758606000,256.0526062011719,3.7061359882354736,5.7118048667907715,7.057636260986328
1765548938768616000,256.0626159667969,3.702420711517334,5.709290981292725,7.061620712280273
1765548938778625500,256.07262548828123,3.6764755249023438,5.737908840179443,7.051973342895508
1765548938788574500,256.08257446289065,3.648130416870117,5.772822380065918,7.038186073303223
1765548938798553600,256.0925537109375,3.616624593734741,5.8162713050842285,7.018647193908691
1765548938818542600,256.11254248046873,3.5328369140625,5.919709205627441,6.974703311920166
1765548938838531600,256.1325314941406,3.3784968852996826,6.093669891357422,6.900965690612793
1765548938848511000,256.14251098632815,3.3154428005218506,6.166134357452393,6.867096900939941
1765548938858551300,256.1525512695313,3.2533466815948486,6.242293834686279,6.827874660491943
1765548938868530400,256.16253051757815,3.190525770187378,6.324294090270996,6.781907081604004
1765548938878570800,256.1725708007813,3.1231343746185303,6.415220737457275,6.727657318115234
1765548938888580600,256.1825805664063,3.0509867668151855,6.513114929199219,6.66642427444458
1765548938898590200,256.1925900878906,2.9776201248168945,6.614750862121582,6.599184989929199
1765548938908600000,256.2026000976563,2.909438371658325,6.7159504890441895,6.5269880294799805
1765548938918609700,256.2126096191406,2.849479913711548,6.814802646636963,6.450531959533691
1765548938928589000,256.22258911132815,2.795365571975708,6.912652015686035,6.369584083557129
1765548938938599000,256.23259887695315,2.768622398376465,6.9621758460998535,6.327182292938232
1765548938948608500,256.2426083984375,2.6803462505340576,7.119839191436768,6.188217639923096
1765548938958588000,256.252587890625,2.615039348602295,7.229814529418945,6.087836265563965
1765548938968567000,256.2625671386719,2.5484933853149414,7.3413214683532715,5.981686115264893
1765548938978577000,256.2725769042969,2.4860880374908447,7.452543258666992,5.869357585906982
1765548938988586500,256.28258642578123,2.456880569458008,7.508045196533203,5.810626029968262
1765548938998596400,256.2925964355469,2.4053425788879395,7.617246150970459,5.688784599304199
1765548939008606200,256.3026062011719,2.3533482551574707,7.727538585662842,5.560332775115967
1765548939028625700,256.3226257324219,2.187472105026245,8.0104398727417,5.217107772827148
1765548939058655000,256.3526550292969,1.9516760110855103,8.307182312011719,4.832397937774658
1765548939068664800,256.3626647949219,1.796231746673584,8.479248046875,4.587622165679932
1765548939078674400,256.37267431640623,1.741479516029358,8.53840160369873,4.498149394989014
1765548939088623000,256.382623046875,1.595736026763916,8.705495834350586,4.223544120788574
1765548939098633000,256.39263305664065,1.5387451648712158,8.768071174621582,4.113826751708984
1765548939108642800,256.40264282226565,1.3670190572738647,8.942830085754395,3.785158634185791
1765548939118652400,256.41265234375,1.2768875360488892,9.022887229919434,3.623180627822876
1765548939158661000,256.4526611328125,0.4602513611316681,9.514089584350586,2.332514524459839
1765548939168670700,256.46267065429686,0.3183785676956177,9.574969291687012,2.094992160797119
1765548939178650000,256.4726501464844,0.23578502237796783,9.606712341308594,1.9559873342514038
1765548939188659700,256.48265966796873,-0.010959785431623459,9.6856689453125,1.5356076955795288
1765548939198700000,256.49269995117186,-0.1536988615989685,9.721552848815918,1.2799205780029297
1765548939228699000,256.5226989746094,-0.49137893319129944,9.778242111206055,0.5611816644668579
1765548939248718300,256.54271826171873,-0.6973580121994019,9.781319618225098,0.09945639967918396
1765548939258728200,256.5527282714844,-0.8027040362358093,9.772924423217773,-0.126679927110672
1765548939268707300,256.5627072753906,-0.9138900637626648,9.7576322555542,-0.35190731287002563
1765548939278747600,256.57274755859373,-0.9867863655090332,9.744600296020508,-0.4892714321613312
1765548939288757500,256.5827575683594,-1.1776777505874634,9.700571060180664,-0.8260589241981506
1765548939298736600,256.5927365722656,-1.2505974769592285,9.679767608642578,-0.9531386494636536
1765548939308746500,256.6027465820313,-1.3739858865737915,9.639663696289062,-1.1659557819366455
1765548939318756400,256.6127563476563,-1.5366390943527222,9.573343276977539,-1.4697779417037964
1765548939328766000,256.6227658691406,-1.636457920074463,9.523772239685059,-1.6703706979751587
1765548939348785700,256.6427856445313,-1.8236095905303955,9.41380786895752,-2.0554912090301514
1765548939358795300,256.6527951660156,-1.8718050718307495,9.38298225402832,-2.1509060859680176
1765548939368774700,256.66277465820315,-2.0124351978302,9.290681838989258,-2.4090938568115234
1765548939378753800,256.67275390625,-2.0609283447265625,9.257558822631836,-2.4941110610961914
1765548939388763600,256.682763671875,-2.1513702869415283,9.19400691986084,-2.648061513900757
1765548939398742800,256.69274267578123,-2.2685132026672363,9.103005409240723,-2.856483221054077
1765548939408722200,256.7027221679688,-2.3365683555603027,9.043641090393066,-2.9872076511383057
1765548939418701300,256.71270141601565,-2.3986129760742188,8.985325813293457,-3.1114282608032227
1765548939428680700,256.7226806640625,-2.457141876220703,8.928031921386719,-3.228485345840454
1765548939438720800,256.732720703125,-2.5156192779541016,8.871855735778809,-3.33650279045105
1765548939468719600,256.7627197265625,-2.6722190380096436,8.72634506225586,-3.588948965072632
1765548939478729500,256.7727294921875,-2.707571506500244,8.69047737121582,-3.648984432220459
1765548939488708600,256.78270849609373,-2.7344629764556885,8.660845756530762,-3.6990342140197754
1765548939498718500,256.7927185058594,-2.746669054031372,8.646909713745117,-3.7225215435028076
1765548939508728000,256.80272802734373,-2.7685506343841553,8.624236106872559,-3.75873064994812
1765548939518768400,256.81276831054686,-2.8027169704437256,8.600356101989746,-3.788011312484741
1765548939528747800,256.8227478027344,-2.814410448074341,8.594253540039062,-3.7931947708129883
1765548939538788000,256.8327880859375,-2.834536552429199,8.594573974609375,-3.7774453163146973
1765548939568817400,256.8628173828125,-2.81917667388916,8.648409843444824,-3.664376735687256
1765548939578827000,256.87282690429686,-2.814081907272339,8.6614990234375,-3.637279987335205
1765548939588867300,256.88286743164065,-2.807617664337158,8.70606517791748,-3.5344133377075195
1765548939598877200,256.89287719726565,-2.8073809146881104,8.721467971801758,-3.496422290802002
1765548939608856300,256.90285620117186,-2.79984712600708,8.777085304260254,-3.360664129257202
1765548939618866200,256.9128662109375,-2.785346269607544,8.820564270019531,-3.257283926010132
1765548939628845300,256.92284521484373,-2.7607173919677734,8.868825912475586,-3.1452693939208984
1765548939638855200,256.9328552246094,-2.7279648780822754,8.920707702636719,-3.0248310565948486
1765548939668884500,256.9628845214844,-2.609201669692993,9.083290100097656,-2.6184492111206055
1765548939678924800,256.9729248046875,-2.58413028717041,9.111271858215332,-2.5450761318206787
1765548939688934400,256.98293432617186,-2.4803292751312256,9.202523231506348,-2.3090946674346924
1765548939698944300,256.9929443359375,-2.446103811264038,9.230960845947266,-2.2307732105255127
1765548939708923400,257.00292333984373,-2.313002347946167,9.322955131530762,-1.9755805730819702
1765548939718902800,257.0129028320313,-2.2662954330444336,9.352551460266113,-1.887877106666565
1765548939728851500,257.0228515625,-2.122335195541382,9.439387321472168,-1.6012661457061768
1765548939748932000,257.0429321289063,-1.9286072254180908,9.54194450378418,-1.184136986732483
1765548939778961400,257.0729614257813,-1.614717721939087,9.658498764038086,-0.5258089900016785
1765548939788940500,257.0829404296875,-1.502219557762146,9.686108589172363,-0.3050049841403961
1765548939798950400,257.09295043945315,-1.4513912200927734,9.696512222290039,-0.20381255447864532
1765548939808899000,257.1028991699219,-1.2762147188186646,9.722356796264648,0.13224399089813232
1765548939818909000,257.1129089355469,-1.2371306419372559,9.726049423217773,0.20945875346660614
1765548939828949200,257.12294921875,-1.0763444900512695,9.733384132385254,0.5226356387138367
1765548939838989300,257.1329892578125,-0.9962258338928223,9.73216438293457,0.6803922653198242
1765548939848999200,257.14299926757815,-0.8973977565765381,9.726479530334473,0.8721458315849304
1765548939889007600,257.18300756835936,-0.4604688286781311,9.628463745117188,1.8030717372894287
1765548939899017500,257.193017578125,-0.40308454632759094,9.607983589172363,1.9221278429031372
1765548939909027300,257.20302734375,-0.2853437066078186,9.562748908996582,2.1547131538391113
1765548939919006500,257.21300634765623,-0.12171967327594757,9.48476791381836,2.4889280796051025
1765548939929016300,257.2230163574219,-0.02376139909029007,9.42714786529541,2.7016141414642334
1765548939939026000,257.23302587890623,0.024127895012497902,9.396689414978027,2.8057191371917725
1765548939949005300,257.2430053710938,0.15171031653881073,9.30288314819336,3.0989902019500732
1765548939959045600,257.2530456542969,0.15270107984542847,9.302461624145508,3.100205898284912
1765548939979095600,257.27309545898436,0.3398550748825073,9.133284568786621,3.554999589920044
1765548939989105400,257.28310546875,0.406916081905365,9.064048767089844,3.7212674617767334
1765548939999084500,257.29308447265623,0.4738152027130127,8.994451522827148,3.878885507583618
1765548940009033500,257.30303344726565,0.5411825180053711,8.925890922546387,4.025664806365967
1765548940019012600,257.3130126953125,0.640138566493988,8.829511642456055,4.219044208526611
1765548940029022500,257.3230224609375,0.7068185210227966,8.769319534301758,4.332420349121094
1765548940039032000,257.33303198242186,0.7418079972267151,8.739167213439941,4.387149810791016
1765548940049042000,257.3430419921875,0.8075281381607056,8.687198638916016,4.477819919586182
1765548940059051800,257.3530517578125,0.8941741585731506,8.620441436767578,4.588992118835449
1765548940089050400,257.38305029296873,1.019652247428894,8.520303726196289,4.747119903564453
1765548940099060200,257.3930603027344,1.0761767625808716,8.468196868896484,4.827201843261719
1765548940109070000,257.4030700683594,1.109601378440857,8.434072494506836,4.879098892211914
1765548940119079700,257.41307958984373,1.1275445222854614,8.41571044921875,4.906613826751709
1765548940129059000,257.4230590820313,1.1687188148498535,8.370881080627441,4.9732136726379395
1765548940139068700,257.4330686035156,1.1974884271621704,8.339079856872559,5.019578456878662
1765548940149017600,257.443017578125,1.2250170707702637,8.307648658752441,5.064848899841309
1765548940159057700,257.4530576171875,1.2439298629760742,8.286547660827637,5.094720363616943
1765548940169067500,257.46306762695315,1.2689193487167358,8.245177268981934,5.15531587600708
1765548940219116300,257.5131162109375,1.3261317014694214,8.117069244384766,5.340874671936035
1765548940229095700,257.523095703125,1.3492285013198853,8.093307495117188,5.371067523956299
1765548940239105300,257.53310522460936,1.3750065565109253,8.07222843170166,5.396191596984863
1765548940249115100,257.543115234375,1.396266222000122,8.053092956542969,5.419273853302002
1765548940259125000,257.553125,1.4270102977752686,8.031330108642578,5.443508625030518
1765548940269134600,257.56313452148436,1.451596975326538,8.015347480773926,5.460536479949951
1765548940279114000,257.5731140136719,1.4818214178085327,7.996906280517578,5.479424476623535
1765548940309082000,257.60308203125,1.6316115856170654,7.918270111083984,5.550607204437256
1765548940319122400,257.6131223144531,1.6937100887298584,7.886394023895264,5.577324390411377
1765548940329101800,257.62310180664065,1.7468740940093994,7.846126079559326,5.617573261260986
1765548940339111400,257.633111328125,1.7915472984313965,7.814218521118164,5.647898197174072
1765548940349090800,257.6430908203125,1.8322768211364746,7.7865495681762695,5.672989845275879
1765548940359100400,257.65310034179686,1.8686761856079102,7.760956287384033,5.696139812469482
1765548940369079800,257.6630798339844,1.900270700454712,7.741240978240967,5.712491512298584
1765548940389099300,257.6830993652344,1.9890947341918945,7.6773200035095215,5.768246650695801
1765548940409088300,257.7030881347656,2.055976390838623,7.6397504806518555,5.794616222381592
1765548940419098000,257.7130981445313,2.0819482803344727,7.622663974761963,5.8078293800354
1765548940429077200,257.7230771484375,2.0633656978607178,7.649931907653809,5.778534412384033
1765548940439087000,257.73308715820315,2.0450189113616943,7.673634052276611,5.753577709197998
1765548940449097000,257.74309692382815,2.0213124752044678,7.701774597167969,5.72428035736084
1765548940459076000,257.753076171875,1.9945622682571411,7.7358808517456055,5.687553405761719
1765548940469055200,257.76305517578123,1.9834026098251343,7.752121925354004,5.669312953948975
1765548940479095600,257.77309545898436,1.9287405014038086,7.826104164123535,5.585915565490723
1765548940489105400,257.78310546875,1.911428689956665,7.849593639373779,5.558841705322266
1765548940529083400,257.8230834960938,1.710208773612976,8.079131126403809,5.288972854614258
1765548940539093200,257.8330932617188,1.6563187837600708,8.13796329498291,5.215416431427002
1765548940549102800,257.8431027832031,1.6060901880264282,8.195405960083008,5.1406402587890625
1765548940559082200,257.85308227539065,1.533013939857483,8.283946990966797,5.0196075439453125
1765548940569061400,257.86306127929686,1.48048996925354,8.345616340637207,4.932469844818115
1765548940579071200,257.8730712890625,1.4532442092895508,8.377323150634766,4.886609077453613
1765548940589050400,257.88305029296873,1.3635574579238892,8.47569751739502,4.740638256072998
1765548940619079700,257.91307958984373,1.216326355934143,8.633428573608398,4.489414691925049
1765548940629028600,257.92302856445315,1.1577274799346924,8.693815231323242,4.387214660644531
1765548940639038200,257.9330380859375,1.097931981086731,8.754005432128906,4.281628131866455
1765548940649017600,257.943017578125,1.0334364175796509,8.815679550170898,4.169678688049316
1765548940659027200,257.95302709960936,0.9572609663009644,8.880227088928223,4.049152851104736
1765548940669037000,257.963037109375,0.8653045892715454,8.947096824645996,3.920597553253174
1765548940679047000,257.973046875,0.7608739137649536,9.014747619628906,3.7849373817443848
1765548940689026000,257.9830261230469,0.5996212959289551,9.112980842590332,3.572737455368042
1765548940719025000,258.0130249023438,0.28639644384384155,9.295727729797363,3.1109211444854736
1765548940728943000,258.0229431152344,0.17843525111675262,9.354700088500977,2.937371015548706
1765548940738922200,258.0329221191406,0.11251403391361237,9.387757301330566,2.833326816558838
1765548940748932000,258.0429321289063,-0.03377426043152809,9.450895309448242,2.617222785949707
1765548940758911200,258.0529111328125,-0.28885260224342346,9.535259246826172,2.2728352546691895
1765548940768890600,258.062890625,-0.4587707817554474,9.57406234741211,2.072974681854248
1765548940778900200,258.07290014648436,-0.7108359336853027,9.624218940734863,1.7434279918670654
1765548940788849200,258.0828491210938,-0.8078057765960693,9.639008522033691,1.6147300004959106
1765548940798858800,258.0928586425781,-0.9935328960418701,9.665489196777344,1.3272583484649658
1765548940838806300,258.13280615234373,-1.4718652963638306,9.680883407592773,0.5333841443061829
1765548940848816000,258.1428161621094,-1.6131535768508911,9.668166160583496,0.3077557384967804
1765548940858825700,258.15282568359373,-1.8208225965499878,9.636117935180664,-0.01655716821551323
1765548940868835600,258.1628356933594,-1.9647002220153809,9.604789733886719,-0.24159079790115356
1765548940878745300,258.1727453613281,-2.109229803085327,9.565630912780762,-0.4693056046962738
1765548940888724700,258.18272485351565,-2.20508074760437,9.536004066467285,-0.6104749441146851
1765548940898704000,258.19270385742186,-2.402146577835083,9.46085262298584,-0.9446554780006409
1765548940908713700,258.20271362304686,-2.476221799850464,9.427902221679688,-1.0739771127700806
1765548940928641500,258.2226416015625,-2.748067855834961,9.274145126342773,-1.6151745319366455
1765548940938681900,258.2326818847656,-2.8008482456207275,9.238351821899414,-1.7258388996124268
1765548940948691700,258.2426916503906,-2.9019782543182373,9.165263175964355,-1.935684323310852
1765548940958701300,258.2527014160156,-3.0601696968078613,9.043144226074219,-2.242166042327881
1765548940968711200,258.2627111816406,-3.1650235652923584,8.954338073730469,-2.4439501762390137
1765548940988639200,258.28263916015624,-3.3166089057922363,8.811985969543457,-2.742152690887451
1765548940998648800,258.29264892578124,-3.4461746215820312,8.66956901550293,-3.0220634937286377
1765548941028678100,258.32267822265624,-3.6628434658050537,8.385783195495605,-3.5260000228881836
1765548941038657500,258.3326574707031,-3.7196712493896484,8.29734992980957,-3.672658920288086
1765548941048697900,258.34269775390624,-3.74594783782959,8.253259658813477,-3.74459171295166
1765548941058677000,258.3526770019531,-3.797887086868286,8.1369047164917,-3.941728115081787
1765548941078696400,258.3726965332031,-3.862529993057251,7.9882073402404785,-4.176097393035889
1765548941088675800,258.38267578125,-3.9061155319213867,7.913452625274658,-4.27667236328125
1765548941098655000,258.39265502929686,-3.9303982257843018,7.875368595123291,-4.324457168579102
1765548941108664800,258.40266479492186,-3.9788434505462646,7.806643009185791,-4.404036521911621
1765548941138694100,258.43269409179686,-4.03205680847168,7.688633441925049,-4.560469627380371
1765548941148673300,258.44267333984374,-4.032636642456055,7.679430961608887,-4.5754289627075195
1765548941158713600,258.45271362304686,-4.034154891967773,7.666773319244385,-4.59527587890625
1765548941168723500,258.46272338867186,-4.038589954376221,7.666659355163574,-4.591574192047119
1765548941198691600,258.4926916503906,-4.044600009918213,7.727019309997559,-4.483834266662598
1765548941208701400,258.5027014160156,-4.040084362030029,7.768063545227051,-4.4164838790893555
1765548941218711300,258.5127111816406,-4.037804126739502,7.790455341339111,-4.378962993621826
1765548941248679400,258.54267944335936,-4.015769004821777,7.996469974517822,-4.012538433074951
1765548941258658800,258.5526589355469,-3.9966228008270264,8.069112777709961,-3.884183168411255
1765548941268668400,258.56266845703124,-3.9652259349823,8.149077415466309,-3.7469894886016846
1765548941288657400,258.5826574707031,-3.896005630493164,8.278473854064941,-3.5296478271484375
1765548941298636800,258.59263671875,-3.800682306289673,8.415651321411133,-3.3018157482147217
1765548941308616000,258.60261596679686,-3.767103433609009,8.460766792297363,-3.2240922451019287
1765548941318656300,258.61265625,-3.6611814498901367,8.59697437286377,-2.976271867752075
1765548941338614800,258.63261474609374,-3.4949734210968018,8.78105640411377,-2.61698842048645
1765548941348594000,258.6425939941406,-3.3935446739196777,8.875791549682617,-2.4237592220306396
1765548941358573300,258.6525732421875,-3.3406641483306885,8.921859741210938,-2.3261101245880127
1765548941368552400,258.66255249023436,-3.224825382232666,9.014935493469238,-2.1217563152313232
1765548941378562300,258.67256225585936,-3.1049153804779053,9.10367488861084,-1.911281943321228
1765548941388572200,258.682572265625,-2.984645366668701,9.18601131439209,-1.6969023942947388
1765548941398551300,258.69255126953124,-2.7972517013549805,9.298975944519043,-1.3692349195480347
1765548941418540300,258.7125402832031,-2.621077537536621,9.391019821166992,-1.053146243095398
1765548941428550100,258.7225500488281,-2.504927158355713,9.443746566772461,-0.8434385061264038
1765548941468528000,258.76252807617186,-2.01320743560791,9.597417831420898,-0.08356968313455582
1765548941478538000,258.7725380859375,-1.9089643955230713,9.618964195251465,0.042517539113759995
1765548941488486700,258.7824865722656,-1.89822256565094,9.621071815490723,0.04652940481901169
1765548941498527000,258.79252685546874,-1.7774872779846191,9.641840934753418,0.21410247683525085
1765548941508536600,258.80253662109374,-1.5725083351135254,9.666253089904785,0.5110781788825989
1765548941518516000,258.8125158691406,-1.4393839836120605,9.674290657043457,0.711824357509613
1765548941528495000,258.8224951171875,-1.4404864311218262,9.674569129943848,0.7057631611824036
1765548941558432800,258.8524328613281,-0.9649837017059326,9.64901351928711,1.4614213705062866
1765548941568412200,258.862412109375,-0.8332312703132629,9.625960350036621,1.678393006324768
1765548941578391300,258.87239135742186,-0.6505313515663147,9.580493927001953,1.990319013595581
1765548941588431600,258.882431640625,-0.5916039943695068,9.56266975402832,2.0918259620666504
1765548941598441500,258.89244140625,-0.43666476011276245,9.505645751953125,2.3711631298065186
1765548941608420600,258.90242065429686,-0.33914896845817566,9.463894844055176,2.5475592613220215
1765548941618400000,258.91239990234374,-0.2898644208908081,9.441380500793457,2.6356678009033203
1765548941628379100,258.9223791503906,-0.19250936806201935,9.396958351135254,2.798309564590454
1765548941638389000,258.9323889160156,-0.030990181490778923,9.328841209411621,3.023601531982422
1765548941668387800,258.96238793945315,0.2816360890865326,9.179609298706055,3.4388742446899414
1765548941678397400,258.9723974609375,0.3259633183479309,9.153265953063965,3.5045509338378906
1765548941688315600,258.9823156738281,0.43297114968299866,9.07950210571289,3.6804299354553223
1765548941698325500,258.9923254394531,0.46825289726257324,9.05427360534668,3.737816572189331
1765548941708335000,259.0023352050781,0.5727022886276245,8.985955238342285,3.88523006439209
1765548941718314500,259.012314453125,0.610016405582428,8.962822914123535,3.932697057723999
1765548941728263200,259.02226318359374,0.7141758799552917,8.902982711791992,4.049351215362549
1765548941738242600,259.0322426757813,0.7502309083938599,8.882501602172852,4.087629795074463
1765548941768272000,259.0622719726563,0.9086170792579651,8.777043342590332,4.27882194519043
1765548941778281500,259.0722814941406,0.9596890807151794,8.741369247436523,4.340259075164795
1765548941788260900,259.0822607421875,1.0332739353179932,8.688578605651855,4.428470611572266
1765548941798240000,259.09223999023436,1.080467700958252,8.65224838256836,4.487939357757568
1765548941808219100,259.10221923828124,1.1237696409225464,8.616316795349121,4.546055793762207
1765548941818229000,259.11222900390624,1.1499491930007935,8.594223976135254,4.581189155578613
1765548941828238800,259.12223876953124,1.1943086385726929,8.548093795776367,4.65554666519165
1765548941838218000,259.1322180175781,1.2165133953094482,8.526880264282227,4.688581466674805
1765548941848197400,259.142197265625,1.251530408859253,8.493377685546875,4.739896774291992
1765548941868247300,259.1622473144531,1.38723886013031,8.389744758605957,4.884481430053711
1765548941878226700,259.17222680664065,1.4510340690612793,8.342307090759277,4.94679594039917
1765548941888205800,259.18220581054686,1.511149287223816,8.293257713317871,5.010860919952393
