time,seconds_elapsed,z,y,x
1766400167866062300,-0.513937744140625,-0.05375614017248154,-0.01710422709584236,0.1417207419872284
1766400167906101200,-0.473898681640625,0.004886921960860491,0.021991148591041565,-0.05253441259264946
1766400167916111000,-0.463888916015625,0.015882495790719986,0.021991148591041565,-0.0659734457731247
1766400167926121000,-0.453879150390625,0.01466076634824276,0.010995574295520782,-0.02321287989616394
1766400167936130600,-0.443869384765625,0.010995574295520782,0.0012217304902151227,0.015882495790719986
1766400167946140400,-0.433859619140625,0.0012217304902151227,-0.006108652334660292,0.013439035043120384
1766400167956150300,-0.423849609375,-0.0024434609804302454,-0.012217304669320583,-0.006108652334660292
1766400167966160000,-0.413840087890625,-0.006108652334660292,-0.01710422709584236,0.009773843921720982
1766400167976169700,-0.403830322265625,-0.012217304669320583,-0.010995574295520782,0.01466076634824276
1766400168006199000,-0.373801025390625,0.009773843921720982,0.004886921960860491,-0.028099801391363144
1766400168016209000,-0.363791015625,0.01466076634824276,0.00855211354792118,-0.03176499158143997
1766400168026218500,-0.353781494140625,0.015882495790719986,0.0024434609804302454,-0.015882495790719986
1766400168036228400,-0.343771728515625,0.01466076634824276,0.0024434609804302454,0.0012217304902151227
1766400168046268700,-0.3337314453125,0.019547687843441963,-0.004886921960860491,0.010995574295520782
1766400168056278300,-0.3237216796875,0.013439035043120384,-0.010995574295520782,0.03787364438176155
1766400168066318600,-0.313681396484375,0.00733038317412138,-0.013439035043120384,0.03420845419168472
1766400168076328400,-0.303671630859375,-0.006108652334660292,-0.009773843921720982,0.019547687843441963
1766400168096348000,-0.283652099609375,-0.0024434609804302454,-0.013439035043120384,-0.0024434609804302454
1766400168116367400,-0.263632568359375,0.00366519158706069,0.0024434609804302454,0.00366519158706069
1766400168126377200,-0.253622802734375,0.00855211354792118,0.00366519158706069,-0.006108652334660292
1766400168136387000,-0.243613037109375,0.012217304669320583,0.00366519158706069,-0.010995574295520782
1766400168146427400,-0.233572509765625,0.00733038317412138,0,0.0024434609804302454
1766400168156437000,-0.22356298828125,0,-0.00366519158706069,0.01710422709584236
1766400168166446800,-0.21355322265625,-0.0024434609804302454,-0.00733038317412138,0.019547687843441963
1766400168186466300,-0.19353369140625,-0.004886921960860491,-0.0012217304902151227,0.03420845419168472
1766400168196476200,-0.18352392578125,-0.006108652334660292,0.004886921960860491,0.010995574295520782
1766400168236576300,-0.143423828125,0.00366519158706069,0.018325956538319588,-0.0012217304902151227
1766400168246586000,-0.133413818359375,0.019547687843441963,0.01466076634824276,-0.02687807008624077
1766400168256595700,-0.123404296875,0.030543262138962746,0.012217304669320583,-0.015882495790719986
1766400168266605600,-0.11339453125,0.02932153269648552,0.00855211354792118,0
1766400168276615200,-0.103384765625,0.03176499158143997,0.013439035043120384,-0.00366519158706069
1766400168366825200,-0.0131748046875,-0.010995574295520782,-0.013439035043120384,-0.02687807008624077
1766400168376835000,-0.0031650390625,-0.00366519158706069,-0.00855211354792118,-0.021991148591041565
1766400168386875400,0.00687548828125,-0.009773843921720982,-0.006108652334660292,-0.019547687843441963
1766400168397915600,0.01791552734375,-0.0024434609804302454,-0.009773843921720982,-0.012217304669320583
1766400168418026800,0.03802685546875,0.02076941914856434,-0.006108652334660292,0.004886921960860491
1766400168468136400,0.088136474609375,-0.0012217304902151227,0.018325956538319588,0.02076941914856434
1766400168488186600,0.1081865234375,0.00366519158706069,0.006108652334660292,-0.0024434609804302454
1766400168498196200,0.1181962890625,0.0024434609804302454,0.0024434609804302454,-0.004886921960860491
1766400168508236500,0.128236572265625,0.004886921960860491,0.00366519158706069,-0.006108652334660292
1766400168518246400,0.138246337890625,0.009773843921720982,0.006108652334660292,0.00366519158706069
1766400168528286700,0.14828662109375,0.00366519158706069,0.00733038317412138,0.012217304669320583
1766400168538327000,0.1583271484375,0.0012217304902151227,0.0024434609804302454,0.028099801391363144
1766400168558346500,0.178346435546875,0.013439035043120384,-0.00366519158706069,0.015882495790719986
1766400168578427100,0.19842724609375,0.00733038317412138,0.009773843921720982,0.012217304669320583
1766400168588436700,0.208436767578125,-0.0012217304902151227,0.019547687843441963,0.0012217304902151227
1766400168598446600,0.218446533203125,-0.0012217304902151227,0.019547687843441963,0.0012217304902151227
1766400168608487000,0.22848681640625,0.006108652334660292,0.01710422709584236,-0.024434609338641167
1766400168618496500,0.23849658203125,0.013439035043120384,0.0024434609804302454,-0.013439035043120384
1766400168628536800,0.248536865234375,0.013439035043120384,0.0024434609804302454,-0.013439035043120384
1766400168638546700,0.258546630859375,0.009773843921720982,0.0024434609804302454,-0.01710422709584236
1766400168648556500,0.268556640625,0.00366519158706069,0.009773843921720982,-0.024434609338641167
1766400168678585900,0.2985859375,0.00855211354792118,0.009773843921720982,0.0354301854968071
1766400168688656600,0.30865673828125,0.00855211354792118,0.012217304669320583,0.03176499158143997
1766400168698666200,0.318666259765625,-0.00366519158706069,0.00855211354792118,0.012217304669320583
1766400168708676000,0.328676025390625,-0.01466076634824276,0.00366519158706069,0.009773843921720982
1766400168718686000,0.33868603515625,-0.012217304669320583,0,0.01466076634824276
1766400168728695600,0.348695556640625,-0.004886921960860491,0,0.012217304669320583
1766400168738705400,0.358705322265625,0.0024434609804302454,0.0012217304902151227,0.010995574295520782
1766400168748745700,0.368745849609375,0.004886921960860491,0.004886921960860491,0.019547687843441963
1766400168778805500,0.398805419921875,-0.009773843921720982,0.012217304669320583,-0.0012217304902151227
1766400168788815400,0.4088154296875,-0.00855211354792118,0.015882495790719986,0.004886921960860491
1766400168798855400,0.41885546875,-0.004886921960860491,0.015882495790719986,0.00855211354792118
1766400168808865300,0.428865234375,0.006108652334660292,0.01710422709584236,0.004886921960860491
1766400168818875100,0.438875244140625,0.01710422709584236,0.018325956538319588,0.006108652334660292
1766400168828915500,0.44891552734375,0.018325956538319588,0.021991148591041565,0.00733038317412138
1766400168838925000,0.458925048828125,0.013439035043120384,0.028099801391363144,-0.012217304669320583
1766400168848935000,0.468934814453125,0.015882495790719986,0.03298672288656235,-0.05497787147760391
1766400168859005700,0.479005615234375,0.018325956538319588,0.04153883829712868,-0.10262536257505417
1766400168889035000,0.509034912109375,0.006108652334660292,0.07208210229873657,-0.2272418737411499
1766400168899014100,0.51901416015625,0.03176499158143997,0.0659734457731247,-0.2541199326515198
1766400168909054500,0.529054443359375,0.08185594528913498,0.06963863968849182,-0.304210901260376
1766400168919064300,0.539064208984375,0.12950342893600464,0.07696902006864548,-0.3701843321323395
1766400168929104600,0.549104736328125,-0.07452555745840073,0.01466076634824276,-0.5021312236785889
1766400168939083800,0.559083740234375,0.07819075137376785,-0.14905111491680145,-0.6707300543785095
1766400168949124000,0.5691240234375,0.3078760802745819,-0.24190263450145721,-0.6805039048194885
1766400168969204700,0.589204833984375,0.5656611919403076,-0.28955012559890747,-0.9761626720428467
1766400168979214300,0.59921435546875,0.6866125464439392,-0.3677408695220947,-1.19607412815094
1766400168989254700,0.609254638671875,0.8588765263557434,-0.46792277693748474,-1.4086552858352661
1766400168999264500,0.619264404296875,1.0555751323699951,-0.5876523852348328,-1.7006487846374512
1766400169019314400,0.639314453125,1.4966198205947876,-0.9248499870300293,-2.5705208778381348
1766400169029324300,0.64932421875,1.703092336654663,-1.1191051006317139,-3.21559476852417
1766400169039334100,0.659334228515625,1.9181169271469116,-1.292590856552124,-3.930306911468506
1766400169049374200,0.669374267578125,2.138028383255005,-1.4856243133544922,-4.64501953125
1766400169059384000,0.679384033203125,2.2846360206604004,-1.7067575454711914,-5.27665376663208
1766400169079434200,0.699434326171875,2.437352418899536,-2.129476308822632,-6.134308815002441
1766400169089443800,0.70944384765625,2.4556782245635986,-2.3469443321228027,-6.398202419281006
1766400169099423200,0.71942333984375,2.4275784492492676,-2.5424211025238037,-6.624222755432129
1766400169109463600,0.729463623046875,2.3383922576904297,-2.691472291946411,-6.792821407318115
1766400169119473200,0.73947314453125,2.2455406188964844,-2.833193063735962,-6.884451389312744
1766400169129483000,0.74948291015625,2.1306979656219482,-2.9529225826263428,-6.882008075714111
1766400169139462100,0.759462158203125,2.0060815811157227,-3.0750956535339355,-6.7598347663879395
1766400169149533000,0.769532958984375,1.909564733505249,-3.1789426803588867,-6.585127353668213
1766400169159542800,0.779542724609375,1.8545868396759033,-3.2754595279693604,-6.453180313110352
1766400169229641700,0.849641845703125,0.9162978529930115,-2.5607471466064453,-5.83498477935791
1766400169239651300,0.8596513671875,0.8087855577468872,-2.326174736022949,-5.371949195861816
1766400169249661200,0.8696611328125,0.6511823534965515,-2.052507162094116,-4.840496063232422
1766400169259671000,0.879671142578125,0.4740314185619354,-1.793500304222107,-4.263839244842529
1766400169269680600,0.8896806640625,0.3701843321323395,-1.5540411472320557,-3.6468656063079834
1766400169289730800,0.909730712890625,0.1466076523065567,-1.1691961288452148,-2.5949554443359375
1766400169299740400,0.919740478515625,0.02687807008624077,-0.9896016716957092,-2.20278000831604
1766400169309811500,0.9298115234375,-0.06841690838336945,-0.807563841342926,-1.8692476749420166
1766400169319821000,0.939821044921875,-0.12950342893600464,-0.6291912198066711,-1.5418238639831543
1766400169329861400,0.949861328125,-0.12950342893600464,-0.6291912198066711,-1.5418238639831543
1766400169339871200,0.959871337890625,-0.15393804013729095,-0.4801400899887085,-1.2767083644866943
1766400169349942000,0.96994189453125,-0.16249015927314758,-0.3274237811565399,-1.0922271013259888
1766400169359951600,0.97995166015625,-0.18448130786418915,-0.15271630883216858,-0.9529497623443604
1766400169380001800,1.000001708984375,-0.18936823308467865,0.1612684279680252,-0.7354817390441895
1766400169440091000,1.0600908203125,-0.2919935882091522,0.5766568183898926,-0.6951646208763123
1766400169490170000,1.110170166015625,-0.4508185386657715,0.4593706727027893,-0.513126790523529
1766400169540219100,1.16021923828125,-0.6120869517326355,0.47769662737846375,-0.03420845419168472
1766400169600399600,1.220399658203125,-0.5864306092262268,0.42638394236564636,-0.05497787147760391
1766400169660550000,1.2805498046875,-0.49846604466438293,0.2736676335334778,0.08796459436416626
1766400169670590200,1.290590087890625,-0.4153883755207062,0.2174680233001709,0.0012217304902151227
1766400169680599800,1.300599853515625,-0.3481931984424591,0.2064724564552307,-0.13439035415649414
1766400169690609700,1.310609619140625,-0.2932153046131134,0.18570303916931152,-0.1417207419872284
1766400169700619500,1.32061962890625,-0.23335053026676178,0.16859880089759827,-0.14294247329235077
1766400169710659800,1.330659912109375,-0.18936823308467865,0.17104226350784302,-0.24068090319633484
1766400169740719600,1.3607197265625,-0.13439035415649414,0.18081611394882202,-0.16371189057826996
1766400169750760000,1.370760009765625,-0.06719517707824707,0.16859880089759827,-0.11728613078594208
1766400169780819700,1.40081982421875,0.14782938361167908,0.11362093687057495,-0.04398229718208313
1766400169790829300,1.410829345703125,0.21502456068992615,0.10262536257505417,-0.1062905490398407
1766400169800869600,1.42086962890625,0.2321287989616394,0.10995574295520782,-0.19425514340400696
1766400169810940400,1.4309404296875,0.22968533635139465,0.10751228034496307,-0.21380282938480377
1766400169820950300,1.4409501953125,0.22479841113090515,0.09651670604944229,-0.22113321721553802
1766400169841061400,1.461061279296875,0.16493362188339233,0.0757472887635231,-0.19058994948863983
1766400169851101700,1.471101806640625,0.14416420459747314,0.06841690838336945,-0.1160643994808197
1766400169861142000,1.48114208984375,0.11972958594560623,0.06108652427792549,-0.02932153269648552
1766400169871182000,1.49118212890625,0.10751228034496307,0.051312681287527084,0.0354301854968071
1766400169881192000,1.50119189453125,0.09773843735456467,0.025656340643763542,0.05253441259264946
1766400169891201800,1.511201904296875,0.1111774742603302,-0.0012217304902151227,0.013439035043120384
1766400169901242000,1.5212421875,0.1062905490398407,-0.00733038317412138,-0.04886921867728233
1766400169911251700,1.531251708984375,0.1014036312699318,-0.010995574295520782,-0.042760565876960754
1766400169921261600,1.541261474609375,0.09651670604944229,-0.015882495790719986,-0.03176499158143997
1766400169931332400,1.551332275390625,0.0806342139840126,-0.009773843921720982,-0.05253441259264946
1766400169941311500,1.5613115234375,0.0708603709936142,-0.004886921960860491,-0.059864792972803116
1766400169951351800,1.571351806640625,0.04764748737215996,0.004886921960860491,-0.04398229718208313
1766400169961361700,1.581361572265625,0.02687807008624077,0.02321287989616394,0.006108652334660292
1766400169971371300,1.591371337890625,0.009773843921720982,0.0403171069920063,0.045204028487205505
1766400169981442300,1.6014423828125,0.012217304669320583,0.045204028487205505,0.04764748737215996
1766400169991482400,1.611482421875,0.021991148591041565,0.04886921867728233,0.024434609338641167
1766400170001492200,1.6214921875,0.028099801391363144,0.042760565876960754,-0.0012217304902151227
1766400170011502000,1.631502197265625,0.030543262138962746,0.0354301854968071,-0.013439035043120384
1766400170021542400,1.64154248046875,0.03176499158143997,0.03298672288656235,-0.006108652334660292
1766400170051632600,1.671632568359375,0.0403171069920063,0.06719517707824707,-0.00855211354792118
1766400170061642500,1.681642578125,0.02687807008624077,0.0708603709936142,0.010995574295520782
1766400170071713300,1.69171337890625,0.028099801391363144,0.06108652427792549,0.030543262138962746
1766400170081723000,1.701722900390625,0.02932153269648552,0.05742133408784866,-0.01466076634824276
1766400170091732700,1.711732666015625,0.042760565876960754,0.05375614017248154,-0.05253441259264946
1766400170101742600,1.72174267578125,0.042760565876960754,0.05375614017248154,-0.05253441259264946
1766400170111782700,1.73178271484375,0.05619960278272629,0.05375614017248154,-0.05864306539297104
1766400170121792500,1.74179248046875,0.0708603709936142,0.05497787147760391,-0.0354301854968071
1766400170141873200,1.761873046875,0.0659734457731247,0.0659734457731247,-0.02687807008624077
1766400170171963400,1.79196337890625,0.045204028487205505,0.11362093687057495,0.09529497474431992
1766400170182003700,1.802003662109375,0.04153883829712868,0.11972958594560623,0.1160643994808197
1766400170192013600,1.812013671875,0.05497787147760391,0.1270599663257599,0.09896016865968704
1766400170202023200,1.822023193359375,0.05497787147760391,0.13805554807186127,0.08674286305904388
1766400170212094000,1.832093994140625,0.051312681287527084,0.13927727937698364,0.10262536257505417
1766400170222103800,1.842103759765625,0.05619960278272629,0.13072516024112701,0.10751228034496307
1766400170242154000,1.862154052734375,0.04642575979232788,0.12461651116609573,0.10506882518529892
1766400170252194000,1.872194091796875,0.0354301854968071,0.12828169763088226,0.18814650177955627
1766400170262204000,1.882203857421875,0.02687807008624077,0.14049901068210602,0.28588494658470154
1766400170272213800,1.8922138671875,0.01466076634824276,0.15393804013729095,0.39706242084503174
1766400170282254000,1.902254150390625,-0.004886921960860491,0.16004669666290283,0.5094616413116455
1766400170292263700,1.912263671875,-0.021991148591041565,0.15515977144241333,0.4996877610683441
1766400170302334500,1.92233447265625,-0.01710422709584236,0.1466076523065567,0.3579670190811157
1766400170312374800,1.932374755859375,-0.00366519158706069,0.1368338167667389,0.16737708449363708
1766400170322354200,1.942354248046875,0.02687807008624077,0.11362093687057495,0.009773843921720982
1766400170352444400,1.9724443359375,0.06352998316287994,0.1111774742603302,0.05375614017248154
1766400170362454300,1.982454345703125,0.0708603709936142,0.10384709388017654,0.11362093687057495
1766400170372494300,1.992494384765625,0.07941248267889023,0.08918632566928864,0.10873401165008545
1766400170382504200,2.002504150390625,0.07941248267889023,0.06719517707824707,0.059864792972803116
1766400170392544500,2.01254443359375,0.08307767659425735,0.04642575979232788,0.00733038317412138
1766400170402584800,2.022584716796875,0.08918632566928864,0.03176499158143997,-0.03176499158143997
1766400170412594400,2.032594482421875,0.09040805697441101,0.012217304669320583,-0.06108652427792549
1766400170422604300,2.042604248046875,0.09040805697441101,-0.006108652334660292,-0.08185594528913498
1766400170432614100,2.0526142578125,0.09040805697441101,-0.019547687843441963,-0.07819075137376785
1766400170452633600,2.072633544921875,0.08796459436416626,-0.06841690838336945,-0.05009094998240471
1766400170472714200,2.09271435546875,0.08307767659425735,-0.10018189996480942,-0.09040805697441101
1766400170482754600,2.102754638671875,0.07452555745840073,-0.10873401165008545,-0.11362093687057495
1766400170492794600,2.112794677734375,0.06719517707824707,-0.1111774742603302,-0.14538592100143433
1766400170502804500,2.122804443359375,0.06108652427792549,-0.10995574295520782,-0.1820378452539444
1766400170512814300,2.132814453125,0.05253441259264946,-0.09896016865968704,-0.17959438264369965
1766400170522824000,2.142823974609375,0.04886921867728233,-0.09162978827953339,-0.12828169763088226
1766400170532833800,2.152833740234375,0.045204028487205505,-0.08429940044879913,-0.0757472887635231
1766400170542874000,2.1628740234375,0.0354301854968071,-0.06719517707824707,-0.028099801391363144
1766400170562893600,2.1828935546875,0.03176499158143997,-0.05009094998240471,0.042760565876960754
1766400170572903400,2.1929033203125,0.024434609338641167,-0.04153883829712868,0.021991148591041565
1766400170582913000,2.2029130859375,0.018325956538319588,-0.04153883829712868,-0.015882495790719986
1766400170592953300,2.212953369140625,0.02932153269648552,-0.03298672288656235,-0.05864306539297104
1766400170602993700,2.22299365234375,0.03176499158143997,-0.02321287989616394,-0.08429940044879913
1766400170613003500,2.23300341796875,0.0354301854968071,-0.01710422709584236,-0.06475171446800232
1766400170623043800,2.2430439453125,0.03298672288656235,-0.00733038317412138,-0.03420845419168472
1766400170633053400,2.253053466796875,0.0354301854968071,0.004886921960860491,0.0012217304902151227
1766400170663082800,2.283082763671875,0.03787364438176155,0.028099801391363144,0.010995574295520782
1766400170683102500,2.3031025390625,0.04398229718208313,0.01710422709584236,-0.02932153269648552
1766400170693112000,2.313112060546875,0.03787364438176155,0.012217304669320583,-0.028099801391363144
1766400170703122000,2.323121826171875,0.03298672288656235,0.00366519158706069,0.0012217304902151227
1766400170713192700,2.333192626953125,0.025656340643763542,-0.00366519158706069,0.00855211354792118
1766400170723233000,2.34323291015625,0.009773843921720982,-0.00855211354792118,0.015882495790719986
1766400170733273300,2.3532734375,-0.004886921960860491,-0.01710422709584236,0.05009094998240471
1766400170743252500,2.36325244140625,-0.015882495790719986,-0.018325956538319588,0.07941248267889023
1766400170763272000,2.38327197265625,-0.02321287989616394,0.0024434609804302454,0.08552113175392151
1766400170783352600,2.4033525390625,-0.02687807008624077,0.02687807008624077,0.21991148591041565
1766400170793393000,2.413392822265625,-0.02687807008624077,0.04153883829712868,0.25534167885780334
1766400170803402800,2.42340283203125,-0.024434609338641167,0.06108652427792549,0.31154128909111023
1766400170813442800,2.43344287109375,-0.02321287989616394,0.08552113175392151,0.3933972120285034
1766400170823422200,2.443422119140625,-0.024434609338641167,0.1111774742603302,0.45326200127601624
1766400170833462500,2.453462646484375,-0.02687807008624077,0.1417207419872284,0.48869219422340393
1766400170843502800,2.4635029296875,-0.02687807008624077,0.17959438264369965,0.5558874011039734
1766400170863583200,2.483583251953125,-0.039095375686883926,0.2174680233001709,0.6646214127540588
1766400170873623600,2.49362353515625,-0.051312681287527084,0.2577851414680481,0.7562511563301086
1766400170893673700,2.513673828125,-0.04153883829712868,0.34208452701568604,0.7757988572120667
1766400170903683300,2.523683349609375,-0.036651913076639175,0.3677408695220947,0.720820963382721
1766400170913693200,2.533693115234375,-0.03420845419168472,0.3885102868080139,0.6939429044723511
1766400170923703000,2.543703125,-0.04764748737215996,0.41172316670417786,0.7782423496246338
1766400170933712600,2.553712646484375,-0.0757472887635231,0.4092797040939331,0.960280179977417
1766400170943722500,2.563722412109375,-0.08674286305904388,0.37751471996307373,1.1349875926971436
1766400170953793300,2.573793212890625,-0.11239920556545258,0.34086281061172485,1.1484266519546509
1766400170973904400,2.593904296875,-0.1319468915462494,0.2370157092809677,0.8087855577468872
1766400170993954300,2.613954345703125,-0.1368338167667389,0.16004669666290283,0.2993239760398865
1766400171003964200,2.623964111328125,-0.11362093687057495,0.11484266817569733,0.14905111491680145
1766400171013974000,2.63397412109375,-0.07208210229873657,0.05375614017248154,-0.018325956538319588
1766400171024014300,2.644014404296875,-0.06963863968849182,0.012217304669320583,-0.24556782841682434
1766400171034054400,2.654054443359375,-0.07941248267889023,-0.028099801391363144,-0.4043927788734436
1766400171044094700,2.6640947265625,-0.06108652427792549,-0.07208210229873657,-0.3885102868080139
1766400171064114400,2.684114501953125,-0.10262536257505417,-0.14782938361167908,-0.32009339332580566
1766400171094204700,2.71420458984375,-0.06352998316287994,-0.24678955972194672,-0.5167919993400574
1766400171104245000,2.724244873046875,-0.03176499158143997,-0.2638937830924988,-0.6096435189247131
1766400171124264400,2.744264404296875,-0.030543262138962746,-0.2370157092809677,-0.5962044596672058
1766400171134274300,2.7542744140625,-0.021991148591041565,-0.21624629199504852,-0.4801400899887085
1766400171144314600,2.764314697265625,-0.02687807008624077,-0.1869247704744339,-0.4202753007411957
1766400171154324200,2.77432421875,-0.03787364438176155,-0.15515977144241333,-0.40072759985923767
1766400171164334000,2.784333984375,-0.039095375686883926,-0.13316862285137177,-0.3543018400669098
1766400171174374400,2.79437451171875,-0.0403171069920063,-0.12461651116609573,-0.2993239760398865
1766400171204495000,2.8244951171875,-0.021991148591041565,-0.13561208546161652,-0.3885102868080139
1766400171214505000,2.8345048828125,-0.009773843921720982,-0.14782938361167908,-0.475253164768219
1766400171224545300,2.844545166015625,0.0012217304902151227,-0.1612684279680252,-0.5607742667198181
1766400171234585600,2.854585693359375,0.00733038317412138,-0.16371189057826996,-0.5925393104553223
1766400171244625700,2.864625732421875,0.00366519158706069,-0.1661553531885147,-0.5705481171607971
1766400171254635500,2.874635498046875,0.012217304669320583,-0.16249015927314758,-0.5082398653030396
1766400171264645400,2.884645263671875,0.013439035043120384,-0.14294247329235077,-0.4092797040939331
1766400171274685700,2.894685791015625,0.01466076634824276,-0.12339477986097336,-0.2736676335334778
1766400171284695300,2.9046953125,0.02076941914856434,-0.1062905490398407,-0.17104226350784302
1766400171294735600,2.914735595703125,0.021991148591041565,-0.08307767659425735,-0.12461651116609573
1766400171314785800,2.934785888671875,0.03176499158143997,-0.039095375686883926,-0.13561208546161652
1766400171324795400,2.94479541015625,0.0403171069920063,-0.025656340643763542,-0.19914206862449646
1766400171334805200,2.95480517578125,0.03176499158143997,-0.01466076634824276,-0.26145032048225403
1766400171354855200,2.974855224609375,0.019547687843441963,-0.004886921960860491,-0.21991148591041565
1766400171364865000,2.984864990234375,0.013439035043120384,0.00733038317412138,-0.14905111491680145
1766400171374875000,2.994875,0.012217304669320583,0.012217304669320583,-0.07696902006864548
1766400171384884500,3.004884521484375,0.00366519158706069,0.024434609338641167,-0.028099801391363144
1766400171404904200,3.024904296875,0.004886921960860491,0.025656340643763542,-0.0354301854968071
1766400171424923600,3.044923583984375,-0.0012217304902151227,0.019547687843441963,-0.1160643994808197
1766400171434933500,3.05493359375,0.006108652334660292,0.004886921960860491,-0.11239920556545258
1766400171444973600,3.0649736328125,0.004886921960860491,0.0024434609804302454,-0.1270599663257599
1766400171455014000,3.075013916015625,0.0024434609804302454,0.004886921960860491,-0.12339477986097336
1766400171464993300,3.0849931640625,0.010995574295520782,-0.0012217304902151227,-0.07941248267889023
1766400171475064000,3.09506396484375,0.013439035043120384,0.0024434609804302454,-0.05742133408784866
1766400171485073700,3.10507373046875,0.012217304669320583,0.00733038317412138,-0.042760565876960754
1766400171495083500,3.11508349609375,0.010995574295520782,0.00855211354792118,-0.03176499158143997
1766400171525204500,3.14520458984375,0.013439035043120384,0.028099801391363144,-0.03420845419168472
1766400171535214000,3.155214111328125,0.012217304669320583,0.03298672288656235,0.00366519158706069
1766400171545224000,3.165223876953125,0.010995574295520782,0.03176499158143997,0.0403171069920063
1766400171555264300,3.17526416015625,0.015882495790719986,0.028099801391363144,0.05009094998240471
1766400171565273900,3.18527392578125,0.025656340643763542,0.024434609338641167,0.0354301854968071
1766400171575283700,3.19528369140625,0.03176499158143997,0.025656340643763542,0.010995574295520782
1766400171585293600,3.20529345703125,0.0403171069920063,0.021991148591041565,-0.012217304669320583
1766400171595334000,3.215333984375,0.04398229718208313,0.02076941914856434,-0.04153883829712868
1766400171615414300,3.235414306640625,0.039095375686883926,0.012217304669320583,-0.051312681287527084
1766400171635464400,3.25546435546875,0.03787364438176155,0.004886921960860491,-0.036651913076639175
1766400171645474000,3.26547412109375,0.03176499158143997,0.0024434609804302454,-0.03420845419168472
1766400171655484000,3.27548388671875,0.024434609338641167,-0.0024434609804302454,-0.013439035043120384
1766400171665493800,3.28549365234375,0.018325956538319588,-0.009773843921720982,0.004886921960860491
1766400171675534000,3.2955341796875,0.010995574295520782,-0.015882495790719986,0.010995574295520782
1766400171685543700,3.305543701171875,0.004886921960860491,-0.018325956538319588,0.013439035043120384
1766400171695553500,3.315553466796875,-0.0012217304902151227,-0.015882495790719986,0.021991148591041565
1766400171705593900,3.32559375,-0.0012217304902151227,-0.015882495790719986,0.03420845419168472
1766400171725613300,3.34561328125,-0.013439035043120384,-0.010995574295520782,0.00366519158706069
1766400171745632800,3.3656328125,-0.015882495790719986,-0.018325956538319588,0.010995574295520782
1766400171755642600,3.375642578125,-0.015882495790719986,-0.02076941914856434,-0.0012217304902151227
1766400171765652500,3.385652587890625,-0.019547687843441963,-0.01710422709584236,-0.0024434609804302454
1766400171775662000,3.395662109375,-0.018325956538319588,-0.015882495790719986,0.01466076634824276
1766400171785641500,3.405641357421875,-0.012217304669320583,-0.01466076634824276,0.01710422709584236
1766400171795712300,3.415712158203125,-0.010995574295520782,-0.013439035043120384,0.00733038317412138
1766400171805752600,3.425752685546875,-0.013439035043120384,-0.013439035043120384,0.009773843921720982
1766400171815793000,3.43579296875,-0.00733038317412138,-0.015882495790719986,0.010995574295520782
1766400171825802500,3.445802490234375,0.0012217304902151227,-0.015882495790719986,-0.0024434609804302454
1766400171835873300,3.455873291015625,0.004886921960860491,-0.015882495790719986,-0.01466076634824276
1766400171845913600,3.46591357421875,0.0024434609804302454,-0.01710422709584236,0.004886921960860491
1766400171855984400,3.475984375,0.012217304669320583,-0.021991148591041565,0.010995574295520782
1766400171865994200,3.485994140625,0.012217304669320583,-0.018325956538319588,-0.009773843921720982
1766400171876034600,3.49603466796875,0.010995574295520782,-0.015882495790719986,-0.012217304669320583
1766400171886044200,3.506044189453125,0.01466076634824276,-0.01710422709584236,0
1766400171896145700,3.516145751953125,0.012217304669320583,-0.01466076634824276,-0.0024434609804302454
1766400171906124800,3.526124755859375,0.012217304669320583,-0.012217304669320583,0
1766400171916165000,3.5361650390625,0.00855211354792118,-0.012217304669320583,0.00733038317412138
1766400171936184600,3.5561845703125,0.0024434609804302454,-0.015882495790719986,0
1766400171956234800,3.57623486328125,0.00855211354792118,-0.013439035043120384,0.006108652334660292
1766400171966244400,3.586244384765625,0.006108652334660292,-0.009773843921720982,0.006108652334660292
1766400171976315100,3.596315185546875,0.00733038317412138,-0.004886921960860491,0.010995574295520782
1766400171986294500,3.60629443359375,0.018325956538319588,-0.004886921960860491,0.00366519158706069
1766400171996304100,3.61630419921875,0.024434609338641167,-0.0024434609804302454,-0.02321287989616394
1766400172006314000,3.62631396484375,0.024434609338641167,0.0024434609804302454,-0.018325956538319588
1766400172016323800,3.63632373046875,0.030543262138962746,0.00366519158706069,0.018325956538319588
1766400172026333400,3.64633349609375,0.03298672288656235,0.00733038317412138,0.030543262138962746
1766400172046414000,3.6664140625,0.028099801391363144,0.019547687843441963,0.05009094998240471
1766400172056484900,3.67648486328125,0.03176499158143997,0.02076941914856434,0.05375614017248154
1766400172066525200,3.686525146484375,0.03298672288656235,0.021991148591041565,0.03298672288656235
1766400172076535000,3.69653515625,0.039095375686883926,0.018325956538319588,0.018325956538319588
1766400172086544600,3.706544677734375,0.04153883829712868,0.02321287989616394,0.010995574295520782
1766400172096554500,3.716554443359375,0.04642575979232788,0.02321287989616394,0.013439035043120384
1766400172106564400,3.726564453125,0.045204028487205505,0.021991148591041565,0.02321287989616394
1766400172116604700,3.736604736328125,0.0403171069920063,0.019547687843441963,0.042760565876960754
1766400172126583800,3.746583740234375,0.0354301854968071,0.01710422709584236,0.05742133408784866
1766400172146695000,3.76669482421875,0.02932153269648552,0.019547687843441963,0.03298672288656235
1766400172166744800,3.786744873046875,0.025656340643763542,0.024434609338641167,0.025656340643763542
1766400172176754700,3.796754638671875,0.021991148591041565,0.021991148591041565,0.02076941914856434
1766400172186825500,3.806825439453125,0.015882495790719986,0.019547687843441963,0.01466076634824276
1766400172196865800,3.81686572265625,0.010995574295520782,0.01710422709584236,0.01710422709584236
1766400172206875600,3.826875732421875,0.012217304669320583,0.013439035043120384,0.024434609338641167
1766400172216885200,3.83688525390625,0.009773843921720982,0.010995574295520782,0.019547687843441963
1766400172226895000,3.84689501953125,0.004886921960860491,0.010995574295520782,0.010995574295520782
1766400172256955000,3.876954833984375,0,0.0024434609804302454,-0.009773843921720982
1766400172266964700,3.88696484375,0.0024434609804302454,0,-0.006108652334660292
1766400172277035500,3.897035400390625,0.0012217304902151227,0.0024434609804302454,0.0024434609804302454
1766400172287045000,3.907045166015625,0.0024434609804302454,0.004886921960860491,0.015882495790719986
1766400172297055000,3.917054931640625,0.013439035043120384,0.00855211354792118,0.02321287989616394
1766400172307095300,3.92709521484375,0.010995574295520782,0.009773843921720982,0.024434609338641167
1766400172317135600,3.937135498046875,0.012217304669320583,0.00855211354792118,0.03787364438176155
1766400172327114800,3.94711474609375,0.013439035043120384,0.00733038317412138,0.02687807008624077
1766400172347165000,3.9671650390625,0.01710422709584236,0.013439035043120384,-0.009773843921720982
1766400172357205200,3.977205322265625,0.015882495790719986,0.01710422709584236,0.013439035043120384
1766400172367214800,3.98721484375,0.012217304669320583,0.02076941914856434,0.024434609338641167
1766400172377255200,3.997255126953125,0.010995574295520782,0.025656340643763542,0.015882495790719986
1766400172387265000,4.00726513671875,0.010995574295520782,0.025656340643763542,0.015882495790719986
1766400172397305300,4.017305419921875,0.01466076634824276,0.02687807008624077,0.010995574295520782
1766400172407315000,4.02731494140625,0.010995574295520782,0.02932153269648552,0.00733038317412138
1766400172417355300,4.037355224609375,0.006108652334660292,0.03176499158143997,0.01710422709584236
1766400172427365000,4.047365234375,0.004886921960860491,0.03298672288656235,0.03420845419168472
1766400172437436000,4.057435791015625,0.00733038317412138,0.036651913076639175,0.04153883829712868
1766400172447415000,4.0674150390625,0,0.04153883829712868,0.04398229718208313
1766400172457455400,4.077455322265625,0.0024434609804302454,0.039095375686883926,0.05742133408784866
1766400172467495700,4.08749560546875,0,0.03787364438176155,0.0403171069920063
1766400172477505500,4.097505615234375,-0.0012217304902151227,0.03298672288656235,0.024434609338641167
1766400172487515100,4.10751513671875,0.00366519158706069,0.02687807008624077,0.02321287989616394
1766400172497555500,4.117555419921875,-0.0024434609804302454,0.03176499158143997,0.009773843921720982
1766400172507565300,4.1275654296875,0.0012217304902151227,0.028099801391363144,0.009773843921720982
1766400172527645700,4.147645751953125,0.00366519158706069,0.02076941914856434,-0.010995574295520782
1766400172557675000,4.177675048828125,0,0.019547687843441963,0.006108652334660292
1766400172567684900,4.187684814453125,-0.00366519158706069,0.02687807008624077,0.0024434609804302454
1766400172577725200,4.19772509765625,0.0012217304902151227,0.03176499158143997,0.00366519158706069
1766400172587765500,4.207765625,0.00733038317412138,0.03787364438176155,0.0024434609804302454
1766400172597805800,4.217805908203125,0.009773843921720982,0.04153883829712868,0.01466076634824276
1766400172607846000,4.227845947265625,0.006108652334660292,0.04153883829712868,0.024434609338641167
1766400172617855700,4.237855712890625,0.01466076634824276,0.036651913076639175,0.009773843921720982
1766400172627896000,4.24789599609375,0.02076941914856434,0.03420845419168472,-0.013439035043120384
1766400172637936400,4.257936279296875,0.01710422709584236,0.03176499158143997,-0.00733038317412138
1766400172657925400,4.27792529296875,0.012217304669320583,0.02076941914856434,0.030543262138962746
1766400172667965700,4.287965576171875,0.010995574295520782,0.01710422709584236,0.025656340643763542
1766400172677975300,4.297975341796875,0.01466076634824276,0.00855211354792118,0.021991148591041565
1766400172688015600,4.308015625,0.01710422709584236,0.00733038317412138,0.019547687843441963
1766400172697995000,4.3179951171875,0.025656340643763542,0.0024434609804302454,0.02687807008624077
1766400172708035300,4.328035400390625,0.03420845419168472,0,0.01710422709584236
1766400172718075400,4.338075439453125,0.036651913076639175,0.0024434609804302454,0.0012217304902151227
1766400172728054800,4.3480546875,0.045204028487205505,0.0024434609804302454,-0.00733038317412138
1766400172738095000,4.35809521484375,0.051312681287527084,0.004886921960860491,-0.01466076634824276
1766400172768246300,4.388246337890625,0.03420845419168472,0,-0.02321287989616394
1766400172778256100,4.398256103515625,0.025656340643763542,-0.0024434609804302454,-0.024434609338641167
1766400172788327000,4.408326904296875,0.015882495790719986,-0.004886921960860491,-0.01710422709584236
1766400172798336800,4.418336669921875,0.00855211354792118,-0.010995574295520782,-0.00733038317412138
1766400172808346400,4.428346435546875,0.004886921960860491,-0.01710422709584236,-0.013439035043120384
1766400172818386700,4.43838671875,0.00366519158706069,-0.02076941914856434,-0.02076941914856434
1766400172828427000,4.448427001953125,0.0024434609804302454,-0.019547687843441963,-0.015882495790719986
1766400172858486800,4.47848681640625,0.0012217304902151227,-0.01466076634824276,0.019547687843441963
1766400172868527000,4.488527099609375,0,-0.015882495790719986,0.019547687843441963
1766400172878567400,4.4985673828125,0.004886921960860491,-0.019547687843441963,0.006108652334660292
1766400172888577300,4.508577392578125,0.0012217304902151227,-0.018325956538319588,-0.009773843921720982
1766400172898587000,4.5185869140625,-0.0012217304902151227,-0.018325956538319588,-0.010995574295520782
1766400172908627200,4.528627197265625,-0.0024434609804302454,-0.02076941914856434,-0.018325956538319588
1766400172918698000,4.538697998046875,0,-0.019547687843441963,-0.025656340643763542
1766400172928707800,4.548707763671875,0,-0.01710422709584236,-0.013439035043120384
1766400172938717700,4.5587177734375,-0.0012217304902151227,-0.012217304669320583,0.00733038317412138
1766400172968808000,4.588807861328125,-0.009773843921720982,-0.010995574295520782,0.01710422709584236
1766400172978848300,4.59884814453125,-0.009773843921720982,-0.010995574295520782,0.00733038317412138
1766400172988888600,4.608888671875,-0.009773843921720982,-0.010995574295520782,0.00855211354792118
1766400172998898200,4.618898193359375,-0.013439035043120384,-0.010995574295520782,0.018325956538319588
1766400173008908000,4.628907958984375,-0.018325956538319588,-0.01466076634824276,0.025656340643763542
1766400173018948400,4.6389482421875,-0.019547687843441963,-0.01710422709584236,0.024434609338641167
1766400173028958000,4.6489580078125,-0.019547687843441963,-0.018325956538319588,0.018325956538319588
1766400173038998300,4.658998291015625,-0.01710422709584236,-0.01710422709584236,0.0012217304902151227
1766400173069058000,4.68905810546875,-0.012217304669320583,-0.01466076634824276,0.012217304669320583
1766400173079128800,4.69912890625,-0.010995574295520782,-0.015882495790719986,0.015882495790719986
1766400173089138700,4.709138671875,-0.006108652334660292,-0.01710422709584236,0.009773843921720982
1766400173099148500,4.7191484375,-0.0012217304902151227,-0.015882495790719986,-0.00366519158706069
1766400173109158100,4.729158203125,0.0024434609804302454,-0.01710422709584236,-0.009773843921720982
1766400173119198500,4.739198486328125,0.0024434609804302454,-0.019547687843441963,-0.00855211354792118
1766400173129177900,4.749177734375,0.00855211354792118,-0.025656340643763542,-0.01710422709584236
1766400173139187500,4.7591875,0.013439035043120384,-0.024434609338641167,-0.03176499158143997
1766400173149197300,4.769197265625,0.013439035043120384,-0.024434609338641167,-0.03176499158143997
1766400173179318300,4.799318359375,0.009773843921720982,-0.015882495790719986,0.004886921960860491
1766400173189328000,4.809327880859375,0.00855211354792118,-0.010995574295520782,0.028099801391363144
1766400173199337700,4.819337646484375,0.004886921960860491,-0.00733038317412138,0.03420845419168472
1766400173209347600,4.82934765625,0.00855211354792118,-0.009773843921720982,0.02932153269648552
1766400173219448800,4.83944873046875,0.009773843921720982,-0.009773843921720982,-0.0012217304902151227
1766400173229458400,4.84945849609375,0.00733038317412138,-0.004886921960860491,-0.02076941914856434
1766400173239498800,4.859498779296875,0.006108652334660292,-0.004886921960860491,-0.015882495790719986
1766400173249508600,4.869508544921875,0.0012217304902151227,0.0012217304902151227,-0.015882495790719986
1766400173289578200,4.909578125,-0.01466076634824276,0.012217304669320583,0.01710422709584236
1766400173299618600,4.91961865234375,-0.01710422709584236,0.010995574295520782,0.018325956538319588
1766400173309628200,4.929628173828125,-0.02076941914856434,0.009773843921720982,0.00733038317412138
1766400173319638000,4.939637939453125,-0.02321287989616394,0.0024434609804302454,-0.015882495790719986
1766400173329647900,4.94964794921875,-0.018325956538319588,-0.0024434609804302454,-0.04764748737215996
1766400173339688000,4.95968798828125,-0.02321287989616394,-0.004886921960860491,-0.06230825558304787
1766400173349697800,4.96969775390625,-0.019547687843441963,-0.00733038317412138,-0.05253441259264946
1766400173389767400,5.009767333984375,-0.010995574295520782,0,-0.04764748737215996
1766400173399807700,5.019807861328125,-0.009773843921720982,0.0024434609804302454,-0.05742133408784866
1766400173409817300,5.0298173828125,-0.009773843921720982,0.0012217304902151227,-0.051312681287527084
1766400173419857700,5.039857666015625,-0.010995574295520782,-0.0012217304902151227,-0.03787364438176155
1766400173429867500,5.049867431640625,-0.012217304669320583,-0.004886921960860491,-0.028099801391363144
1766400173439907800,5.059907958984375,-0.01466076634824276,-0.009773843921720982,-0.02321287989616394
1766400173449917400,5.06991748046875,-0.021991148591041565,-0.009773843921720982,-0.01466076634824276
1766400173459927300,5.07992724609375,-0.024434609338641167,-0.010995574295520782,-0.00733038317412138
1766400173510006500,5.130006591796875,-0.00855211354792118,-0.019547687843441963,-0.010995574295520782
1766400173520016400,5.140016357421875,-0.0024434609804302454,-0.018325956538319588,-0.01466076634824276
1766400173530026200,5.150026123046875,0.0012217304902151227,-0.01466076634824276,-0.02932153269648552
1766400173540097000,5.160096923828125,0.00366519158706069,-0.010995574295520782,-0.051312681287527084
1766400173550076200,5.170076171875,0.010995574295520782,-0.010995574295520782,-0.05497787147760391
1766400173560116500,5.180116455078125,0.010995574295520782,-0.00733038317412138,-0.05253441259264946
1766400173580197000,5.200197021484375,0.006108652334660292,-0.00366519158706069,-0.006108652334660292
1766400173610226400,5.230226318359375,-0.006108652334660292,-0.013439035043120384,-0.004886921960860491
1766400173620297200,5.240297119140625,-0.00366519158706069,-0.01466076634824276,-0.00733038317412138
1766400173630337500,5.250337646484375,-0.009773843921720982,-0.00733038317412138,-0.0024434609804302454
1766400173650357000,5.27035693359375,-0.00855211354792118,-0.009773843921720982,0.009773843921720982
1766400173660366800,5.280366943359375,-0.009773843921720982,-0.00733038317412138,0.00366519158706069
1766400173680416800,5.300416748046875,-0.00366519158706069,-0.012217304669320583,-0.00366519158706069
1766400173710476500,5.3304765625,0.0012217304902151227,-0.006108652334660292,-0.02687807008624077
1766400173720486400,5.340486328125,0,-0.00366519158706069,-0.03176499158143997
1766400173730496300,5.350496337890625,-0.0012217304902151227,-0.004886921960860491,-0.01710422709584236
1766400173740505900,5.360505859375,-0.004886921960860491,-0.00855211354792118,-0.0012217304902151227
1766400173750515700,5.370515625,-0.00366519158706069,-0.012217304669320583,0.012217304669320583
1766400173760525600,5.380525634765625,-0.00366519158706069,-0.01466076634824276,0.02687807008624077
1766400173770535200,5.39053515625,-0.00733038317412138,-0.013439035043120384,0.04153883829712868
1766400173810604800,5.430604736328125,0.0012217304902151227,-0.015882495790719986,-0.0012217304902151227
1766400173820645000,5.44064501953125,-0.00366519158706069,-0.012217304669320583,-0.01710422709584236
1766400173830654700,5.45065478515625,-0.010995574295520782,-0.009773843921720982,-0.0354301854968071
1766400173840695000,5.460695068359375,-0.010995574295520782,-0.012217304669320583,-0.025656340643763542
1766400173850705000,5.470704833984375,-0.010995574295520782,-0.015882495790719986,-0.00855211354792118
1766400173860714800,5.48071484375,-0.019547687843441963,-0.018325956538319588,0.00733038317412138
1766400173870724400,5.490724365234375,-0.024434609338641167,-0.02076941914856434,0.02932153269648552
1766400173890744000,5.510744140625,-0.013439035043120384,-0.01710422709584236,0.012217304669320583
1766400173930783000,5.550782958984375,-0.00366519158706069,-0.01466076634824276,-0.024434609338641167
1766400173940792800,5.560792724609375,-0.00366519158706069,-0.015882495790719986,-0.025656340643763542
1766400173950802400,5.570802490234375,-0.0012217304902151227,-0.015882495790719986,-0.021991148591041565
1766400173960812300,5.580812255859375,-0.00733038317412138,-0.006108652334660292,-0.025656340643763542
1766400173970822100,5.590822265625,-0.0012217304902151227,-0.006108652334660292,-0.00733038317412138
1766400173980831700,5.600831787109375,-0.0012217304902151227,-0.004886921960860491,0.00855211354792118
1766400174030911200,5.6509111328125,-0.006108652334660292,0.0024434609804302454,0.042760565876960754
1766400174040920800,5.6609208984375,-0.0012217304902151227,0.00855211354792118,0.042760565876960754
1766400174050930700,5.6709306640625,-0.0012217304902151227,0.01710422709584236,0.03298672288656235
1766400174060940500,5.6809404296875,0,0.015882495790719986,0.02687807008624077
1766400174070980900,5.69098095703125,-0.0012217304902151227,0.010995574295520782,0.028099801391363144
1766400174081021000,5.70102099609375,-0.004886921960860491,0.006108652334660292,0.019547687843441963
1766400174091061200,5.711061279296875,-0.006108652334660292,0.00366519158706069,0.010995574295520782
1766400174111111400,5.731111328125,-0.018325956538319588,0,0.02932153269648552
1766400174121151700,5.74115185546875,-0.02321287989616394,-0.00855211354792118,0.02687807008624077
1766400174131192000,5.751192138671875,-0.02687807008624077,-0.009773843921720982,0.019547687843441963
1766400174141232000,5.761232177734375,-0.03298672288656235,-0.006108652334660292,0.01466076634824276
1766400174151242000,5.771241943359375,-0.030543262138962746,-0.0012217304902151227,0.01710422709584236
1766400174161312800,5.781312744140625,-0.028099801391363144,0.006108652334660292,0.013439035043120384
1766400174171322600,5.791322509765625,-0.02687807008624077,0.012217304669320583,0.02076941914856434
1766400174181332200,5.801332275390625,-0.025656340643763542,0.013439035043120384,0.03176499158143997
1766400174201352000,5.82135205078125,-0.01710422709584236,0.024434609338641167,0.03176499158143997
1766400174231411700,5.85141162109375,-0.013439035043120384,0.039095375686883926,0.05619960278272629
1766400174241452000,5.8614521484375,-0.009773843921720982,0.039095375686883926,0.06230825558304787
1766400174251461600,5.871461669921875,-0.009773843921720982,0.0403171069920063,0.05619960278272629
1766400174261502000,5.881501953125,-0.006108652334660292,0.045204028487205505,0.06475171446800232
1766400174271511800,5.89151171875,0,0.04764748737215996,0.0806342139840126
1766400174281521700,5.901521728515625,0.0024434609804302454,0.05009094998240471,0.10384709388017654
1766400174291531300,5.91153125,-0.0012217304902151227,0.05009094998240471,0.13439035415649414
1766400174331601000,5.951600830078125,-0.00366519158706069,0.051312681287527084,0.08674286305904388
1766400174341610800,5.96161083984375,-0.004886921960860491,0.05864306539297104,0.06108652427792549
1766400174351620400,5.971620361328125,-0.0024434609804302454,0.06963863968849182,0.04398229718208313
1766400174361630200,5.981630126953125,-0.006108652334660292,0.0806342139840126,0.05497787147760391
1766400174371670500,5.99167041015625,-0.004886921960860491,0.08307767659425735,0.1062905490398407
1766400174381680000,6.00168017578125,-0.006108652334660292,0.08307767659425735,0.1417207419872284
1766400174391690000,6.01168994140625,-0.00855211354792118,0.08307767659425735,0.16493362188339233
1766400174421719300,6.04171923828125,-0.013439035043120384,0.05619960278272629,0.13927727937698364
1766400174431729200,6.051729248046875,-0.013439035043120384,0.045204028487205505,0.10262536257505417
1766400174441769200,6.061769287109375,-0.018325956538319588,0.0403171069920063,0.05375614017248154
1766400174451779000,6.071779052734375,-0.018325956538319588,0.0403171069920063,0.030543262138962746
1766400174461789000,6.081788818359375,-0.018325956538319588,0.0403171069920063,0.036651913076639175
1766400174471798500,6.091798583984375,-0.02932153269648552,0.04153883829712868,0.059864792972803116
1766400174481808400,6.101808349609375,-0.02687807008624077,0.039095375686883926,0.1062905490398407
1766400174491818200,6.111818359375,-0.03176499158143997,0.042760565876960754,0.1368338167667389
1766400174501858600,6.121858642578125,-0.0403171069920063,0.045204028487205505,0.1563815027475357
1766400174551937800,6.171937744140625,-0.024434609338641167,0.02932153269648552,0.06108652427792549
1766400174562008600,6.182008544921875,-0.01466076634824276,0.019547687843441963,0.07330382615327835
1766400174572049000,6.192048828125,-0.01466076634824276,0.018325956538319588,0.07819075137376785
1766400174582058800,6.202058837890625,-0.010995574295520782,0.019547687843441963,0.08185594528913498
1766400174592098800,6.212098876953125,-0.004886921960860491,0.019547687843441963,0.07819075137376785
1766400174602139100,6.22213916015625,-0.004886921960860491,0.02321287989616394,0.07208210229873657
1766400174622219800,6.2422197265625,0,0.02321287989616394,0.06963863968849182
1766400174632260000,6.252260009765625,0.00366519158706069,0.021991148591041565,0.06841690838336945
1766400174642300400,6.262300537109375,0.00366519158706069,0.021991148591041565,0.06841690838336945
1766400174652310000,6.27231005859375,0.012217304669320583,0.01710422709584236,0.06719517707824707
1766400174662350300,6.282350341796875,0.009773843921720982,0.01466076634824276,0.04764748737215996
1766400174672360200,6.292360107421875,0.010995574295520782,0.012217304669320583,0.0403171069920063
1766400174682370000,6.3023701171875,0.010995574295520782,0.013439035043120384,0.025656340643763542
1766400174692379600,6.312379638671875,0.00733038317412138,0.02321287989616394,0.01466076634824276
1766400174702420000,6.322419921875,0.006108652334660292,0.025656340643763542,0.02687807008624077
1766400174732541000,6.352541015625,-0.00733038317412138,0.025656340643763542,0.06108652427792549
1766400174742581000,6.3625810546875,-0.010995574295520782,0.024434609338641167,0.036651913076639175
1766400174752560400,6.372560302734375,-0.01466076634824276,0.02687807008624077,0.028099801391363144
1766400174762631200,6.382631103515625,-0.010995574295520782,0.02687807008624077,0.024434609338641167
1766400174772641000,6.39264111328125,-0.009773843921720982,0.030543262138962746,0.012217304669320583
1766400174782681000,6.40268115234375,-0.00855211354792118,0.02687807008624077,0.009773843921720982
1766400174792660500,6.412660400390625,-0.013439035043120384,0.025656340643763542,0.018325956538319588
1766400174802700800,6.42270068359375,-0.012217304669320583,0.024434609338641167,0.03298672288656235
1766400174812741000,6.4327412109375,-0.010995574295520782,0.02076941914856434,0.021991148591041565
1766400174832791000,6.452791015625,-0.00733038317412138,0.028099801391363144,-0.004886921960860491
1766400174842801000,6.46280078125,-0.006108652334660292,0.025656340643763542,0.00733038317412138
1766400174852810500,6.472810546875,-0.00366519158706069,0.02076941914856434,0.02076941914856434
1766400174862820400,6.4828203125,-0.004886921960860491,0.01710422709584236,0.02687807008624077
1766400174872860700,6.492860595703125,-0.0024434609804302454,0.01710422709584236,0.02932153269648552
1766400174882870500,6.50287060546875,-0.00366519158706069,0.018325956538319588,0.0354301854968071
1766400174892880100,6.512880126953125,-0.006108652334660292,0.021991148591041565,0.03787364438176155
1766400174902951000,6.522950927734375,-0.006108652334660292,0.02321287989616394,0.030543262138962746
1766400174933072000,6.55307177734375,-0.00733038317412138,0.019547687843441963,0.03420845419168472
1766400174943112200,6.5631123046875,-0.006108652334660292,0.018325956538319588,0.0354301854968071
1766400174953152500,6.573152587890625,-0.009773843921720982,0.015882495790719986,0.024434609338641167
1766400174963162000,6.583162109375,-0.0024434609804302454,0.01466076634824276,0.02321287989616394
1766400174973202400,6.593202392578125,-0.00366519158706069,0.019547687843441963,0.021991148591041565
1766400174983242800,6.60324267578125,-0.00366519158706069,0.019547687843441963,0.0403171069920063
1766400174993222000,6.613221923828125,0,0.018325956538319588,0.05253441259264946
1766400175003262200,6.62326220703125,-0.0012217304902151227,0.01710422709584236,0.039095375686883926
1766400175013272000,6.63327197265625,0.0012217304902151227,0.01466076634824276,0.021991148591041565
1766400175033291500,6.65329150390625,0.0012217304902151227,0.00366519158706069,-0.012217304669320583
1766400175043362300,6.6633623046875,0.00366519158706069,0,-0.01466076634824276
1766400175053372200,6.6733720703125,0.00366519158706069,0,-0.006108652334660292
1766400175063382000,6.683382080078125,0.00366519158706069,0.004886921960860491,0.0012217304902151227
1766400175093502700,6.713502685546875,0.0024434609804302454,0.009773843921720982,0.009773843921720982
1766400175103573500,6.723573486328125,0.009773843921720982,0.010995574295520782,0.015882495790719986
1766400175113553000,6.733552978515625,0.010995574295520782,0.013439035043120384,0.021991148591041565
1766400175143704000,6.7637041015625,0.019547687843441963,0.021991148591041565,0.030543262138962746
1766400175153744400,6.773744384765625,0.018325956538319588,0.024434609338641167,0.015882495790719986
1766400175163784700,6.78378466796875,0.02076941914856434,0.019547687843441963,0.02321287989616394
1766400175173764000,6.79376416015625,0.015882495790719986,0.01710422709584236,0.02687807008624077
1766400175183804200,6.80380419921875,0.012217304669320583,0.018325956538319588,0.02932153269648552
1766400175193814000,6.81381396484375,0.010995574295520782,0.015882495790719986,0.028099801391363144
1766400175213833500,6.83383349609375,0.0012217304902151227,0.010995574295520782,0.030543262138962746
1766400175223904300,6.843904296875,-0.00366519158706069,0.009773843921720982,0.0403171069920063
1766400175243954400,6.863954345703125,-0.01466076634824276,0.009773843921720982,0.04642575979232788
1766400175253994800,6.873994873046875,-0.018325956538319588,0.00855211354792118,0.04886921867728233
1766400175264035000,6.88403515625,-0.02932153269648552,0.010995574295520782,0.036651913076639175
1766400175274075100,6.8940751953125,-0.030543262138962746,0.012217304669320583,0.010995574295520782
1766400175284085000,6.9040849609375,-0.030543262138962746,0.018325956538319588,-0.03420845419168472
1766400175294094800,6.9140947265625,-0.03420845419168472,0.02687807008624077,-0.051312681287527084
1766400175304135200,6.92413525390625,-0.030543262138962746,0.03176499158143997,-0.018325956538319588
1766400175314175200,6.93417529296875,-0.028099801391363144,0.036651913076639175,0.012217304669320583
1766400175324215600,6.944215576171875,-0.018325956538319588,0.039095375686883926,0.030543262138962746
1766400175364346400,6.984346435546875,0.019547687843441963,0.012217304669320583,0.05497787147760391
1766400175374356000,6.99435595703125,0.02687807008624077,0.006108652334660292,0
1766400175384426800,7.0044267578125,0.03298672288656235,0.004886921960860491,-0.039095375686883926
1766400175394436600,7.0144365234375,0.03787364438176155,0.0024434609804302454,-0.030543262138962746
1766400175404446500,7.024446533203125,0.03420845419168472,0.0024434609804302454,-0.0012217304902151227
1766400175414456000,7.0344560546875,0.03298672288656235,0.0024434609804302454,0.018325956538319588
1766400175424526800,7.04452685546875,0.03298672288656235,0.0024434609804302454,0.018325956538319588
1766400175434567200,7.054567138671875,0.025656340643763542,0.006108652334660292,0.01710422709584236
1766400175444607500,7.064607421875,0.025656340643763542,0.006108652334660292,0.01710422709584236
1766400175454617300,7.074617431640625,0.02076941914856434,0.009773843921720982,0.013439035043120384
1766400175464657400,7.084657470703125,0.019547687843441963,0.009773843921720982,0.010995574295520782
1766400175474667300,7.094667236328125,0.01466076634824276,0.009773843921720982,0.012217304669320583
1766400175484707600,7.10470751953125,0.01466076634824276,0.009773843921720982,0.010995574295520782
1766400175494717400,7.114717529296875,0.01466076634824276,0.00855211354792118,-0.00366519158706069
1766400175504727000,7.12472705078125,0.015882495790719986,0.00855211354792118,-0.015882495790719986
1766400175514737000,7.13473681640625,0.015882495790719986,0.010995574295520782,-0.009773843921720982
1766400175524777200,7.144777099609375,0.013439035043120384,0.015882495790719986,0.00366519158706069
1766400175564877300,7.184877197265625,0.00855211354792118,0.00366519158706069,-0.0012217304902151227
1766400175574887000,7.194886962890625,0.00855211354792118,0.0024434609804302454,-0.010995574295520782
1766400175584957700,7.204957763671875,0.009773843921720982,0,-0.028099801391363144
1766400175594937000,7.21493701171875,0.009773843921720982,-0.0012217304902151227,-0.0354301854968071
1766400175604977400,7.224977294921875,0.006108652334660292,0,-0.028099801391363144
1766400175614987000,7.234987060546875,0.00366519158706069,0.0012217304902151227,-0.015882495790719986
1766400175625027300,7.24502734375,0,0.0024434609804302454,-0.00855211354792118
1766400175665158000,7.285157958984375,-0.0024434609804302454,0.004886921960860491,0.02687807008624077
1766400175675137300,7.29513720703125,0.00366519158706069,0,0.02687807008624077
1766400175685177600,7.305177490234375,0.00366519158706069,-0.00366519158706069,0.01466076634824276
1766400175695187200,7.315187255859375,0.0012217304902151227,-0.009773843921720982,0.025656340643763542
1766400175705258000,7.325258056640625,0.00733038317412138,-0.018325956538319588,0.04153883829712868
1766400175715237400,7.3352373046875,0.0012217304902151227,-0.02321287989616394,0.02321287989616394
1766400175725308200,7.34530810546875,0.00366519158706069,-0.02687807008624077,-0.0024434609804302454
1766400175735287300,7.355287353515625,0.00733038317412138,-0.02321287989616394,-0.013439035043120384
1766400175785366800,7.40536669921875,-0.05619960278272629,0.045204028487205505,0.5400048494338989
1766400175795376600,7.415376708984375,-0.05864306539297104,0.05375614017248154,0.7134906053543091
1766400175805386200,7.42538623046875,-0.051312681287527084,0.05009094998240471,0.7574729323387146
1766400175815396000,7.43539599609375,-0.04398229718208313,0.06475171446800232,0.6963863968849182
1766400175825405700,7.44540576171875,-0.042760565876960754,0.08429940044879913,0.6230825781822205
1766400175835415600,7.45541552734375,-0.028099801391363144,0.09162978827953339,0.5436700582504272
1766400175865505800,7.485505859375,0.01710422709584236,0.19303341209888458,0.37629300355911255
1766400175885525500,7.505525390625,0.07330382615327835,0.21380282938480377,0.720820963382721
1766400175895565800,7.51556591796875,0.09162978827953339,0.2565633952617645,0.8625417351722717
1766400175905575400,7.525575439453125,0.0806342139840126,0.2871066629886627,1.0286970138549805
1766400175915585300,7.535585205078125,0.09285151958465576,0.29077184200286865,1.1582005023956299
1766400175925595100,7.54559521484375,0.10873401165008545,0.2919935882091522,1.1007791757583618
1766400175935604700,7.555604736328125,0.12339477986097336,0.2834414839744568,0.8918632864952087
1766400175945645000,7.56564501953125,0.15027284622192383,0.2736676335334778,0.6585127115249634
1766400175985745200,7.6057451171875,0.15271630883216858,0.27977627515792847,0.5119050741195679
1766400175995755000,7.615755126953125,0.1319468915462494,0.2785545587539673,0.7049384713172913
1766400176005764600,7.6257646484375,0.10873401165008545,0.24678955972194672,0.9065240025520325
1766400176015744000,7.635743896484375,0.1014036312699318,0.20036379992961884,1.0238101482391357
1766400176025814800,7.645814697265625,0.08307767659425735,0.15027284622192383,1.0018190145492554
1766400176035794000,7.6557939453125,0.05497787147760391,0.11728613078594208,0.9187413454055786
1766400176045803800,7.6658037109375,0.05375614017248154,0.09407325088977814,0.8735373020172119
1766400176055783000,7.675782958984375,0.06719517707824707,0.09896016865968704,0.8881980776786804
1766400176075833000,7.6958330078125,0.059864792972803116,0.11239920556545258,1.0335839986801147
1766400176095822000,7.715822021484375,0.09040805697441101,0.10018189996480942,1.1948524713516235
1766400176105862400,7.7258623046875,0.0806342139840126,0.059864792972803116,1.1936306953430176
1766400176115872000,7.7358720703125,0.07208210229873657,0.025656340643763542,1.0983357429504395
1766400176125881900,7.7458818359375,0.04642575979232788,-0.02076941914856434,1.0042624473571777
1766400176135861200,7.755861328125,0.0659734457731247,-0.05742133408784866,0.9529497623443604
1766400176145962500,7.76596240234375,0.07941248267889023,-0.07208210229873657,0.8772025108337402
1766400176155941600,7.775941650390625,0.07941248267889023,-0.07208210229873657,0.8772025108337402
1766400176165951500,7.785951416015625,0.09773843735456467,-0.10018189996480942,0.8210029006004333
1766400176216000300,7.836000244140625,0.20402899384498596,-0.13561208546161652,-0.4092797040939331
1766400176226040600,7.84604052734375,0.22357667982578278,-0.18081611394882202,-0.5082398653030396
1766400176236050400,7.856050537109375,0.25045475363731384,-0.23457226157188416,-0.5326744914054871
1766400176246060000,7.86606005859375,0.26633724570274353,-0.2785545587539673,-0.47769662737846375
1766400176256039400,7.876039306640625,0.28099802136421204,-0.30054569244384766,-0.3323107063770294
1766400176266079700,7.886079833984375,0.3017674386501312,-0.2981022298336029,-0.14294247329235077
1766400176276089300,7.89608935546875,0.32986724376678467,-0.28466320037841797,0.012217304669320583
1766400176306149000,7.926149169921875,0.31642818450927734,-0.21624629199504852,0.22357667982578278
1766400176316159000,7.936158935546875,0.33597588539123535,-0.21502456068992615,0.16982053220272064
1766400176326168800,7.9461689453125,0.31642818450927734,-0.21502456068992615,0.006108652334660292
1766400176336178400,7.956178466796875,0.2822197377681732,-0.22113321721553802,-0.14905111491680145
1766400176346188300,7.966188232421875,0.2773328125476837,-0.19914206862449646,-0.17837265133857727
1766400176356198100,7.9761982421875,0.26511552929878235,-0.16371189057826996,-0.05009094998240471
1766400176366207700,7.986207763671875,0.27122417092323303,-0.13561208546161652,0.15271630883216858
1766400176376217600,7.996217529296875,0.2687807083129883,-0.1062905490398407,0.2968805134296417
1766400176416317700,8.036317626953124,0.21502456068992615,-0.04886921867728233,0.15760323405265808
1766400176426327600,8.04632763671875,0.19303341209888458,-0.021991148591041565,0.09529497474431992
1766400176456387300,8.07638720703125,0.12095131725072861,0.03787364438176155,0.20036379992961884
1766400176466427600,8.086427734375,0.1062905490398407,0.0403171069920063,0.26511552929878235
1766400176476437200,8.096437255859374,0.1014036312699318,0.04886921867728233,0.3066543638706207
1766400176486477600,8.1064775390625,0.07208210229873657,0.04886921867728233,0.3579670190811157
1766400176506497000,8.1264970703125,0.04398229718208313,0.013439035043120384,0.46670106053352356
1766400176516476400,8.136476318359374,0.009773843921720982,0,0.4593706727027893
1766400176526516700,8.146516845703125,-0.009773843921720982,-0.00855211354792118,0.4190535545349121
1766400176536495900,8.156495849609374,-0.0012217304902151227,-0.021991148591041565,0.33475416898727417
1766400176546536200,8.1665361328125,-0.010995574295520782,-0.028099801391363144,0.19547687470912933
1766400176556546000,8.176546142578125,-0.02321287989616394,-0.02076941914856434,0.06841690838336945
1766400176566586000,8.186586181640624,-0.024434609338641167,-0.004886921960860491,0.024434609338641167
1766400176576565500,8.1965654296875,-0.02321287989616394,0.024434609338641167,0.06719517707824707
1766400176616665600,8.23666552734375,-0.006108652334660292,0.06963863968849182,0.5400048494338989
1766400176626706000,8.246705810546874,-0.02321287989616394,0.04886921867728233,0.42760565876960754
1766400176636715500,8.256715576171874,-0.09040805697441101,0.004886921960860491,0.05375614017248154
1766400176646725400,8.266725341796874,-0.0659734457731247,-0.02932153269648552,-0.2883284091949463
1766400176656735200,8.2767353515625,-0.02687807008624077,-0.06108652427792549,-0.39584067463874817
1766400176666744800,8.286744873046874,-0.02687807008624077,-0.09896016865968704,-0.35552358627319336
1766400176676754700,8.296754638671874,-0.015882495790719986,-0.12339477986097336,-0.28955012559890747
1766400176686795000,8.306794921875,-0.015882495790719986,-0.13439035415649414,-0.23090706765651703
1766400176706875600,8.326875732421875,-0.051312681287527084,-0.09529497474431992,0.0024434609804302454
1766400176716854800,8.336854736328124,-0.07696902006864548,-0.05253441259264946,0.13805554807186127
1766400176726864600,8.34686474609375,-0.1062905490398407,-0.006108652334660292,0.17348572611808777
1766400176736874200,8.356874267578124,-0.11484266817569733,0.015882495790719986,0.09040805697441101
1766400176746884000,8.366884033203124,-0.09773843735456467,0.021991148591041565,-0.04886921867728233
1766400176756894000,8.37689404296875,-0.08918632566928864,0.01710422709584236,-0.1563815027475357
1766400176766903600,8.386903564453124,-0.09040805697441101,0.004886921960860491,-0.15760323405265808
1766400176776913400,8.396913330078124,-0.0757472887635231,0.00733038317412138,-0.0403171069920063
1766400176786953700,8.40695361328125,-0.0659734457731247,0.010995574295520782,0.11972958594560623
1766400176807034000,8.4270341796875,-0.06963863968849182,0.01710422709584236,0.32131510972976685
1766400176817044000,8.4370439453125,-0.06230825558304787,0.028099801391363144,0.3225368559360504
1766400176827114800,8.44711474609375,-0.05497787147760391,0.02321287989616394,0.24434609711170197
1766400176837124600,8.45712451171875,-0.05619960278272629,0.015882495790719986,0.1368338167667389
1766400176847195400,8.4671953125,-0.05619960278272629,0.015882495790719986,0.05009094998240471
1766400176857205200,8.477205322265625,-0.05742133408784866,0.015882495790719986,0.01466076634824276
1766400176867276000,8.487276123046875,-0.05375614017248154,0.013439035043120384,0.02687807008624077
1766400176877285600,8.49728564453125,-0.059864792972803116,0.02321287989616394,0.05009094998240471
1766400176887326000,8.507325927734374,-0.059864792972803116,0.02321287989616394,0.05009094998240471
1766400176907406600,8.527406494140624,-0.051312681287527084,0.039095375686883926,0.13072516024112701
1766400176917416200,8.537416259765624,-0.05619960278272629,0.05619960278272629,0.12095131725072861
1766400176927487200,8.5474873046875,-0.06352998316287994,0.06963863968849182,0.07208210229873657
1766400176937496800,8.557496826171874,-0.05742133408784866,0.07330382615327835,0.01466076634824276
1766400176947506700,8.567506591796874,-0.05742133408784866,0.07819075137376785,-0.028099801391363144
1766400176957516300,8.577516357421874,-0.05619960278272629,0.08674286305904388,-0.059864792972803116
1766400176967526100,8.587526123046874,-0.059864792972803116,0.08552113175392151,-0.0806342139840126
1766400176977536000,8.597535888671874,-0.04642575979232788,0.07452555745840073,-0.05619960278272629
1766400176987545600,8.607545654296874,-0.0403171069920063,0.0659734457731247,-0.01710422709584236
1766400176997555500,8.617555419921874,-0.04398229718208313,0.06108652427792549,0.021991148591041565
1766400177027645700,8.647645751953124,-0.03420845419168472,0.04398229718208313,0.004886921960860491
1766400177037686000,8.65768603515625,-0.02687807008624077,0.04398229718208313,-0.00855211354792118
1766400177047696000,8.66769580078125,-0.028099801391363144,0.05253441259264946,0.0024434609804302454
1766400177057705700,8.677705810546875,-0.03176499158143997,0.059864792972803116,-0.0024434609804302454
1766400177067745800,8.687745849609374,-0.030543262138962746,0.06841690838336945,-0.024434609338641167
1766400177077786000,8.6977861328125,-0.02687807008624077,0.08552113175392151,-0.05497787147760391
1766400177087826400,8.707826416015624,-0.02687807008624077,0.10018189996480942,-0.0806342139840126
1766400177097836300,8.717836181640624,-0.02321287989616394,0.10384709388017654,-0.08185594528913498
1766400177117855700,8.737855712890624,-0.012217304669320583,0.1111774742603302,-0.009773843921720982
1766400177137875200,8.757875244140624,-0.015882495790719986,0.11362093687057495,0.02321287989616394
1766400177147915500,8.76791552734375,-0.009773843921720982,0.1111774742603302,0.039095375686883926
1766400177157925400,8.77792529296875,-0.019547687843441963,0.11728613078594208,0.06108652427792549
1766400177167965700,8.787965576171874,-0.030543262138962746,0.11850785464048386,0.0708603709936142
1766400177177975300,8.797975341796874,-0.030543262138962746,0.12339477986097336,0.06841690838336945
1766400177188046000,8.808046142578124,-0.03420845419168472,0.12950342893600464,0.05375614017248154
1766400177198086400,8.81808642578125,-0.025656340643763542,0.13805554807186127,0.04886921867728233
1766400177218167000,8.8381669921875,-0.015882495790719986,0.10751228034496307,-0.0403171069920063
1766400177228207400,8.848207275390624,-0.02076941914856434,0.08185594528913498,-0.1466076523065567
1766400177238217200,8.85821728515625,-0.03176499158143997,0.06108652427792549,-0.2015855312347412
1766400177248257300,8.86825732421875,-0.04153883829712868,0.039095375686883926,-0.15271630883216858
1766400177258267100,8.87826708984375,-0.045204028487205505,0.021991148591041565,-0.06230825558304787
1766400177268307500,8.888307373046874,-0.04764748737215996,0.01710422709584236,0
1766400177278317300,8.8983173828125,-0.051312681287527084,0.01710422709584236,0.0012217304902151227
1766400177298336800,8.918336669921874,-0.06719517707824707,0.04398229718208313,-0.08307767659425735
1766400177308407600,8.928407470703124,-0.06352998316287994,0.05742133408784866,-0.09896016865968704
1766400177318417400,8.93841748046875,-0.0403171069920063,0.04153883829712868,-0.06719517707824707
1766400177328457500,8.94845751953125,0.01710422709584236,0.006108652334660292,-0.04642575979232788
1766400177338467300,8.95846728515625,0.013439035043120384,-0.009773843921720982,-0.12339477986097336
1766400177348477200,8.968477294921875,-0.02321287989616394,-0.03420845419168472,-0.22602014243602753
1766400177358517500,8.978517578125,-0.01710422709584236,-0.06230825558304787,-0.27000242471694946
1766400177368527000,8.988527099609374,0.00733038317412138,-0.08796459436416626,-0.2822197377681732
1766400177378537000,8.998536865234374,0.004886921960860491,-0.09896016865968704,-0.3078760802745819
1766400177388546600,9.008546630859374,-0.01466076634824276,-0.08307767659425735,-0.2687807083129883
1766400177398556400,9.018556396484374,-0.010995574295520782,-0.06108652427792549,-0.1258382350206375
1766400177408566300,9.028566162109374,0.00366519158706069,-0.04398229718208313,0.02321287989616394
1766400177428616200,9.0486162109375,0.05253441259264946,-0.0806342139840126,-0.02321287989616394
1766400177448666400,9.068666259765624,0.015882495790719986,-0.09407325088977814,-0.3176499307155609
1766400177458676000,9.078676025390624,0.015882495790719986,-0.07941248267889023,-0.23335053026676178
1766400177468685800,9.088685791015624,0.0403171069920063,-0.06108652427792549,-0.04153883829712868
1766400177478695700,9.09869580078125,0.04764748737215996,-0.03787364438176155,0.09651670604944229
1766400177488736000,9.108736083984375,0.028099801391363144,-0.01466076634824276,0.15027284622192383
1766400177498745600,9.11874560546875,0.024434609338641167,0.013439035043120384,0.19058994948863983
1766400177508755500,9.12875537109375,0.039095375686883926,0.03176499158143997,0.2223549485206604
1766400177528836000,9.148836181640625,0.05497787147760391,0.030543262138962746,0.09162978827953339
1766400177558865400,9.178865478515625,0.0354301854968071,0.006108652334660292,-0.07941248267889023
1766400177568905500,9.188905517578124,0.04764748737215996,0,-0.02076941914856434
1766400177578945800,9.19894580078125,0.04398229718208313,0.00366519158706069,0.009773843921720982
1766400177588955600,9.20895556640625,0.0403171069920063,0.00733038317412138,0.009773843921720982
1766400177598934800,9.218934814453124,0.039095375686883926,0.00366519158706069,0.0012217304902151227
1766400177608944600,9.228944580078124,0.039095375686883926,0.0012217304902151227,-0.018325956538319588
1766400177618954500,9.23895458984375,0.039095375686883926,-0.0024434609804302454,-0.06230825558304787
1766400177639035000,9.259034912109374,0.02932153269648552,-0.006108652334660292,-0.09040805697441101
1766400177649044700,9.269044677734374,0.02932153269648552,-0.006108652334660292,-0.09040805697441101
1766400177659054600,9.2790546875,0.021991148591041565,-0.0012217304902151227,-0.05009094998240471
1766400177669094700,9.2890947265625,0.015882495790719986,-0.0024434609804302454,-0.021991148591041565
1766400177679135000,9.299135009765624,0.021991148591041565,-0.00366519158706069,-0.010995574295520782
1766400177689144800,9.309144775390624,0.03420845419168472,0,-0.02687807008624077
1766400177699185200,9.31918505859375,0.03176499158143997,0.00733038317412138,-0.0708603709936142
1766400177709225500,9.3292255859375,0.02932153269648552,0.01466076634824276,-0.08307767659425735
1766400177739346200,9.35934619140625,0.05375614017248154,0.02687807008624077,-0.1160643994808197
1766400177749356000,9.36935595703125,0.04764748737215996,0.03420845419168472,-0.06352998316287994
1766400177759366000,9.379365966796875,0.059864792972803116,0.0403171069920063,0.01710422709584236
1766400177769375500,9.38937548828125,0.05864306539297104,0.04153883829712868,0.03176499158143997
1766400177779385300,9.39938525390625,0.051312681287527084,0.05009094998240471,-0.004886921960860491
1766400177789395200,9.409395263671875,0.04398229718208313,0.06230825558304787,-0.015882495790719986
1766400177799404800,9.41940478515625,0.04764748737215996,0.06963863968849182,0.006108652334660292
1766400177809414700,9.42941455078125,0.024434609338641167,0.06352998316287994,0.0024434609804302454
1766400177819424300,9.43942431640625,-0.010995574295520782,0.04642575979232788,-0.05253441259264946
1766400177829434000,9.44943408203125,0.04153883829712868,0.02076941914856434,-0.07452555745840073
1766400177859463400,9.47946337890625,0.009773843921720982,-0.051312681287527084,0.036651913076639175
1766400177879513600,9.499513671875,0.004886921960860491,-0.06841690838336945,0.1563815027475357
1766400177889553700,9.5095537109375,-0.0012217304902151227,-0.07208210229873657,0.1417207419872284
1766400177899563500,9.5195634765625,-0.015882495790719986,-0.06963863968849182,0.10018189996480942
1766400177909573400,9.529573486328125,-0.04886921867728233,-0.07208210229873657,0.019547687843441963
1766400177919583000,9.5395830078125,-0.06475171446800232,-0.0806342139840126,-0.05619960278272629
1766400177949612300,9.5696123046875,-0.0659734457731247,-0.05375614017248154,0.01466076634824276
1766400177959652600,9.579652587890624,-0.06475171446800232,-0.045204028487205505,0.09285151958465576
1766400177969693000,9.58969287109375,-0.05375614017248154,-0.04398229718208313,0.14294247329235077
1766400177979702800,9.599702880859375,-0.04153883829712868,-0.05253441259264946,0.1563815027475357
1766400177989742800,9.609742919921874,-0.039095375686883926,-0.059864792972803116,0.1417207419872284
1766400177999752700,9.619752685546874,-0.0354301854968071,-0.0708603709936142,0.12095131725072861
1766400178009762600,9.629762451171874,-0.03787364438176155,-0.07452555745840073,0.07819075137376785
1766400178019772200,9.639772216796874,-0.045204028487205505,-0.0757472887635231,0.0354301854968071
1766400178049801500,9.669801513671874,-0.03420845419168472,-0.07696902006864548,0.09651670604944229
1766400178059811300,9.679811279296874,-0.042760565876960754,-0.05497787147760391,0.1771509200334549
1766400178069821200,9.6898212890625,-0.04398229718208313,-0.04398229718208313,0.24678955972194672
1766400178079861500,9.699861572265625,-0.0354301854968071,-0.0403171069920063,0.2785545587539673
1766400178089871000,9.70987109375,-0.02932153269648552,-0.03420845419168472,0.25534167885780334
1766400178099911400,9.719911376953124,-0.036651913076639175,-0.03420845419168472,0.2174680233001709
1766400178109921300,9.72992138671875,-0.03420845419168472,-0.03787364438176155,0.2028072625398636
1766400178119931000,9.739930908203124,-0.025656340643763542,-0.042760565876960754,0.2015855312347412
1766400178160031000,9.780031005859374,-0.028099801391363144,-0.04886921867728233,0.14782938361167908
1766400178180050700,9.80005078125,-0.02687807008624077,-0.05619960278272629,0.10506882518529892
1766400178190060300,9.810060302734374,-0.02932153269648552,-0.059864792972803116,0.0708603709936142
1766400178200100600,9.8201005859375,-0.021991148591041565,-0.06230825558304787,0.042760565876960754
1766400178220120000,9.8401201171875,-0.012217304669320583,-0.06719517707824707,0.05009094998240471
1766400178230160400,9.850160400390624,-0.006108652334660292,-0.0659734457731247,0.059864792972803116
1766400178250180000,9.87018017578125,0.004886921960860491,-0.06230825558304787,-0.0012217304902151227
1766400178260189700,9.880189697265624,0.021991148591041565,-0.0659734457731247,-0.06841690838336945
1766400178270260500,9.890260498046874,0.019547687843441963,-0.059864792972803116,-0.13316862285137177
1766400178280270300,9.900270263671874,0.01466076634824276,-0.05009094998240471,-0.1368338167667389
1766400178290310700,9.910310546875,0.01466076634824276,-0.036651913076639175,-0.0757472887635231
1766400178300289800,9.920289794921874,0.024434609338641167,-0.02321287989616394,-0.009773843921720982
1766400178310299600,9.930299560546874,0.02687807008624077,-0.013439035043120384,0.01466076634824276
1766400178320309500,9.9403095703125,0.019547687843441963,-0.00366519158706069,0.0024434609804302454
1766400178330319000,9.950319091796874,0.021991148591041565,-0.00733038317412138,-0.004886921960860491
1766400178340329000,9.960328857421874,0.028099801391363144,-0.009773843921720982,-0.00855211354792118
1766400178370388700,9.990388671875,0.02321287989616394,-0.00855211354792118,-0.04398229718208313
1766400178390408200,10.010408203125,0.02321287989616394,-0.024434609338641167,-0.02321287989616394
1766400178400418000,10.02041796875,0.01710422709584236,-0.030543262138962746,-0.02076941914856434
1766400178410428000,10.030427978515625,0.013439035043120384,-0.03420845419168472,-0.02321287989616394
1766400178420468000,10.040468017578124,0.013439035043120384,-0.03787364438176155,-0.01466076634824276
1766400178430508300,10.05050830078125,0.004886921960860491,-0.036651913076639175,-0.00733038317412138
1766400178480618200,10.1006181640625,-0.0024434609804302454,-0.00366519158706069,-0.0012217304902151227
1766400178490628000,10.110628173828125,-0.0012217304902151227,0.0024434609804302454,0.00366519158706069
1766400178500668200,10.120668212890624,-0.0012217304902151227,0.010995574295520782,-0.009773843921720982
1766400178510708500,10.13070849609375,0.0024434609804302454,0.02321287989616394,-0.04642575979232788
1766400178520718300,10.14071826171875,0.010995574295520782,0.0354301854968071,-0.07941248267889023
1766400178530728200,10.150728271484375,0.010995574295520782,0.045204028487205505,-0.10018189996480942
1766400178570797600,10.190797607421874,0.015882495790719986,0.07819075137376785,0.09529497474431992
1766400178580807400,10.200807373046874,0.012217304669320583,0.08674286305904388,0.11728613078594208
1766400178590817300,10.2108173828125,0.006108652334660292,0.09651670604944229,0.11484266817569733
1766400178600827000,10.220826904296874,0.004886921960860491,0.10506882518529892,0.1014036312699318
1766400178610836700,10.230836669921874,0.006108652334660292,0.11239920556545258,0.07330382615327835
1766400178620846600,10.2408466796875,0.0012217304902151227,0.1160643994808197,0.03176499158143997
1766400178630886700,10.25088671875,-0.00366519158706069,0.11362093687057495,-0.00855211354792118
1766400178640927000,10.260927001953124,0.006108652334660292,0.1111774742603302,-0.02321287989616394
1766400178671017500,10.291017578125,0,0.13927727937698364,0.13805554807186127
1766400178681057800,10.301057861328125,0.004886921960860491,0.14416420459747314,0.16371189057826996
1766400178691067400,10.3110673828125,0.0012217304902151227,0.14416420459747314,0.11972958594560623
1766400178701107700,10.321107666015624,-0.00366519158706069,0.14294247329235077,0.051312681287527084
1766400178711178500,10.331178466796874,-0.00733038317412138,0.14782938361167908,0.006108652334660292
1766400178721218800,10.34121875,-0.00366519158706069,0.15271630883216858,-0.012217304669320583
1766400178731228700,10.351228759765625,-0.0012217304902151227,0.15393804013729095,0.00366519158706069
1766400178741268700,10.361268798828124,0.0012217304902151227,0.1661553531885147,0.05375614017248154
1766400178771298000,10.391298095703124,-0.015882495790719986,0.2125810980796814,0.07208210229873657
1766400178781338400,10.40133837890625,-0.015882495790719986,0.23335053026676178,0.06230825558304787
1766400178791348200,10.41134814453125,-0.013439035043120384,0.25534167885780334,0.0708603709936142
1766400178801388500,10.421388427734374,-0.028099801391363144,0.27122417092323303,0.08796459436416626
1766400178811428900,10.431428955078125,-0.02932153269648552,0.26511552929878235,0.07819075137376785
1766400178821438500,10.4414384765625,-0.02687807008624077,0.251676470041275,0.02076941914856434
1766400178831478800,10.451478759765624,-0.04153883829712868,0.2480112910270691,-0.05497787147760391
1766400178841488600,10.461488525390624,-0.05497787147760391,0.24190263450145721,-0.08185594528913498
1766400178851498200,10.471498291015624,-0.04886921867728233,0.22968533635139465,-0.05253441259264946
1766400178881558300,10.501558349609375,-0.05619960278272629,0.21991148591041565,0.06841690838336945
1766400178901608200,10.521608154296874,-0.0403171069920063,0.2223549485206604,0.12217304855585098
1766400178911648500,10.5316484375,-0.036651913076639175,0.2174680233001709,0.13072516024112701
1766400178921658400,10.541658447265625,-0.018325956538319588,0.2028072625398636,0.13439035415649414
1766400178931668000,10.55166796875,0.0024434609804302454,0.18325957655906677,0.1111774742603302
1766400178941677800,10.561677734375,0.004886921960860491,0.1563815027475357,0.0354301854968071
1766400178951718100,10.57171826171875,0.00733038317412138,0.11972958594560623,-0.06352998316287994
1766400178981808400,10.601808349609374,0.024434609338641167,0.07452555745840073,-0.10751228034496307
1766400178991848700,10.6118486328125,0.03787364438176155,0.08429940044879913,0.009773843921720982
1766400179001858600,10.621858642578125,0.03298672288656235,0.1014036312699318,0.08429940044879913
1766400179011898600,10.631898681640624,0.013439035043120384,0.12095131725072861,0.09529497474431992
1766400179021939000,10.64193896484375,0.015882495790719986,0.1258382350206375,0.08307767659425735
1766400179031948800,10.65194873046875,0.019547687843441963,0.11972958594560623,0.03298672288656235
1766400179041989000,10.661989013671874,0.00855211354792118,0.10995574295520782,-0.04764748737215996
1766400179051998700,10.671998779296874,0.019547687843441963,0.09529497474431992,-0.06841690838336945
1766400179092068400,10.712068359375,0.01710422709584236,0.06475171446800232,0
1766400179102108700,10.722108642578124,0.021991148591041565,0.06352998316287994,0.004886921960860491
1766400179112149000,10.73214892578125,0.010995574295520782,0.04764748737215996,-0.04642575979232788
1766400179122158800,10.742158935546875,0.00733038317412138,0.01466076634824276,-0.10384709388017654
1766400179132199000,10.752198974609374,0.00733038317412138,0.01466076634824276,-0.10384709388017654
1766400179142208800,10.762208740234374,-0.03420845419168472,-0.019547687843441963,-0.2174680233001709
1766400179152218600,10.772218505859374,-0.03420845419168472,-0.019547687843441963,-0.2174680233001709
1766400179162228200,10.782228271484374,-0.00366519158706069,-0.02687807008624077,-0.1319468915462494
1766400179202328300,10.822328369140624,-0.004886921960860491,-0.018325956538319588,0.1563815027475357
1766400179212368600,10.83236865234375,0,-0.03176499158143997,0.08674286305904388
1766400179222378500,10.84237841796875,-0.006108652334660292,-0.05253441259264946,0.02687807008624077
1766400179232388400,10.852388427734375,0.009773843921720982,-0.06963863968849182,0.00855211354792118
1766400179242398000,10.86239794921875,0.010995574295520782,-0.07819075137376785,0.042760565876960754
1766400179262417400,10.88241748046875,0.03787364438176155,-0.06108652427792549,0.18448130786418915
1766400179272427300,10.89242724609375,0.04398229718208313,-0.039095375686883926,0.17959438264369965
1766400179282437000,10.90243701171875,0.04886921867728233,-0.021991148591041565,0.12095131725072861
1766400179292477400,10.9124775390625,0.042760565876960754,-0.00855211354792118,0.0806342139840126
1766400179302487000,10.922487060546874,0.05497787147760391,0.006108652334660292,0.07452555745840073
1766400179312527400,10.93252734375,0.0659734457731247,0.01710422709584236,0.04886921867728233
1766400179322537200,10.942537109375,0.06841690838336945,0.01710422709584236,0.00855211354792118
1766400179332577500,10.95257763671875,0.06719517707824707,0.018325956538319588,-0.013439035043120384
1766400179342587100,10.962587158203124,0.05619960278272629,0.01710422709584236,-0.021991148591041565
1766400179352597000,10.972596923828124,0.06475171446800232,0.009773843921720982,-0.02076941914856434
1766400179362576100,10.982576171875,0.05619960278272629,-0.00733038317412138,-0.02687807008624077
1766400179382595800,11.002595947265625,0.0403171069920063,-0.04886921867728233,-0.04642575979232788
1766400179412625200,11.032625244140625,0.00733038317412138,-0.08552113175392151,-0.04642575979232788
1766400179422634800,11.042634765625,-0.004886921960860491,-0.08796459436416626,-0.0806342139840126
1766400179432644600,11.05264453125,-0.00733038317412138,-0.09040805697441101,-0.10751228034496307
1766400179442654500,11.062654541015625,-0.00733038317412138,-0.08552113175392151,-0.12095131725072861
1766400179452694500,11.072694580078124,-0.010995574295520782,-0.0757472887635231,-0.13439035415649414
1766400179462674000,11.082673828125,-0.00855211354792118,-0.059864792972803116,-0.15393804013729095
1766400179472683500,11.09268359375,-0.0024434609804302454,-0.04886921867728233,-0.1869247704744339
1766400179502743600,11.12274365234375,-0.01710422709584236,0.01466076634824276,-0.21624629199504852
1766400179512753200,11.132753173828124,-0.018325956538319588,0.036651913076639175,-0.1514945775270462
1766400179522763000,11.142762939453124,-0.013439035043120384,0.0659734457731247,-0.09040805697441101
1766400179532772900,11.15277294921875,-0.018325956538319588,0.09407325088977814,-0.08185594528913498
1766400179542782500,11.162782470703124,-0.01710422709584236,0.10873401165008545,-0.1258382350206375
1766400179552822800,11.17282275390625,0.0012217304902151227,0.10751228034496307,-0.20402899384498596
1766400179562832600,11.18283251953125,-0.0012217304902151227,0.11972958594560623,-0.294437050819397
1766400179572842200,11.19284228515625,-0.00366519158706069,0.1417207419872284,-0.3396410644054413
1766400179592923000,11.2129228515625,0.006108652334660292,0.1771509200334549,-0.2590068578720093
1766400179622982700,11.242982666015624,0.00855211354792118,0.16737708449363708,-0.22968533635139465
1766400179633023000,11.25302294921875,-0.03298672288656235,0.14416420459747314,-0.3066543638706207
1766400179643032800,11.26303271484375,-0.04886921867728233,0.1062905490398407,-0.3530801236629486
1766400179653042400,11.27304248046875,-0.045204028487205505,0.08674286305904388,-0.35674530267715454
1766400179663052300,11.28305224609375,-0.04398229718208313,0.0757472887635231,-0.2993239760398865
1766400179673092600,11.293092529296874,-0.03176499158143997,0.07696902006864548,-0.18325957655906677
1766400179723202600,11.34320263671875,-0.01710422709584236,0.03787364438176155,-0.17592918872833252
1766400179733273300,11.3532734375,-0.01710422709584236,0.03420845419168472,-0.23090706765651703
1766400179743313400,11.3633134765625,-0.006108652334660292,0.030543262138962746,-0.26145032048225403
1766400179753323300,11.3733232421875,-0.00855211354792118,0.02932153269648552,-0.251676470041275
1766400179763333000,11.3833330078125,-0.012217304669320583,0.03298672288656235,-0.1722639948129654
1766400179773342700,11.3933427734375,-0.015882495790719986,0.028099801391363144,-0.06230825558304787
1766400179783383000,11.403383056640624,-0.015882495790719986,0.02932153269648552,0.03420845419168472
1766400179823452700,11.44345263671875,-0.013439035043120384,0.0354301854968071,0.02076941914856434
1766400179843502800,11.4635029296875,-0.010995574295520782,0.04153883829712868,0.010995574295520782
1766400179853573600,11.47357373046875,-0.00733038317412138,0.04153883829712868,0.030543262138962746
1766400179863613700,11.48361376953125,-0.00733038317412138,0.04153883829712868,0.030543262138962746
1766400179873623600,11.49362353515625,-0.0024434609804302454,0.042760565876960754,0.09529497474431992
1766400179883633400,11.50363330078125,0.009773843921720982,0.03787364438176155,0.14905111491680145
1766400179923764000,11.543763916015624,0.021991148591041565,0.021991148591041565,-0.015882495790719986
1766400179933773800,11.55377392578125,0.02321287989616394,0.03420845419168472,-0.01466076634824276
1766400179943783400,11.563783447265624,0.030543262138962746,0.039095375686883926,-0.0012217304902151227
1766400179953823700,11.57382373046875,0.02321287989616394,0.0403171069920063,0.0012217304902151227
1766400179963833600,11.58383349609375,0.018325956538319588,0.036651913076639175,0.00855211354792118
1766400179973812700,11.593812744140624,0.012217304669320583,0.03420845419168472,0.01710422709584236
1766400179983853000,11.60385302734375,0.004886921960860491,0.03298672288656235,0.004886921960860491
1766400179993863000,11.61386279296875,0.006108652334660292,0.02687807008624077,-0.004886921960860491
1766400180043911700,11.66391162109375,0.021991148591041565,0.00855211354792118,0.05864306539297104
1766400180053952000,11.673951904296874,0.024434609338641167,0.0012217304902151227,-0.03176499158143997
1766400180063961600,11.683961669921874,0.00366519158706069,-0.00733038317412138,-0.10384709388017654
1766400180074002000,11.694001953125,0.006108652334660292,-0.009773843921720982,-0.06841690838336945
1766400180084011800,11.70401171875,-0.02076941914856434,-0.00733038317412138,0.010995574295520782
1766400180094021600,11.714021728515625,0.02687807008624077,-0.013439035043120384,0.10262536257505417
1766400180124081400,11.744081298828124,0.01710422709584236,-0.0403171069920063,0.02687807008624077
1766400180134060500,11.754060546875,0.024434609338641167,-0.04642575979232788,0
1766400180144100900,11.764100830078124,0.028099801391363144,-0.04764748737215996,-0.02076941914856434
1766400180154141200,11.77414111328125,0.039095375686883926,-0.05742133408784866,0.00366519158706069
1766400180174130200,11.794130126953124,0.00855211354792118,-0.04642575979232788,0.07452555745840073
1766400180184170500,11.80417041015625,0.0012217304902151227,-0.0354301854968071,0.1417207419872284
1766400180194180400,11.814180419921875,-0.010995574295520782,-0.036651913076639175,0.1722639948129654
1766400180214199800,11.83419970703125,-0.02321287989616394,-0.059864792972803116,0.00366519158706069
1766400180244290000,11.8642900390625,-0.02321287989616394,-0.06963863968849182,0.07330382615327835
1766400180254269400,11.87426953125,-0.024434609338641167,-0.06352998316287994,0.1820378452539444
1766400180264309500,11.8843095703125,0,-0.06963863968849182,0.2590068578720093
1766400180274349800,11.894349853515624,0.00855211354792118,-0.07330382615327835,0.27611109614372253
1766400180284359700,11.904359619140624,0,-0.08307767659425735,0.22602014243602753
1766400180294338800,11.9143388671875,0.012217304669320583,-0.09773843735456467,0.14905111491680145
1766400180304379100,11.924379150390624,0.02076941914856434,-0.11728613078594208,0.05497787147760391
1766400180314389000,11.934388916015624,0.004886921960860491,-0.12461651116609573,-0.02321287989616394
1766400180324429300,11.94442919921875,0.0012217304902151227,-0.12950342893600464,-0.025656340643763542
1766400180334408400,11.954408447265624,0.009773843921720982,-0.13805554807186127,0.019547687843441963
1766400180344448800,11.96444873046875,0.018325956538319588,-0.14416420459747314,0.06475171446800232
1766400180354458600,11.974458740234375,0.021991148591041565,-0.14782938361167908,0.10262536257505417
1766400180364468200,11.98446826171875,0.01466076634824276,-0.16249015927314758,0.1368338167667389
1766400180374447600,11.994447509765624,0.009773843921720982,-0.18325957655906677,0.1417207419872284
1766400180384488000,12.004488037109375,0.02076941914856434,-0.2015855312347412,0.12339477986097336
1766400180394558700,12.014558837890625,0.018325956538319588,-0.2125810980796814,0.08796459436416626
1766400180404568300,12.024568359375,0.00733038317412138,-0.23579397797584534,0.09651670604944229
1766400180434658800,12.054658935546875,0.03176499158143997,-0.2528982162475586,0.1514945775270462
1766400180454678300,12.07467822265625,0.03787364438176155,-0.2528982162475586,0.14538592100143433
1766400180464688000,12.084688232421875,0.0708603709936142,-0.251676470041275,0.10873401165008545
1766400180474697700,12.09469775390625,0.09407325088977814,-0.24434609711170197,0.010995574295520782
1766400180484707600,12.10470751953125,0.10506882518529892,-0.23579397797584534,-0.08307767659425735
1766400180494717400,12.114717529296875,0.12950342893600464,-0.22479841113090515,-0.08674286305904388
1766400180504727000,12.12472705078125,0.13927727937698364,-0.20402899384498596,-0.012217304669320583
1766400180514737000,12.13473681640625,0.15271630883216858,-0.18814650177955627,0.0806342139840126
1766400180554837000,12.1748369140625,0.1820378452539444,-0.10873401165008545,0.06108652427792549
1766400180564846800,12.184846923828125,0.18570303916931152,-0.08796459436416626,-0.02321287989616394
1766400180574856400,12.1948564453125,0.18570303916931152,-0.06230825558304787,-0.08552113175392151
1766400180584896800,12.204896728515624,0.20525072515010834,-0.042760565876960754,-0.13316862285137177
1766400180594937000,12.21493701171875,0.20525072515010834,-0.042760565876960754,-0.13316862285137177
1766400180604916200,12.224916259765624,0.2223549485206604,-0.030543262138962746,-0.17592918872833252
1766400180614895600,12.2348955078125,0.21868975460529327,-0.00366519158706069,-0.16493362188339233
1766400180624936000,12.24493603515625,0.2076941877603531,0.030543262138962746,-0.042760565876960754
1766400180654934500,12.2749345703125,0.22602014243602753,0.03787364438176155,0.15882496535778046
1766400180664974800,12.284974853515624,0.15882496535778046,0.028099801391363144,0.0659734457731247
1766400180675015200,12.29501513671875,0.13316862285137177,0.0024434609804302454,0.018325956538319588
1766400180685055500,12.305055419921874,0.15515977144241333,-0.024434609338641167,-0.0012217304902151227
1766400180705075000,12.325074951171874,0.12217304855585098,-0.02932153269648552,-0.0024434609804302454
1766400180715084800,12.335084716796874,0.11362093687057495,-0.024434609338641167,0.13439035415649414
1766400180725094700,12.3450947265625,0.09896016865968704,-0.02687807008624077,0.2724458873271942
1766400180795254500,12.415254638671875,0.02321287989616394,-0.0354301854968071,0.010995574295520782
1766400180805233700,12.425233642578124,0.01710422709584236,-0.03298672288656235,0.03176499158143997
1766400180815274000,12.43527392578125,0.01466076634824276,-0.0354301854968071,0.05253441259264946
1766400180825314300,12.445314208984374,-0.00366519158706069,-0.0403171069920063,0.03176499158143997
1766400180835354600,12.455354736328125,-0.012217304669320583,-0.05497787147760391,0.0024434609804302454
1766400180845395000,12.46539501953125,-0.00855211354792118,-0.06475171446800232,-0.010995574295520782
1766400180855404500,12.475404541015624,-0.02321287989616394,-0.06352998316287994,0.02321287989616394
1766400180885495000,12.5054951171875,-0.024434609338641167,0.00855211354792118,0.1014036312699318
1766400180895504600,12.515504638671874,-0.012217304669320583,0.05009094998240471,0.11728613078594208
1766400180905514500,12.525514404296874,0.00733038317412138,0.08307767659425735,0.13072516024112701
1766400180915524000,12.535524169921874,0.013439035043120384,0.11239920556545258,0.13805554807186127
1766400180925534000,12.545533935546874,0.018325956538319588,0.13072516024112701,0.1368338167667389
1766400180935574300,12.55557421875,0.03176499158143997,0.13805554807186127,0.12950342893600464
1766400180945584000,12.565584228515625,0.04764748737215996,0.11362093687057495,0.11972958594560623
1766400180955624400,12.57562451171875,0.00855211354792118,0.08307767659425735,-0.03420845419168472
1766400180975644000,12.595643798828124,0.06108652427792549,0.009773843921720982,-0.11239920556545258
1766400180985653500,12.605653564453124,-0.00733038317412138,0.0024434609804302454,-0.1062905490398407
1766400180995693800,12.61569384765625,-0.012217304669320583,-0.013439035043120384,-0.09407325088977814
1766400181005673200,12.625673095703124,-0.0012217304902151227,-0.03298672288656235,-0.06108652427792549
1766400181015744000,12.635743896484374,-0.00733038317412138,-0.03176499158143997,-0.051312681287527084
1766400181025723100,12.64572314453125,-0.01466076634824276,-0.015882495790719986,-0.03298672288656235
1766400181035733000,12.65573291015625,-0.018325956538319588,0.0024434609804302454,-0.024434609338641167
1766400181045773300,12.665773193359374,-0.03787364438176155,0.028099801391363144,-0.03787364438176155
1766400181055813600,12.675813720703125,-0.06719517707824707,0.05009094998240471,-0.07819075137376785
1766400181065853700,12.685853759765624,-0.0708603709936142,0.05497787147760391,-0.12339477986097336
1766400181095944200,12.715944091796874,-0.024434609338641167,-0.01466076634824276,-0.33719760179519653
1766400181105953800,12.725953857421874,-0.036651913076639175,-0.024434609338641167,-0.27122417092323303
1766400181116055300,12.73605517578125,-0.0403171069920063,-0.021991148591041565,-0.1111774742603302
1766400181126034400,12.746034423828124,-0.02687807008624077,-0.010995574295520782,0.05253441259264946
1766400181136074800,12.75607470703125,-0.03298672288656235,0.019547687843441963,0.10384709388017654
1766400181146115000,12.766114990234374,-0.0354301854968071,0.04886921867728233,0.028099801391363144
1766400181156155400,12.7761552734375,-0.04153883829712868,0.0757472887635231,-0.06108652427792549
1766400181186184700,12.806184814453125,0.009773843921720982,0.05253441259264946,-0.07452555745840073
1766400181196225000,12.81622509765625,0.019547687843441963,0.04398229718208313,-0.11972958594560623
1766400181206234600,12.826234619140624,0.0024434609804302454,0.0354301854968071,-0.1563815027475357
1766400181216275000,12.83627490234375,0.013439035043120384,0.02076941914856434,-0.1160643994808197
1766400181226284800,12.846284912109375,0.013439035043120384,0.00855211354792118,-0.059864792972803116
1766400181236294400,12.85629443359375,0.010995574295520782,0.0024434609804302454,-0.051312681287527084
1766400181246304300,12.86630419921875,-0.0012217304902151227,-0.0012217304902151227,-0.05619960278272629
1766400181256344600,12.876344482421874,-0.010995574295520782,0.004886921960860491,-0.02687807008624077
1766400181266323700,12.88632373046875,-0.00366519158706069,0.0012217304902151227,-0.010995574295520782
1766400181296383500,12.916383544921874,0.021991148591041565,0.004886921960860491,-0.07941248267889023
1766400181306393300,12.926393310546874,0.010995574295520782,0.018325956538319588,-0.11239920556545258
1766400181316433700,12.93643359375,0.006108652334660292,0.025656340643763542,-0.10873401165008545
1766400181326412800,12.946412841796874,0.028099801391363144,0.03176499158143997,-0.06963863968849182
1766400181336483600,12.956483642578124,0.028099801391363144,0.03176499158143997,-0.06963863968849182
1766400181346493400,12.966493408203124,0.036651913076639175,0.042760565876960754,-0.039095375686883926
1766400181356533800,12.97653369140625,0.036651913076639175,0.042760565876960754,-0.039095375686883926
1766400181366513000,12.986512939453124,0.042760565876960754,0.05253441259264946,-0.02321287989616394
1766400181396573000,13.016572998046875,0.02687807008624077,0.039095375686883926,-0.012217304669320583
1766400181406613000,13.026613037109374,0.039095375686883926,0.028099801391363144,-0.00366519158706069
1766400181416653300,13.0366533203125,0.0403171069920063,0.02321287989616394,-0.02321287989616394
1766400181426663200,13.0466630859375,0.042760565876960754,0.019547687843441963,-0.045204028487205505
1766400181436673000,13.056673095703125,0.04642575979232788,0.019547687843441963,-0.03176499158143997
1766400181446682600,13.0666826171875,0.04886921867728233,0.02321287989616394,-0.019547687843441963
1766400181456692500,13.0766923828125,0.04886921867728233,0.030543262138962746,-0.00733038317412138
1766400181466702000,13.0867021484375,0.0354301854968071,0.024434609338641167,-0.02687807008624077
1766400181496762000,13.11676220703125,0.024434609338641167,-0.012217304669320583,-0.13561208546161652
1766400181506771700,13.126771728515624,-0.004886921960860491,-0.02321287989616394,-0.11484266817569733
1766400181516842500,13.136842529296874,0.019547687843441963,-0.04398229718208313,0.009773843921720982
1766400181526852400,13.146852294921874,0.028099801391363144,-0.05375614017248154,0.07941248267889023
1766400181536892700,13.156892578125,-0.004886921960860491,-0.04153883829712868,0.04642575979232788
1766400181546871800,13.166871826171874,-0.004886921960860491,-0.02932153269648552,0.0354301854968071
1766400181556912000,13.176912109375,0.01466076634824276,-0.019547687843441963,0.04642575979232788
1766400181566922000,13.186921875,0.00855211354792118,-0.009773843921720982,0.00366519158706069
1766400181586941400,13.20694140625,-0.01466076634824276,0.01466076634824276,-0.07330382615327835
1766400181606961000,13.2269609375,0.05497787147760391,-0.0012217304902151227,-0.09040805697441101
1766400181616970800,13.236970703125,0.03420845419168472,0.013439035043120384,-0.1270599663257599
1766400181626980600,13.246980712890625,0.039095375686883926,0.025656340643763542,-0.05375614017248154
1766400181637021000,13.25702099609375,0.051312681287527084,0.030543262138962746,0.09162978827953339
1766400181647030500,13.267030517578124,0.024434609338641167,0.02932153269648552,0.12217304855585098
1766400181657101300,13.277101318359374,-0.024434609338641167,0.013439035043120384,-0.030543262138962746
1766400181667141600,13.2871416015625,0.04764748737215996,-0.02076941914856434,-0.13561208546161652
1766400181677151500,13.2971513671875,0.018325956538319588,-0.03420845419168472,-0.17470745742321014
1766400181697171000,13.3171708984375,-0.02932153269648552,-0.03298672288656235,0.08307767659425735
1766400181717251600,13.33725146484375,-0.028099801391363144,-0.0354301854968071,0.28588494658470154
1766400181727292000,13.3472919921875,-0.039095375686883926,-0.024434609338641167,0.17592918872833252
1766400181737301500,13.357301513671874,-0.05375614017248154,-0.010995574295520782,0.0659734457731247
1766400181747311400,13.367311279296874,-0.08796459436416626,0,-0.00733038317412138
1766400181757351700,13.3773515625,-0.09407325088977814,0.00855211354792118,-0.012217304669320583
1766400181767361300,13.387361328125,-0.08185594528913498,0.006108652334660292,0.018325956538319588
1766400181777371100,13.39737109375,-0.0659734457731247,0.004886921960860491,0.02687807008624077
1766400181797451800,13.41745166015625,-0.030543262138962746,0,0.013439035043120384
1766400181807492000,13.4274921875,-0.009773843921720982,0,0.01466076634824276
1766400181817532200,13.4375322265625,-0.00366519158706069,0.006108652334660292,0.021991148591041565
1766400181827542000,13.4475419921875,0.025656340643763542,0.00855211354792118,0.02321287989616394
1766400181837582300,13.457582275390624,0.05009094998240471,0.013439035043120384,-0.019547687843441963
1766400181847592200,13.46759228515625,0.04153883829712868,0.018325956538319588,-0.07696902006864548
1766400181857601800,13.477601806640624,0.0403171069920063,0.012217304669320583,-0.06963863968849182
1766400181867642000,13.48764208984375,0.03420845419168472,0.012217304669320583,-0.030543262138962746
1766400181877682400,13.497682373046874,0.01710422709584236,0.013439035043120384,-0.01710422709584236
1766400181887722800,13.50772265625,0.015882495790719986,0.010995574295520782,-0.028099801391363144
1766400181917782500,13.537782470703124,-0.0012217304902151227,0.03176499158143997,-0.009773843921720982
1766400181927792400,13.54779248046875,0.012217304669320583,0.03176499158143997,0.04886921867728233
1766400181937802000,13.557802001953124,0.02321287989616394,0.024434609338641167,0.07941248267889023
1766400181947811800,13.567811767578124,0.01466076634824276,0.015882495790719986,0.06841690838336945
1766400181957852200,13.57785205078125,0.012217304669320583,0.006108652334660292,0.059864792972803116
1766400181967861800,13.58786181640625,0.00366519158706069,0.00366519158706069,0.0708603709936142
1766400181977902000,13.597902099609374,-0.004886921960860491,0.00855211354792118,0.09040805697441101
1766400181987881500,13.607881591796875,-0.009773843921720982,0.01466076634824276,0.1062905490398407
1766400182028042500,13.64804248046875,-0.012217304669320583,0.059864792972803116,0.12339477986097336
1766400182038052400,13.65805224609375,-0.009773843921720982,0.06475171446800232,0.19303341209888458
1766400182048062000,13.66806201171875,-0.012217304669320583,0.06230825558304787,0.1918116807937622
1766400182058102300,13.678102294921874,-0.009773843921720982,0.059864792972803116,0.12339477986097336
1766400182068142600,13.688142578125,-0.015882495790719986,0.05497787147760391,0.04642575979232788
1766400182078152400,13.69815234375,-0.021991148591041565,0.04642575979232788,0.00733038317412138
1766400182088192800,13.70819287109375,-0.021991148591041565,0.04642575979232788,0.00733038317412138
1766400182138302500,13.758302490234374,-0.02321287989616394,0.006108652334660292,0.2064724564552307
1766400182148312300,13.768312255859374,-0.01710422709584236,0.0012217304902151227,0.14905111491680145
1766400182158322200,13.778322265625,-0.015882495790719986,-0.00733038317412138,0.036651913076639175
1766400182168331800,13.788331787109374,-0.019547687843441963,-0.00855211354792118,-0.08552113175392151
1766400182178372000,13.7983720703125,-0.015882495790719986,-0.013439035043120384,-0.16859880089759827
1766400182188382000,13.8083818359375,-0.013439035043120384,-0.010995574295520782,-0.16004669666290283
1766400182218472200,13.83847216796875,0.004886921960860491,-0.0024434609804302454,0.06475171446800232
1766400182228482000,13.84848193359375,0.006108652334660292,-0.004886921960860491,0.0024434609804302454
1766400182238491600,13.85849169921875,0.004886921960860491,-0.01710422709584236,-0.06841690838336945
1766400182248501500,13.86850146484375,0.0024434609804302454,-0.02687807008624077,-0.11239920556545258
1766400182258541800,13.878541748046874,-0.009773843921720982,-0.030543262138962746,-0.1258382350206375
1766400182268551700,13.8885517578125,-0.03298672288656235,-0.028099801391363144,-0.06352998316287994
1766400182278561300,13.898561279296874,-0.03420845419168472,-0.02321287989616394,0.06841690838336945
1766400182288571100,13.908571044921874,-0.03787364438176155,-0.021991148591041565,0.14294247329235077
1766400182328701700,13.94870166015625,-0.028099801391363144,-0.0024434609804302454,-0.045204028487205505
1766400182338742000,13.958741943359374,-0.02932153269648552,0.012217304669320583,-0.00366519158706069
1766400182348752000,13.968751953125,-0.030543262138962746,0.028099801391363144,0.06230825558304787
1766400182358761500,13.978761474609374,-0.019547687843441963,0.039095375686883926,0.09773843735456467
1766400182368771300,13.988771240234374,-0.013439035043120384,0.051312681287527084,0.06230825558304787
1766400182378811600,13.998811767578125,-0.012217304669320583,0.059864792972803116,-0.019547687843441963
1766400182388790800,14.008790771484374,-0.010995574295520782,0.059864792972803116,-0.08918632566928864
1766400182398861600,14.018861572265624,0.0024434609804302454,0.05497787147760391,-0.10262536257505417
1766400182438961700,14.058961669921874,-0.006108652334660292,0.05864306539297104,-0.05619960278272629
1766400182448971500,14.068971435546874,-0.024434609338641167,0.06475171446800232,-0.08918632566928864
1766400182458981400,14.0789814453125,-0.03298672288656235,0.07330382615327835,-0.0806342139840126
1766400182468991000,14.088990966796874,-0.036651913076639175,0.09529497474431992,-0.030543262138962746
1766400182479000800,14.099000732421874,-0.03176499158143997,0.10384709388017654,0.042760565876960754
1766400182489010400,14.109010498046874,-0.00366519158706069,0.1014036312699318,0.06963863968849182
1766400182529080000,14.149080078125,0.009773843921720982,0.1014036312699318,-0.13316862285137177
1766400182539150800,14.15915087890625,-0.012217304669320583,0.10506882518529892,-0.09407325088977814
1766400182549191200,14.169191162109374,-0.00733038317412138,0.09773843735456467,-0.02932153269648552
1766400182559201000,14.179200927734374,0,0.09407325088977814,-0.015882495790719986
1766400182569210600,14.189210693359374,-0.006108652334660292,0.08185594528913498,-0.08674286305904388
1766400182579251000,14.1992509765625,0.0024434609804302454,0.04764748737215996,-0.17470745742321014
1766400182589260800,14.2092607421875,0,0.021991148591041565,-0.20036379992961884
1766400182599270700,14.219270751953125,-0.009773843921720982,0.0024434609804302454,-0.13805554807186127
1766400182629330400,14.249330322265624,-0.021991148591041565,-0.036651913076639175,0.015882495790719986
1766400182649350000,14.269349853515624,-0.009773843921720982,-0.04398229718208313,-0.06230825558304787
1766400182659420700,14.279420654296874,0.009773843921720982,-0.0403171069920063,-0.06719517707824707
1766400182669430500,14.289430419921874,0.010995574295520782,-0.03298672288656235,-0.04642575979232788
1766400182679440100,14.299440185546874,0.015882495790719986,-0.02321287989616394,-0.004886921960860491
1766400182689450000,14.309449951171874,0.018325956538319588,-0.015882495790719986,0.010995574295520782
1766400182699459800,14.3194599609375,0.025656340643763542,-0.013439035043120384,-0.00855211354792118
1766400182739498800,14.359498779296874,0.010995574295520782,-0.004886921960860491,0.0806342139840126
1766400182749508600,14.369508544921874,0.01466076634824276,0.00366519158706069,0.06230825558304787
1766400182759549000,14.379548828125,0.01710422709584236,0.010995574295520782,0.03176499158143997
1766400182769558500,14.38955859375,0.02687807008624077,0.018325956538319588,0.01710422709584236
1766400182779629600,14.399629638671875,0.02932153269648552,0.036651913076639175,0.010995574295520782
1766400182789639200,14.40963916015625,0.02932153269648552,0.051312681287527084,0.013439035043120384
1766400182799679500,14.419679443359374,0.02687807008624077,0.06108652427792549,0.004886921960860491
1766400182809689300,14.429689453125,0.01710422709584236,0.06108652427792549,-0.01466076634824276
1766400182839779600,14.459779541015624,0.006108652334660292,0.04764748737215996,0.019547687843441963
1766400182849789400,14.46978955078125,0.00366519158706069,0.03176499158143997,0.10873401165008545
1766400182859860200,14.479860107421874,0.00366519158706069,0.03176499158143997,0.10873401165008545
1766400182869869800,14.489869873046874,0.0012217304902151227,0.03298672288656235,0.11728613078594208
1766400182879879700,14.499879638671874,-0.004886921960860491,0.045204028487205505,0.11362093687057495
1766400182889889500,14.5098896484375,-0.010995574295520782,0.05253441259264946,0.05375614017248154
1766400182899929900,14.519929931640625,-0.02321287989616394,0.06108652427792549,-0.05253441259264946
1766400182909909000,14.529908935546874,-0.024434609338641167,0.07330382615327835,-0.12095131725072861
1766400182949978600,14.569978515625,-0.0012217304902151227,0.11728613078594208,-0.07819075137376785
1766400182960019000,14.58001904296875,-0.006108652334660292,0.1270599663257599,-0.051312681287527084
1766400182970028500,14.590028564453124,-0.009773843921720982,0.13316862285137177,-0.028099801391363144
1766400182980068900,14.60006884765625,-0.004886921960860491,0.13072516024112701,-0.010995574295520782
1766400182990078700,14.61007861328125,-0.012217304669320583,0.1270599663257599,-0.05009094998240471
1766400183000149500,14.6201494140625,-0.018325956538319588,0.11850785464048386,-0.11484266817569733
1766400183010128600,14.630128662109374,-0.018325956538319588,0.1062905490398407,-0.13561208546161652
1766400183050228700,14.670228759765624,-0.009773843921720982,0.05864306539297104,0.01710422709584236
1766400183060238600,14.680238525390624,-0.00366519158706069,0.05009094998240471,-0.012217304669320583
1766400183070248400,14.69024853515625,-0.00733038317412138,0.04642575979232788,-0.036651913076639175
1766400183080288500,14.70028857421875,0.00733038317412138,0.042760565876960754,-0.03176499158143997
1766400183090298400,14.71029833984375,0.010995574295520782,0.04642575979232788,-0.02687807008624077
1766400183100338700,14.720338623046874,0.0024434609804302454,0.05497787147760391,-0.021991148591041565
1766400183110379000,14.73037890625,0.00733038317412138,0.07330382615327835,0.00366519158706069
1766400183120388600,14.740388671875,0.0024434609804302454,0.09896016865968704,0.04398229718208313
1766400183180478000,14.80047802734375,0.004886921960860491,0.019547687843441963,-0.1368338167667389
1766400183200497400,14.820497314453124,0.0012217304902151227,-0.05497787147760391,0.045204028487205505
1766400183210507000,14.830507080078124,0.006108652334660292,-0.0708603709936142,0.11239920556545258
1766400183220516900,14.840516845703124,0.0024434609804302454,-0.07330382615327835,0.11484266817569733
1766400183230526700,14.850526611328124,0.0012217304902151227,-0.0757472887635231,0.08796459436416626
1766400183250546200,14.870546142578124,-0.03298672288656235,-0.05497787147760391,0.06963863968849182
1766400183260556000,14.88055615234375,-0.015882495790719986,-0.05497787147760391,0.05009094998240471
1766400183270565600,14.890565673828124,-0.004886921960860491,-0.06108652427792549,-0.006108652334660292
1766400183280606000,14.90060595703125,-0.013439035043120384,-0.07330382615327835,-0.0757472887635231
1766400183290615800,14.91061572265625,-0.0024434609804302454,-0.08307767659425735,-0.0757472887635231
1766400183300625700,14.920625732421875,0.012217304669320583,-0.08918632566928864,0.0024434609804302454
1766400183310635300,14.93063525390625,0.009773843921720982,-0.09040805697441101,0.10018189996480942
1766400183320645000,14.94064501953125,0.00855211354792118,-0.08918632566928864,0.1368338167667389
1766400183330624300,14.950624267578124,0.010995574295520782,-0.08429940044879913,0.10751228034496307
1766400183340664600,14.96066455078125,0.021991148591041565,-0.09773843735456467,0.04642575979232788
1766400183360684000,14.98068408203125,0.018325956538319588,-0.11362093687057495,-0.036651913076639175
1766400183370694000,14.99069384765625,0.024434609338641167,-0.11362093687057495,0.009773843921720982
1766400183380703700,15.000703857421875,0.03298672288656235,-0.10506882518529892,0.0757472887635231
1766400183390713300,15.01071337890625,0.02932153269648552,-0.09407325088977814,0.1014036312699318
1766400183400723200,15.02072314453125,0.02687807008624077,-0.08918632566928864,0.08552113175392151
1766400183410702300,15.030702392578124,0.019547687843441963,-0.08552113175392151,0.059864792972803116
1766400183420742700,15.04074267578125,0.013439035043120384,-0.07819075137376785,0.05497787147760391
1766400183430752500,15.05075244140625,0.00733038317412138,-0.06108652427792549,0.0757472887635231
1766400183440762400,15.060762451171875,0.0024434609804302454,-0.04764748737215996,0.08307767659425735
1766400183470761000,15.090760986328124,0.015882495790719986,-0.04153883829712868,-0.00855211354792118
1766400183480770800,15.100770751953124,0.012217304669320583,-0.039095375686883926,-0.009773843921720982
1766400183490811100,15.11081103515625,0.024434609338641167,-0.042760565876960754,0.009773843921720982
1766400183500820700,15.12082080078125,0.02321287989616394,-0.04642575979232788,0.009773843921720982
1766400183510830600,15.13083056640625,0.009773843921720982,-0.045204028487205505,-0.009773843921720982
1766400183520840400,15.14084033203125,0.015882495790719986,-0.05253441259264946,-0.00366519158706069
1766400183530850000,15.15085009765625,0.028099801391363144,-0.05375614017248154,0.013439035043120384
1766400183540890400,15.160890380859374,0.021991148591041565,-0.05009094998240471,0.006108652334660292
1766400183550930700,15.1709306640625,0.01466076634824276,-0.05009094998240471,0.00733038317412138
1766400183570950100,15.1909501953125,0.024434609338641167,-0.05497787147760391,0.02076941914856434
1766400183580990500,15.200990478515624,0.021991148591041565,-0.06108652427792549,-0.012217304669320583
1766400183591000300,15.211000244140624,0.01710422709584236,-0.06841690838336945,-0.07452555745840073
1766400183601040600,15.22104052734375,0.01466076634824276,-0.0659734457731247,-0.09407325088977814
1766400183611050200,15.23105029296875,0.013439035043120384,-0.05864306539297104,-0.05375614017248154
1766400183621060000,15.24106005859375,0.015882495790719986,-0.05497787147760391,0
1766400183631100400,15.251100341796874,0.02076941914856434,-0.045204028487205505,0.025656340643763542
1766400183641110300,15.2611103515625,0.010995574295520782,-0.039095375686883926,0.004886921960860491
1766400183661160200,15.28116015625,0.012217304669320583,-0.0403171069920063,-0.03176499158143997
1766400183671200500,15.291200439453124,0.00733038317412138,-0.036651913076639175,-0.0403171069920063
1766400183681210400,15.30121044921875,0.00733038317412138,-0.03298672288656235,-0.03176499158143997
1766400183711270100,15.331270263671875,0.02076941914856434,-0.015882495790719986,-0.04398229718208313
1766400183731320000,15.351320068359374,0.02687807008624077,-0.00733038317412138,-0.0757472887635231
1766400183741360400,15.3613603515625,0.025656340643763542,-0.0012217304902151227,-0.03176499158143997
1766400183761410600,15.38141064453125,0.01710422709584236,0.010995574295520782,0.0403171069920063
1766400183781460500,15.40146044921875,0.015882495790719986,0.013439035043120384,-0.06352998316287994
1766400183791470300,15.41147021484375,0.02687807008624077,0.004886921960860491,-0.12828169763088226
1766400183801480000,15.42147998046875,0.018325956538319588,0.0024434609804302454,-0.15515977144241333
1766400183811489800,15.43148974609375,0.00733038317412138,0.0024434609804302454,-0.1111774742603302
1766400183821560600,15.441560546875,0.01710422709584236,-0.0012217304902151227,-0.015882495790719986
1766400183831570400,15.4515703125,0.009773843921720982,0.0012217304902151227,0.04642575979232788
1766400183841641200,15.46164111328125,-0.0012217304902151227,0.009773843921720982,0.045204028487205505
1766400183851650800,15.47165087890625,-0.0024434609804302454,0.018325956538319588,0.0024434609804302454
1766400183871701000,15.491700927734374,0.00366519158706069,0.018325956538319588,-0.10751228034496307
1766400183881710800,15.5017109375,0.0012217304902151227,0.018325956538319588,-0.12095131725072861
1766400183891690000,15.51168994140625,-0.0012217304902151227,0.015882495790719986,-0.07696902006864548
1766400183901730300,15.521730224609374,-0.0012217304902151227,0.010995574295520782,-0.013439035043120384
1766400183911740200,15.531740234375,-0.00366519158706069,0.00855211354792118,0.02932153269648552
1766400183921749800,15.541749755859374,-0.00366519158706069,0.010995574295520782,0.02932153269648552
