time,seconds_elapsed,z,y,x
1766400167866062300,-0.513937744140625,9.596700668334961,-1.7445659637451172,-1.0149927139282227
1766400167906101200,-0.473898681640625,9.607765197753906,-1.6873831748962402,-1.0069674253463745
1766400167916111000,-0.463888916015625,9.606049537658691,-1.6946728229522705,-1.0110832452774048
1766400167926121000,-0.453879150390625,9.604938507080078,-1.6998543739318848,-1.0129390954971313
1766400167936130600,-0.443869384765625,9.604438781738281,-1.7013483047485352,-1.0151616334915161
1766400167946140400,-0.433859619140625,9.604811668395996,-1.6988033056259155,-1.0159008502960205
1766400167956150300,-0.423849609375,9.604652404785156,-1.6994833946228027,-1.0162674188613892
1766400167966160000,-0.413840087890625,9.604900360107422,-1.6987780332565308,-1.0151054859161377
1766400167976169700,-0.403830322265625,9.605780601501465,-1.6947001218795776,-1.0135819911956787
1766400168006199000,-0.373801025390625,9.605860710144043,-1.6942039728164673,-1.0136555433273315
1766400168016209000,-0.363791015625,9.604986190795898,-1.6972520351409912,-1.0168445110321045
1766400168036228400,-0.343771728515625,9.603734970092773,-1.7025471925735474,-1.0198044776916504
1766400168046268700,-0.3337314453125,9.603433609008789,-1.7034151554107666,-1.0211896896362305
1766400168056278300,-0.3237216796875,9.603888511657715,-1.7012717723846436,-1.0204840898513794
1766400168066318600,-0.313681396484375,9.604411125183105,-1.699338436126709,-1.0187873840332031
1766400168076328400,-0.303671630859375,9.605443000793457,-1.6949551105499268,-1.0163620710372925
1766400168096348000,-0.283652099609375,9.607320785522461,-1.688110113143921,-1.0099766254425049
1766400168116367400,-0.263632568359375,9.608233451843262,-1.6843702793121338,-1.007536768913269
1766400168126377200,-0.253622802734375,9.607880592346191,-1.6857719421386719,-1.0085591077804565
1766400168136387000,-0.243613037109375,9.60694694519043,-1.6897838115692139,-1.010740876197815
1766400168146427400,-0.233572509765625,9.606592178344727,-1.691512107849121,-1.0112205743789673
1766400168156437000,-0.22356298828125,9.606696128845215,-1.6900243759155273,-1.0127167701721191
1766400168166446800,-0.21355322265625,9.606475830078125,-1.69167160987854,-1.012058973312378
1766400168186466300,-0.19353369140625,9.607597351074219,-1.6857032775878906,-1.011366844177246
1766400168236576300,-0.143423828125,9.60857105255127,-1.6784050464630127,-1.0142499208450317
1766400168246586000,-0.133413818359375,9.607917785644531,-1.6801035404205322,-1.017622709274292
1766400168256595700,-0.123404296875,9.607512474060059,-1.6822822093963623,-1.0178492069244385
1766400168266605600,-0.11339453125,9.607172012329102,-1.682167410850525,-1.0212459564208984
1766400168276615200,-0.103384765625,9.607084274291992,-1.6817882061004639,-1.0226984024047852
1766400168356785000,-0.023215087890625,9.606973648071289,-1.6814906597137451,-1.0242209434509277
1766400168366825200,-0.0131748046875,9.606880187988281,-1.6832484006881714,-1.0222121477127075
1766400168376835000,-0.0031650390625,9.606407165527344,-1.6872881650924683,-1.019989013671875
1766400168386875400,0.00687548828125,9.606415748596191,-1.6880247592926025,-1.0186924934387207
1766400168397915600,0.01791552734375,9.606008529663086,-1.6908563375473022,-1.0178284645080566
1766400168418026800,0.03802685546875,9.606954574584961,-1.7323192358016968,-0.9358851909637451
1766400168468136400,0.088136474609375,9.608967781066895,-1.717505693435669,-0.942498505115509
1766400168488186600,0.1081865234375,9.608970642089844,-1.7156827449798584,-0.9457859396934509
1766400168498196200,0.1181962890625,9.608811378479004,-1.715829849243164,-0.9471295475959778
1766400168508236500,0.128236572265625,9.608539581298828,-1.7165147066116333,-0.9486504793167114
1766400168518246400,0.138246337890625,9.608413696289062,-1.716607928276062,-0.9497582316398621
1766400168528286700,0.14828662109375,9.60842514038086,-1.7157927751541138,-0.9511125087738037
1766400168538327000,0.1583271484375,9.608477592468262,-1.7151217460632324,-0.9517841935157776
1766400168558346500,0.178346435546875,9.609390258789062,-1.7092496156692505,-0.9531415700912476
1766400168578427100,0.19842724609375,9.609966278076172,-1.7053663730621338,-0.9542844891548157
1766400168588436700,0.208436767578125,9.61010456085205,-1.7033504247665405,-0.9564903974533081
1766400168598446600,0.218446533203125,9.609964370727539,-1.7024470567703247,-0.9595056772232056
1766400168608487000,0.22848681640625,9.609450340270996,-1.703193187713623,-0.9633217453956604
1766400168618496500,0.23849658203125,9.609261512756348,-1.7034183740615845,-0.9647987484931946
1766400168628536800,0.248536865234375,9.609148025512695,-1.7036432027816772,-0.9655388593673706
1766400168638546700,0.258546630859375,9.60877799987793,-1.7049336433410645,-0.9669390916824341
1766400168678585900,0.2985859375,9.607317924499512,-1.7088600397109985,-0.9744938015937805
1766400168688656600,0.30865673828125,9.6076021194458,-1.7068325281143188,-0.9752441048622131
1766400168698666200,0.318666259765625,9.607928276062012,-1.703965187072754,-0.9770393371582031
1766400168708676000,0.328676025390625,9.60804557800293,-1.702620267868042,-0.9782297015190125
1766400168718686000,0.33868603515625,9.608226776123047,-1.7012273073196411,-0.9788702130317688
1766400168728695600,0.348695556640625,9.608426094055176,-1.6996976137161255,-0.9795685410499573
1766400168738705400,0.358705322265625,9.60855484008789,-1.698337435722351,-0.9806708097457886
1766400168748745700,0.368745849609375,9.608464241027832,-1.6983494758605957,-0.9815372228622437
1766400168778805500,0.398805419921875,9.608723640441895,-1.6939985752105713,-0.9865005612373352
1766400168788815400,0.4088154296875,9.608503341674805,-1.6935113668441772,-0.9894795417785645
1766400168798855400,0.41885546875,9.608856201171875,-1.6910358667373657,-0.9902851581573486
1766400168808865300,0.428865234375,9.608846664428711,-1.688944697380066,-0.9939372539520264
1766400168818875100,0.438875244140625,9.60878849029541,-1.6876294612884521,-0.9967349171638489
1766400168828915500,0.44891552734375,9.60886287689209,-1.686509609222412,-0.9979162216186523
1766400168838925000,0.458925048828125,9.60888671875,-1.6843806505203247,-1.0012680292129517
1766400168848935000,0.468934814453125,9.608710289001465,-1.6832211017608643,-1.0049136877059937
1766400168859005700,0.479005615234375,9.60771656036377,-1.6864807605743408,-1.0089339017868042
1766400168889035000,0.509034912109375,9.59802532196045,-1.7291680574417114,-1.028723955154419
1766400168899014100,0.51901416015625,9.593241691589355,-1.750231385231018,-1.0376924276351929
1766400168909054500,0.529054443359375,9.587926864624023,-1.7736774682998657,-1.0469574928283691
1766400168919064300,0.539064208984375,9.57677936553955,-1.8071507215499878,-1.0908232927322388
1766400168929104600,0.549104736328125,9.57378101348877,-1.811049461364746,-1.1104928255081177
1766400168939083800,0.559083740234375,9.563997268676758,-1.858536720275879,-1.116329550743103
1766400168949124000,0.5691240234375,9.553282737731934,-1.9184056520462036,-1.1067510843276978
1766400168969204700,0.589204833984375,9.523202896118164,-2.0780794620513916,-1.0773053169250488
1766400168979214300,0.59921435546875,9.514945983886719,-2.116809606552124,-1.0748567581176758
1766400168989254700,0.609254638671875,9.493571281433105,-2.217538356781006,-1.060672402381897
1766400168999264500,0.619264404296875,9.449951171875,-2.4113762378692627,-1.0266815423965454
1766400169019314400,0.639314453125,9.388322830200195,-2.6563737392425537,-0.9866421818733215
1766400169029324300,0.64932421875,9.32732105255127,-2.876577854156494,-0.9469881653785706
1766400169039334100,0.659334228515625,9.241897583007812,-3.1538305282592773,-0.9005944728851318
1766400169049374200,0.669374267578125,9.122557640075684,-3.49658203125,-0.8504410982131958
1766400169059384000,0.679384033203125,8.962390899658203,-3.8995132446289062,-0.7998406291007996
1766400169079434200,0.699434326171875,8.503610610961914,-4.834231376647949,-0.6994357109069824
1766400169089443800,0.70944384765625,8.20192813873291,-5.335684776306152,-0.6551593542098999
1766400169099423200,0.71942333984375,7.6607184410095215,-6.093647003173828,-0.592659592628479
1766400169109463600,0.729463623046875,7.1935601234436035,-6.6376495361328125,-0.6038888692855835
1766400169119473200,0.73947314453125,6.9593634605407715,-6.883495807647705,-0.5959288477897644
1766400169129483000,0.74948291015625,6.476991176605225,-7.341283321380615,-0.5696688890457153
1766400169139462100,0.759462158203125,5.966300010681152,-7.763487339019775,-0.5494859218597412
1766400169149533000,0.769532958984375,5.436489582061768,-8.144194602966309,-0.5357820987701416
1766400169159542800,0.779542724609375,4.89779806137085,-8.479341506958008,-0.5317296385765076
1766400169229641700,0.849641845703125,0.6662251949310303,-9.74120807647705,-0.9140169024467468
1766400169239651300,0.8596513671875,0.14047668874263763,-9.755794525146484,-0.9874749183654785
1766400169249661200,0.8696611328125,-0.11187807470560074,-9.752224922180176,-1.025676965713501
1766400169259671000,0.879671142578125,-0.5634461045265198,-9.729046821594238,-1.0947966575622559
1766400169269680600,0.8896806640625,-1.1266154050827026,-9.67010498046875,-1.1790876388549805
1766400169289730800,0.909730712890625,-1.5761609077453613,-9.59843635559082,-1.2474623918533325
1766400169299740400,0.919740478515625,-1.8114616870880127,-9.552700996398926,-1.2786284685134888
1766400169309811500,0.9298115234375,-2.011467456817627,-9.510064125061035,-1.2973445653915405
1766400169319821000,0.939821044921875,-2.2493627071380615,-9.45571517944336,-1.3039368391036987
1766400169329861400,0.949861328125,-2.320251226425171,-9.439093589782715,-1.3001353740692139
1766400169339871200,0.959871337890625,-2.5177714824676514,-9.389119148254395,-1.2944748401641846
1766400169349942000,0.96994189453125,-2.6274571418762207,-9.360450744628906,-1.2840759754180908
1766400169359951600,0.97995166015625,-2.722686290740967,-9.335265159606934,-1.2689481973648071
1766400169380001800,1.000001708984375,-2.8521370887756348,-9.302640914916992,-1.2233511209487915
1766400169460140800,1.080140869140625,-3.446742296218872,-9.143291473388672,-0.8310171365737915
1766400169490170000,1.110170166015625,-3.6016485691070557,-9.098013877868652,-0.6517246961593628
1766400169530209300,1.150209228515625,-3.7186949253082275,-9.064114570617676,-0.42839959263801575
1766400169540219100,1.16021923828125,-3.729339838027954,-9.06275463104248,-0.35904228687286377
1766400169590390000,1.21039013671875,-3.7812459468841553,-9.048315048217773,0.023926526308059692
1766400169650540000,1.2705400390625,-3.8043086528778076,-9.027470588684082,0.44987261295318604
1766400169670590200,1.290590087890625,-3.79086971282959,-9.02700424194336,0.5593637824058533
1766400169680599800,1.300599853515625,-3.789917469024658,-9.02602481842041,0.5812065005302429
1766400169690609700,1.310609619140625,-3.80111026763916,-9.018815994262695,0.6187909841537476
1766400169700619500,1.32061962890625,-3.8133978843688965,-9.011536598205566,0.6485598087310791
1766400169710659800,1.330659912109375,-3.825892925262451,-9.005341529846191,0.6608572602272034
1766400169740719600,1.3607197265625,-3.8902223110198975,-8.973621368408203,0.7146414518356323
1766400169750760000,1.370760009765625,-3.9078118801116943,-8.9639310836792,0.7398176789283752
1766400169780819700,1.40081982421875,-3.9243407249450684,-8.955840110778809,0.7502461075782776
1766400169790829300,1.410829345703125,-3.9243969917297363,-8.956850051879883,0.7377984523773193
1766400169800869600,1.42086962890625,-3.9294984340667725,-8.95631217956543,0.7168617248535156
1766400169810940400,1.4309404296875,-3.94309139251709,-8.951995849609375,0.6958224773406982
1766400169820950300,1.4409501953125,-3.9675261974334717,-8.94326114654541,0.668743908405304
1766400169841061400,1.461061279296875,-3.989665985107422,-8.935166358947754,0.644825279712677
1766400169851101700,1.471101806640625,-4.002265453338623,-8.930258750915527,0.6346104741096497
1766400169861142000,1.48114208984375,-4.010120868682861,-8.927342414855957,0.6260218024253845
1766400169871182000,1.49118212890625,-4.009355068206787,-8.928165435791016,0.6191285252571106
1766400169881192000,1.50119189453125,-4.0028252601623535,-8.931827545166016,0.6084744334220886
1766400169891201800,1.511201904296875,-4.000760555267334,-8.932992935180664,0.6049176454544067
1766400169901242000,1.5212421875,-3.9999008178710938,-8.934080123901367,0.594459056854248
1766400169911251700,1.531251708984375,-4.005583763122559,-8.932059288024902,0.5865142345428467
1766400169921261600,1.541261474609375,-4.012210845947266,-8.929922103881836,0.5736141204833984
1766400169931332400,1.551332275390625,-4.017377853393555,-8.9280366897583,0.56675124168396
1766400169941311500,1.5613115234375,-4.021511554718018,-8.926338195800781,0.5642281770706177
1766400169951351800,1.571351806640625,-4.030514717102051,-8.92269515991211,0.5575768947601318
1766400169961361700,1.581361572265625,-4.034419059753418,-8.920945167541504,0.5573334693908691
1766400169971371300,1.591371337890625,-4.037885665893555,-8.919210433959961,0.5599722862243652
1766400169981442300,1.6014423828125,-4.035173416137695,-8.920255661010742,0.5628726482391357
1766400169991482400,1.611482421875,-4.031311511993408,-8.921893119812012,0.5645870566368103
1766400170001492200,1.6214921875,-4.028223514556885,-8.923222541809082,0.5656090974807739
1766400170011502000,1.631502197265625,-4.030898571014404,-8.921860694885254,0.5680287480354309
1766400170021542400,1.64154248046875,-4.03408145904541,-8.920389175415039,0.5685293674468994
1766400170051632600,1.671632568359375,-4.04031229019165,-8.917608261108398,0.5679498314857483
1766400170061642500,1.681642578125,-4.040652751922607,-8.917482376098633,0.5674854516983032
1766400170071713300,1.69171337890625,-4.041406631469727,-8.91709041595459,0.5682575702667236
1766400170081723000,1.701722900390625,-4.0400872230529785,-8.917623519897461,0.5692711472511292
1766400170091732700,1.711732666015625,-4.0451765060424805,-8.915230751037598,0.5706397891044617
1766400170101742600,1.72174267578125,-4.053505897521973,-8.911441802978516,0.570676326751709
1766400170111782700,1.73178271484375,-4.06296443939209,-8.907305717468262,0.5680173635482788
1766400170121792500,1.74179248046875,-4.07121467590332,-8.903703689575195,0.5653983950614929
1766400170141873200,1.761873046875,-4.078889846801758,-8.900751113891602,0.5564645528793335
1766400170171963400,1.79196337890625,-4.077801704406738,-8.901355743408203,0.55476975440979
1766400170182003700,1.802003662109375,-4.069904327392578,-8.904903411865234,0.5558621883392334
1766400170192013600,1.812013671875,-4.053765296936035,-8.912114143371582,0.558265745639801
1766400170202023200,1.822023193359375,-4.046639919281006,-8.915207862854004,0.5604925155639648
1766400170212094000,1.832093994140625,-4.035190582275391,-8.920310974121094,0.5618599653244019
1766400170222103800,1.842103759765625,-4.020171642303467,-8.926891326904297,0.5650190114974976
1766400170242154000,1.862154052734375,-3.9916434288024902,-8.939574241638184,0.5667223334312439
1766400170252194000,1.872194091796875,-3.9856972694396973,-8.942112922668457,0.5685571432113647
1766400170262204000,1.882203857421875,-3.9678292274475098,-8.949917793273926,0.5707254409790039
1766400170272213800,1.8922138671875,-3.9406936168670654,-8.961716651916504,0.5735764503479004
1766400170282254000,1.902254150390625,-3.9023287296295166,-8.97819709777832,0.5781374573707581
1766400170292263700,1.912263671875,-3.8552358150482178,-8.997956275939941,0.5868082642555237
1766400170302334500,1.92233447265625,-3.808401584625244,-9.017292976379395,0.595751166343689
1766400170312374800,1.932374755859375,-3.775172710418701,-9.030720710754395,0.6037772297859192
1766400170322354200,1.942354248046875,-3.7585225105285645,-9.03710651397705,0.6120666265487671
1766400170352444400,1.9724443359375,-3.771130084991455,-9.032055854797363,0.6090723872184753
1766400170362454300,1.982454345703125,-3.758624315261841,-9.037457466125488,0.6062354445457458
1766400170372494300,1.992494384765625,-3.7514288425445557,-9.04057502746582,0.6043208241462708
1766400170382504200,2.002504150390625,-3.7393620014190674,-9.04586124420166,0.5999792814254761
1766400170392544500,2.01254443359375,-3.7309114933013916,-9.049864768981934,0.5921434760093689
1766400170402584800,2.022584716796875,-3.7291159629821777,-9.050830841064453,0.5886904001235962
1766400170412594400,2.032594482421875,-3.7301902770996094,-9.050882339477539,0.5810194611549377
1766400170422604300,2.042604248046875,-3.73288893699646,-9.050305366516113,0.5726242661476135
1766400170432614100,2.0526142578125,-3.736907482147217,-9.049253463745117,0.5629889965057373
1766400170452633600,2.072633544921875,-3.7442450523376465,-9.047823905944824,0.5365589261054993
1766400170472714200,2.09271435546875,-3.7486932277679443,-9.046899795532227,0.520852267742157
1766400170482754600,2.102754638671875,-3.7574949264526367,-9.043964385986328,0.5082891583442688
1766400170492794600,2.112794677734375,-3.7697110176086426,-9.039534568786621,0.4964703917503357
1766400170502804500,2.122804443359375,-3.7848799228668213,-9.0337495803833,0.48625966906547546
1766400170512814300,2.132814453125,-3.8034746646881104,-9.02649211883545,0.47582799196243286
1766400170522824000,2.142823974609375,-3.822923421859741,-9.018574714660645,0.47012102603912354
1766400170532833800,2.152833740234375,-3.83663272857666,-9.013129234313965,0.46275925636291504
1766400170542874000,2.1628740234375,-3.8442437648773193,-9.010248184204102,0.455646812915802
1766400170562893600,2.1828935546875,-3.844271421432495,-9.01065444946289,0.44732993841171265
1766400170572903400,2.1929033203125,-3.840684175491333,-9.01242446899414,0.44247838854789734
1766400170582913000,2.2029130859375,-3.839545488357544,-9.013060569763184,0.4393760561943054
1766400170592953300,2.212953369140625,-3.8408637046813965,-9.012532234191895,0.4386994540691376
1766400170602993700,2.22299365234375,-3.847149610519409,-9.009993553161621,0.4357207417488098
1766400170613003500,2.23300341796875,-3.8568758964538574,-9.005897521972656,0.434435099363327
1766400170623043800,2.2430439453125,-3.8645894527435303,-9.002695083618164,0.4322241246700287
1766400170633053400,2.253053466796875,-3.869654893875122,-9.000539779663086,0.43179890513420105
1766400170663082800,2.283082763671875,-3.8674697875976562,-9.001694679260254,0.4272960424423218
1766400170683102500,2.3031025390625,-3.864816188812256,-9.002898216247559,0.425934374332428
1766400170693112000,2.313112060546875,-3.8618228435516357,-9.004287719726562,0.42375001311302185
1766400170703122000,2.323121826171875,-3.8575003147125244,-9.006265640258789,0.42101943492889404
1766400170713192700,2.333192626953125,-3.8536651134490967,-9.007990837097168,0.4192422032356262
1766400170723233000,2.34323291015625,-3.850480079650879,-9.009393692016602,0.4184013605117798
1766400170733273300,2.3532734375,-3.8479228019714355,-9.01049518585205,0.4181520640850067
1766400170743252500,2.36325244140625,-3.8444454669952393,-9.011845588684082,0.4210767149925232
1766400170763272000,2.38327197265625,-3.8305094242095947,-9.01752758026123,0.4264046251773834
1766400170783352600,2.4033525390625,-3.8105216026306152,-9.025551795959473,0.4355737268924713
1766400170793393000,2.413392822265625,-3.8078556060791016,-9.026531219482422,0.43860331177711487
1766400170803402800,2.42340283203125,-3.7891695499420166,-9.0341157913208,0.4442079961299896
1766400170813442800,2.43344287109375,-3.7464253902435303,-9.05145263671875,0.45374682545661926
1766400170823422200,2.443422119140625,-3.710826873779297,-9.065725326538086,0.4612678587436676
1766400170833462500,2.453462646484375,-3.693613052368164,-9.072530746459961,0.4656570255756378
1766400170843502800,2.4635029296875,-3.6512856483459473,-9.089170455932617,0.4748445451259613
1766400170863583200,2.483583251953125,-3.5442397594451904,-9.130179405212402,0.49863049387931824
1766400170873623600,2.49362353515625,-3.451667308807373,-9.164397239685059,0.5198419094085693
1766400170883664000,2.503663818359375,-3.386976957321167,-9.187457084655762,0.5379664897918701
1766400170893673700,2.513673828125,-3.322838068008423,-9.209611892700195,0.5587368607521057
1766400170903683300,2.523683349609375,-3.254153251647949,-9.232985496520996,0.5769362449645996
1766400170913693200,2.533693115234375,-3.2177176475524902,-9.245039939880371,0.5881664156913757
1766400170923703000,2.543703125,-3.10675311088562,-9.28134536743164,0.6124807596206665
1766400170933712600,2.553712646484375,-3.00978684425354,-9.312005996704102,0.6309712529182434
1766400170943722500,2.563722412109375,-2.9416613578796387,-9.33332633972168,0.6372238397598267
1766400170953793300,2.573793212890625,-2.7672441005706787,-9.38460922241211,0.6647487282752991
1766400170963803100,2.58380322265625,-2.6552298069000244,-9.415495872497559,0.6845242381095886
1766400170993954300,2.613954345703125,-2.444018840789795,-9.468530654907227,0.7376099228858948
1766400171003964200,2.623964111328125,-2.4195244312286377,-9.473655700683594,0.7524003982543945
1766400171013974000,2.63397412109375,-2.410108804702759,-9.47554874420166,0.7587705254554749
1766400171024014300,2.644014404296875,-2.413978338241577,-9.473995208740234,0.7658557891845703
1766400171034054400,2.654054443359375,-2.4188241958618164,-9.472981452941895,0.7630985975265503
1766400171044094700,2.6640947265625,-2.471776008605957,-9.458891868591309,0.7681997418403625
1766400171064114400,2.684114501953125,-2.508739948272705,-9.449407577514648,0.7650769352912903
1766400171094204700,2.71420458984375,-2.6305618286132812,-9.415629386901855,0.772311806678772
1766400171104245000,2.724244873046875,-2.659627914428711,-9.407611846923828,0.7704533338546753
1766400171124264400,2.744264404296875,-2.789856433868408,-9.370736122131348,0.759214460849762
1766400171134274300,2.7542744140625,-2.850895643234253,-9.352747917175293,0.7542591691017151
1766400171144314600,2.764314697265625,-2.921469211578369,-9.331452369689941,0.7479612231254578
1766400171154324200,2.77432421875,-2.9445459842681885,-9.324494361877441,0.7442132830619812
1766400171164334000,2.784333984375,-3.001870632171631,-9.306463241577148,0.7408949732780457
1766400171174374400,2.79437451171875,-3.0195999145507812,-9.300841331481934,0.7394649386405945
1766400171204495000,2.8244951171875,-3.1251871585845947,-9.266045570373535,0.7375742793083191
1766400171214505000,2.8345048828125,-3.1679327487945557,-9.251748085021973,0.7347028255462646
1766400171224545300,2.844545166015625,-3.2240562438964844,-9.232733726501465,0.7297157049179077
1766400171234585600,2.854585693359375,-3.283881425857544,-9.212132453918457,0.7232871055603027
1766400171244625700,2.864625732421875,-3.3506197929382324,-9.188395500183105,0.7191396355628967
1766400171254635500,2.874635498046875,-3.410459041595459,-9.166755676269531,0.7139654159545898
1766400171264645400,2.884645263671875,-3.463940382003784,-9.147087097167969,0.7087596654891968
1766400171274685700,2.894685791015625,-3.491891622543335,-9.13664722442627,0.706264078617096
1766400171284695300,2.9046953125,-3.5391767024993896,-9.119022369384766,0.6985974907875061
1766400171294735600,2.914735595703125,-3.5627224445343018,-9.110252380371094,0.6933265328407288
1766400171314785800,2.934785888671875,-3.5923991203308105,-9.099041938781738,0.6873849034309387
1766400171324795400,2.94479541015625,-3.620950698852539,-9.088218688964844,0.6807283759117126
1766400171334805200,2.95480517578125,-3.646016836166382,-9.078471183776855,0.6769953370094299
1766400171354855200,2.974855224609375,-3.690858840942383,-9.060470581054688,0.6751575469970703
1766400171364865000,2.984864990234375,-3.726029634475708,-9.046073913574219,0.6750280857086182
1766400171374875000,2.994875,-3.736614227294922,-9.041685104370117,0.6753115653991699
1766400171384884500,3.004884521484375,-3.7458717823028564,-9.03797435760498,0.6737000942230225
1766400171404904200,3.024904296875,-3.748318672180176,-9.036796569824219,0.6758823990821838
1766400171424923600,3.044923583984375,-3.7571191787719727,-9.03327751159668,0.6740443706512451
1766400171434933500,3.05493359375,-3.771552801132202,-9.027214050292969,0.6747089624404907
1766400171444973600,3.0649736328125,-3.7822980880737305,-9.022821426391602,0.6732838749885559
1766400171455014000,3.075013916015625,-3.792245864868164,-9.018610000610352,0.6737751960754395
1766400171464993300,3.0849931640625,-3.7995543479919434,-9.015538215637207,0.6737155318260193
1766400171475064000,3.09506396484375,-3.8042171001434326,-9.013639450073242,0.6728174686431885
1766400171485073700,3.10507373046875,-3.8089346885681152,-9.01180362701416,0.6706912517547607
1766400171525204500,3.14520458984375,-3.8199002742767334,-9.007688522338867,0.6635916233062744
1766400171535214000,3.155214111328125,-3.8189282417297363,-9.008003234863281,0.6648787260055542
1766400171545224000,3.165223876953125,-3.817028045654297,-9.008675575256348,0.6666975021362305
1766400171555264300,3.17526416015625,-3.8106765747070312,-9.011273384094238,0.6679267287254333
1766400171565273900,3.18527392578125,-3.806494951248169,-9.013028144836426,0.668091893196106
1766400171575283700,3.19528369140625,-3.804337501525879,-9.013944625854492,0.6679866313934326
1766400171585293600,3.20529345703125,-3.8036277294158936,-9.014307022094727,0.6671414375305176
1766400171595334000,3.215333984375,-3.805006742477417,-9.013952255249023,0.6640899181365967
1766400171605343500,3.225343505859375,-3.809121608734131,-9.012487411499023,0.6603399515151978
1766400171635464400,3.25546435546875,-3.8222739696502686,-9.00769329071045,0.6496958136558533
1766400171645474000,3.26547412109375,-3.824582815170288,-9.006966590881348,0.6461705565452576
1766400171655484000,3.27548388671875,-3.826571464538574,-9.006257057189941,0.6442731618881226
1766400171665493800,3.28549365234375,-3.8258471488952637,-9.006720542907715,0.6420929431915283
1766400171675534000,3.2955341796875,-3.825063943862915,-9.007227897644043,0.6396218538284302
1766400171685543700,3.305543701171875,-3.8241193294525146,-9.00772476196289,0.6382993459701538
1766400171695553500,3.315553466796875,-3.821141242980957,-9.008962631225586,0.6386489272117615
1766400171705593900,3.32559375,-3.8182976245880127,-9.010122299194336,0.6393211483955383
1766400171725613300,3.34561328125,-3.811577320098877,-9.012897491455078,0.640299916267395
1766400171745632800,3.3656328125,-3.8095297813415527,-9.013506889343262,0.6439335942268372
1766400171755642600,3.375642578125,-3.8092410564422607,-9.013538360595703,0.6451423764228821
1766400171765652500,3.385652587890625,-3.8096015453338623,-9.013384819030762,0.6451908946037292
1766400171775662000,3.395662109375,-3.807738780975342,-9.01404094696045,0.6469979286193848
1766400171785641500,3.405641357421875,-3.8040223121643066,-9.015548706054688,0.6478399634361267
1766400171795712300,3.415712158203125,-3.8018929958343506,-9.016454696655273,0.6477373838424683
1766400171805752600,3.425752685546875,-3.8008928298950195,-9.016904830932617,0.6473284959793091
1766400171815793000,3.43579296875,-3.7991836071014404,-9.017537117004395,0.6485647559165955
1766400171825802500,3.445802490234375,-3.7971928119659424,-9.018242835998535,0.6503969430923462
1766400171835873300,3.455873291015625,-3.797201633453369,-9.018266677856445,0.6500120162963867
1766400171845913600,3.46591357421875,-3.7979490756988525,-9.018059730529785,0.6485162377357483
1766400171855984400,3.475984375,-3.7981088161468506,-9.01797103881836,0.6488274931907654
1766400171865994200,3.485994140625,-3.796269178390503,-9.018948554992676,0.6460176706314087
1766400171876034600,3.49603466796875,-3.797701358795166,-9.018514633178711,0.6436448097229004
1766400171886044200,3.506044189453125,-3.7988827228546143,-9.018086433410645,0.6426637172698975
1766400171896145700,3.516145751953125,-3.7991158962249756,-9.018061637878418,0.6416524648666382
1766400171906124800,3.526124755859375,-3.7991654872894287,-9.01823902130127,0.6388275027275085
1766400171916165000,3.5361650390625,-3.798267126083374,-9.018600463867188,0.6390793919563293
1766400171936184600,3.5561845703125,-3.795461416244507,-9.019865989685059,0.6378548741340637
1766400171956234800,3.57623486328125,-3.7957420349121094,-9.01955509185791,0.6405883431434631
1766400171966244400,3.586244384765625,-3.7950265407562256,-9.020025253295898,0.6382219195365906
1766400171976315100,3.596315185546875,-3.794952869415283,-9.020094871520996,0.6376888155937195
1766400171986294500,3.60629443359375,-3.7947096824645996,-9.02017593383789,0.6379948258399963
1766400171996304100,3.61630419921875,-3.795013666152954,-9.020130157470703,0.6368255019187927
1766400172006314000,3.62631396484375,-3.7967514991760254,-9.019628524780273,0.6335594654083252
1766400172016323800,3.63632373046875,-3.7981185913085938,-9.019109725952148,0.6327639818191528
1766400172026333400,3.64633349609375,-3.7953333854675293,-9.020450592041016,0.6303521990776062
1766400172046414000,3.6664140625,-3.785161018371582,-9.025115966796875,0.6246852874755859
1766400172056484900,3.67648486328125,-3.781992197036743,-9.02653980255127,0.6233227849006653
1766400172066525200,3.686525146484375,-3.7772295475006104,-9.028654098510742,0.6215785145759583
1766400172076535000,3.69653515625,-3.7743654251098633,-9.029949188232422,0.6201531887054443
1766400172086544600,3.706544677734375,-3.7711658477783203,-9.031414031982422,0.6182757019996643
1766400172096554500,3.716554443359375,-3.7673306465148926,-9.033333778381348,0.6136059761047363
1766400172106564400,3.726564453125,-3.765357494354248,-9.034306526184082,0.6113911867141724
1766400172116604700,3.736604736328125,-3.7620174884796143,-9.035856246948242,0.6090502142906189
1766400172126583800,3.746583740234375,-3.758793830871582,-9.037334442138672,0.607033908367157
1766400172136624000,3.7566240234375,-3.7533886432647705,-9.039716720581055,0.6050041317939758
1766400172146695000,3.76669482421875,-3.7494759559631348,-9.041425704956055,0.6037205457687378
1766400172166744800,3.786744873046875,-3.7460172176361084,-9.042926788330078,0.6026853322982788
1766400172176754700,3.796754638671875,-3.743960380554199,-9.043768882751465,0.6028434634208679
1766400172186825500,3.806825439453125,-3.7411413192749023,-9.045042991638184,0.6012164354324341
1766400172196865800,3.81686572265625,-3.739232301712036,-9.04586410522461,0.6007534861564636
1766400172206875600,3.826875732421875,-3.7365329265594482,-9.047012329101562,0.6002788543701172
1766400172216885200,3.83688525390625,-3.7348318099975586,-9.04776668548584,0.59946608543396
1766400172226895000,3.84689501953125,-3.730498790740967,-9.049633979797363,0.5982385873794556
1766400172256955000,3.876954833984375,-3.7286009788513184,-9.050688743591309,0.5941428542137146
1766400172266964700,3.88696484375,-3.7287681102752686,-9.050619125366211,0.5941007733345032
1766400172277035500,3.897035400390625,-3.7290000915527344,-9.050537109375,0.5939081311225891
1766400172287045000,3.907045166015625,-3.7283875942230225,-9.05078411102295,0.5939952731132507
1766400172297055000,3.917054931640625,-3.7246038913726807,-9.052388191223145,0.5933312177658081
1766400172307095300,3.92709521484375,-3.72013521194458,-9.054364204406738,0.5911734700202942
1766400172317135600,3.937135498046875,-3.7177236080169678,-9.055380821228027,0.590758740901947
1766400172327114800,3.94711474609375,-3.714470148086548,-9.056805610656738,0.5894114375114441
1766400172347165000,3.9671650390625,-3.711798906326294,-9.058032035827637,0.5873936414718628
1766400172357205200,3.977205322265625,-3.711897611618042,-9.058051109313965,0.5864265561103821
1766400172367214800,3.98721484375,-3.7102925777435303,-9.058685302734375,0.5868474245071411
1766400172377255200,3.997255126953125,-3.7077043056488037,-9.059684753417969,0.5877165794372559
1766400172387265000,4.00726513671875,-3.704866409301758,-9.060791015625,0.5886138677597046
1766400172397305300,4.017305419921875,-3.7027785778045654,-9.061566352844238,0.5897974967956543
1766400172407315000,4.02731494140625,-3.700474262237549,-9.062490463256836,0.5900436043739319
1766400172417355300,4.037355224609375,-3.6995606422424316,-9.062726020812988,0.5921499133110046
1766400172427365000,4.047365234375,-3.6982033252716064,-9.063165664672852,0.5938891768455505
1766400172437436000,4.057435791015625,-3.692962646484375,-9.065247535705566,0.5947861075401306
1766400172447415000,4.0674150390625,-3.6880035400390625,-9.067221641540527,0.5954170823097229
1766400172457455400,4.077455322265625,-3.6838114261627197,-9.068832397460938,0.5968579649925232
1766400172467495700,4.08749560546875,-3.6782543659210205,-9.0711088180542,0.596518337726593
1766400172477505500,4.097505615234375,-3.6754262447357178,-9.07214069366455,0.5982427000999451
1766400172487515100,4.10751513671875,-3.6741034984588623,-9.072527885437012,0.600512683391571
1766400172497555500,4.117555419921875,-3.6738247871398926,-9.072571754455566,0.6015315055847168
1766400172507565300,4.1275654296875,-3.67360782623291,-9.072548866271973,0.6031973958015442
1766400172527645700,4.147645751953125,-3.673652410507202,-9.072417259216309,0.6049147248268127
1766400172557675000,4.177675048828125,-3.6792070865631104,-9.070069313049316,0.6063687205314636
1766400172567684900,4.187684814453125,-3.6810739040374756,-9.06935977935791,0.605638325214386
1766400172577725200,4.19772509765625,-3.6818485260009766,-9.068938255310059,0.60725337266922
1766400172587765500,4.207765625,-3.6815404891967773,-9.069070816040039,0.6071431636810303
1766400172597805800,4.217805908203125,-3.680295467376709,-9.069639205932617,0.606220543384552
1766400172607846000,4.227845947265625,-3.6758694648742676,-9.071439743041992,0.6061047911643982
1766400172617855700,4.237855712890625,-3.672842264175415,-9.072699546813965,0.6056298613548279
1766400172627896000,4.24789599609375,-3.6692280769348145,-9.074278831481934,0.6038374304771423
1766400172637936400,4.257936279296875,-3.6671810150146484,-9.0753173828125,0.600683331489563
1766400172657925400,4.27792529296875,-3.65923810005188,-9.07883358001709,0.5959668159484863
1766400172667965700,4.287965576171875,-3.656141757965088,-9.080158233642578,0.5947744250297546
1766400172677975300,4.297975341796875,-3.653655767440796,-9.081209182739258,0.593988835811615
1766400172688015600,4.308015625,-3.6500539779663086,-9.082776069641113,0.5922139286994934
1766400172697995000,4.3179951171875,-3.649702787399292,-9.082941055297852,0.5918240547180176
1766400172708035300,4.328035400390625,-3.6477620601654053,-9.083940505981445,0.5884147882461548
1766400172718075400,4.338075439453125,-3.64984130859375,-9.08322525024414,0.5865633487701416
1766400172728054800,4.3480546875,-3.6525278091430664,-9.082340240478516,0.5835729241371155
1766400172758206200,4.378206298828125,-3.6584670543670654,-9.080916404724121,0.5683245062828064
1766400172768246300,4.388246337890625,-3.66021990776062,-9.080446243286133,0.5645145773887634
1766400172778256100,4.398256103515625,-3.6622021198272705,-9.079814910888672,0.5617930293083191
1766400172788327000,4.408326904296875,-3.663820743560791,-9.079241752624512,0.560535728931427
1766400172798336800,4.418336669921875,-3.6654958724975586,-9.078582763671875,0.5602209568023682
1766400172808346400,4.428346435546875,-3.6661009788513184,-9.078306198120117,0.5607631206512451
1766400172818386700,4.43838671875,-3.6677193641662598,-9.077692031860352,0.5601198673248291
1766400172828427000,4.448427001953125,-3.6709184646606445,-9.07646656036377,0.5590004920959473
1766400172858486800,4.47848681640625,-3.6694140434265137,-9.077108383178711,0.5584849715232849
1766400172868527000,4.488527099609375,-3.6675710678100586,-9.077860832214355,0.5583475828170776
1766400172878567400,4.4985673828125,-3.665389060974121,-9.078709602355957,0.5588952898979187
1766400172888577300,4.508577392578125,-3.665886402130127,-9.07851505279541,0.5587558746337891
1766400172898587000,4.5185869140625,-3.6681759357452393,-9.077624320983887,0.5582514405250549
1766400172908627200,4.528627197265625,-3.6699674129486084,-9.076912879943848,0.5580611824989319
1766400172918698000,4.538697998046875,-3.6725738048553467,-9.07586669921875,0.557910680770874
1766400172928707800,4.548707763671875,-3.6755776405334473,-9.074668884277344,0.5576052665710449
1766400172938717700,4.5587177734375,-3.6757185459136963,-9.074650764465332,0.5569830536842346
1766400172968808000,4.588807861328125,-3.671801805496216,-9.076162338256836,0.5581774711608887
1766400172978848300,4.59884814453125,-3.6684138774871826,-9.077631950378418,0.5565505027770996
1766400172988888600,4.608888671875,-3.666710615158081,-9.078385353088379,0.5554764270782471
1766400172998898200,4.618898193359375,-3.66557240486145,-9.078899383544922,0.5546206831932068
1766400173008908000,4.628907958984375,-3.6647698879241943,-9.079236030578613,0.5543997287750244
1766400173018948400,4.6389482421875,-3.6625959873199463,-9.08007526397705,0.5549752116203308
1766400173028958000,4.6489580078125,-3.6625161170959473,-9.08004379272461,0.5560597777366638
1766400173038998300,4.658998291015625,-3.663012981414795,-9.079851150512695,0.5559563040733337
1766400173069058000,4.68905810546875,-3.6637604236602783,-9.07935905456543,0.5590399503707886
1766400173079128800,4.69912890625,-3.6611387729644775,-9.080344200134277,0.5602157115936279
1766400173089138700,4.709138671875,-3.660081386566162,-9.080778121948242,0.5600929856300354
1766400173099148500,4.7191484375,-3.6586172580718994,-9.081354141235352,0.5603150725364685
1766400173109158100,4.729158203125,-3.659050941467285,-9.081300735473633,0.55830317735672
1766400173119198500,4.739198486328125,-3.660029411315918,-9.080997467041016,0.5568398237228394
1766400173129177900,4.749177734375,-3.6622517108917236,-9.080151557922363,0.5560428500175476
1766400173139187500,4.7591875,-3.6661534309387207,-9.078816413879395,0.5521066784858704
1766400173149197300,4.769197265625,-3.66988205909729,-9.077507972717285,0.5488900542259216
1766400173179318300,4.799318359375,-3.676119565963745,-9.075302124023438,0.5435822606086731
1766400173189328000,4.809327880859375,-3.674631357192993,-9.07602310180664,0.5415840744972229
1766400173199337700,4.819337646484375,-3.6713218688964844,-9.077349662780762,0.5417784452438354
1766400173209347600,4.82934765625,-3.6687774658203125,-9.078306198120117,0.5429846048355103
1766400173219448800,4.83944873046875,-3.668335437774658,-9.078457832336426,0.5434420108795166
1766400173229458400,4.84945849609375,-3.6701393127441406,-9.077764511108398,0.542841374874115
1766400173239498800,4.859498779296875,-3.673184633255005,-9.076539993286133,0.5427063703536987
1766400173249508600,4.869508544921875,-3.67665958404541,-9.075119018554688,0.5429591536521912
1766400173289578200,4.909578125,-3.6841812133789062,-9.071686744689941,0.5492871999740601
1766400173299618600,4.91961865234375,-3.682936906814575,-9.072131156921387,0.5502835512161255
1766400173309628200,4.929628173828125,-3.681333065032959,-9.072588920593262,0.5534542798995972
1766400173319638000,4.939637939453125,-3.682560920715332,-9.071968078613281,0.5554530620574951
1766400173329647900,4.94964794921875,-3.686403751373291,-9.070343017578125,0.5565043091773987
1766400173339688000,4.95968798828125,-3.689342737197876,-9.069183349609375,0.5559393763542175
1766400173349697800,4.96969775390625,-3.6960558891296387,-9.066373825073242,0.5571730136871338
1766400173389767400,5.009767333984375,-3.7154297828674316,-9.05850887298584,0.5562447905540466
1766400173399807700,5.019807861328125,-3.7174155712127686,-9.057829856872559,0.5540010929107666
1766400173409817300,5.0298173828125,-3.720590114593506,-9.05659008026123,0.552967369556427
1766400173419857700,5.039857666015625,-3.720438003540039,-9.056809425354004,0.5503674149513245
1766400173429867500,5.049867431640625,-3.7229437828063965,-9.05591106414795,0.5482052564620972
1766400173439907800,5.059907958984375,-3.7253923416137695,-9.054890632629395,0.548474133014679
1766400173449917400,5.06991748046875,-3.7259232997894287,-9.054729461669922,0.5475567579269409
1766400173459927300,5.07992724609375,-3.7272653579711914,-9.054030418395996,0.5499637722969055
1766400173510006500,5.130006591796875,-3.732491970062256,-9.051399230957031,0.5577534437179565
1766400173520016400,5.140016357421875,-3.7345027923583984,-9.050532341003418,0.5583785772323608
1766400173530026200,5.150026123046875,-3.7383155822753906,-9.04908275604248,0.5563511848449707
1766400173540097000,5.160096923828125,-3.743969678878784,-9.046936988830566,0.5532075762748718
1766400173550076200,5.170076171875,-3.748237371444702,-9.045272827148438,0.551502525806427
1766400173560116500,5.180116455078125,-3.751420736312866,-9.044124603271484,0.5486568212509155
1766400173580197000,5.200197021484375,-3.7570011615753174,-9.042046546936035,0.5447638630867004
1766400173610226400,5.230226318359375,-3.757289171218872,-9.042088508605957,0.5420964360237122
1766400173620297200,5.240297119140625,-3.758681535720825,-9.041473388671875,0.5426268577575684
1766400173630337500,5.250337646484375,-3.7594082355499268,-9.041059494018555,0.5445093512535095
1766400173650357000,5.27035693359375,-3.75698184967041,-9.041912078857422,0.5470899939537048
1766400173660366800,5.280366943359375,-3.7560973167419434,-9.042219161987305,0.5480939149856567
1766400173680416800,5.300416748046875,-3.7587451934814453,-9.040934562683105,0.5511392951011658
1766400173710476500,5.3304765625,-3.759068489074707,-9.040979385375977,0.5482052564620972
1766400173720486400,5.340486328125,-3.759690523147583,-9.04081916809082,0.5465651154518127
1766400173730496300,5.350496337890625,-3.761276960372925,-9.040199279785156,0.5459031462669373
1766400173740505900,5.360505859375,-3.760852575302124,-9.040436744689941,0.5448895692825317
1766400173750515700,5.370515625,-3.760833740234375,-9.040472984313965,0.5444000363349915
1766400173760525600,5.380525634765625,-3.758507490158081,-9.041441917419434,0.5443427562713623
1766400173770535200,5.39053515625,-3.7567391395568848,-9.042141914367676,0.5449442267417908
1766400173810604800,5.430604736328125,-3.744755268096924,-9.047067642211914,0.5456959009170532
1766400173820645000,5.44064501953125,-3.7456326484680176,-9.046777725219727,0.5444982051849365
1766400173830654700,5.45065478515625,-3.747664451599121,-9.045907020568848,0.5450202226638794
1766400173840695000,5.460695068359375,-3.749363660812378,-9.045077323913574,0.5470417737960815
1766400173850705000,5.470704833984375,-3.7498786449432373,-9.044888496398926,0.5466340780258179
1766400173860714800,5.48071484375,-3.749532699584961,-9.045008659362793,0.5470166206359863
1766400173870724400,5.490724365234375,-3.7494046688079834,-9.044931411743164,0.5491594672203064
1766400173910763500,5.530763427734375,-3.7464065551757812,-9.045842170715332,0.5545973181724548
1766400173940792800,5.560792724609375,-3.7452433109283447,-9.046257019042969,0.5556602478027344
1766400173950802400,5.570802490234375,-3.747202157974243,-9.045488357543945,0.5549821853637695
1766400173960812300,5.580812255859375,-3.747739315032959,-9.045330047607422,0.5539698004722595
1766400173970822100,5.590822265625,-3.7494513988494873,-9.04461669921875,0.5540452003479004
1766400173980831700,5.600831787109375,-3.746471405029297,-9.045811653137207,0.5546712279319763
1766400174030911200,5.6509111328125,-3.733008861541748,-9.050926208496094,0.5619406700134277
1766400174040920800,5.6609208984375,-3.7334985733032227,-9.050567626953125,0.5644476413726807
1766400174050930700,5.6709306640625,-3.7282161712646484,-9.052647590637207,0.5660156607627869
1766400174060940500,5.6809404296875,-3.7254884243011475,-9.053709983825684,0.5670002698898315
1766400174070980900,5.69098095703125,-3.721569776535034,-9.055278778076172,0.5676800608634949
1766400174081021000,5.70102099609375,-3.716881275177002,-9.057049751281738,0.5701084733009338
1766400174111111400,5.731111328125,-3.707970142364502,-9.060500144958496,0.5733321309089661
1766400174131192000,5.751192138671875,-3.6999499797821045,-9.063567161560059,0.5766422748565674
1766400174141232000,5.761232177734375,-3.699716091156006,-9.063484191894531,0.5794564485549927
1766400174151242000,5.771241943359375,-3.700148105621338,-9.063005447387695,0.5841668248176575
1766400174161312800,5.781312744140625,-3.700460195541382,-9.062734603881836,0.5864008665084839
1766400174171322600,5.791322509765625,-3.701099157333374,-9.062287330627441,0.5892594456672668
1766400174181332200,5.801332275390625,-3.6982362270355225,-9.063143730163574,0.5940490365028381
1766400174221401900,5.84140185546875,-3.6868624687194824,-9.067418098449707,0.5994728207588196
1766400174231411700,5.85141162109375,-3.681645631790161,-9.069342613220215,0.602413535118103
1766400174241452000,5.8614521484375,-3.6735928058624268,-9.072389602661133,0.6056786775588989
1766400174251461600,5.871461669921875,-3.671360969543457,-9.073335647583008,0.6050719618797302
1766400174261502000,5.881501953125,-3.6639883518218994,-9.07619857788086,0.6068068146705627
1766400174271511800,5.89151171875,-3.6566104888916016,-9.079065322875977,0.6084326505661011
1766400174281521700,5.901521728515625,-3.6514410972595215,-9.081098556518555,0.6091273427009583
1766400174291531300,5.91153125,-3.6401989459991455,-9.085532188415527,0.6102712750434875
1766400174331601000,5.951600830078125,-3.5817573070526123,-9.108175277709961,0.6184881925582886
1766400174341610800,5.96161083984375,-3.5708577632904053,-9.11221981048584,0.6219605207443237
1766400174351620400,5.971620361328125,-3.566587209701538,-9.113675117492676,0.6251420974731445
1766400174361630200,5.981630126953125,-3.562269926071167,-9.115102767944336,0.6289485096931458
1766400174371670500,5.99167041015625,-3.555668354034424,-9.117280960083008,0.6346683502197266
1766400174381680000,6.00168017578125,-3.544187068939209,-9.121416091918945,0.639449417591095
1766400174391690000,6.01168994140625,-3.542790174484253,-9.121808052062988,0.6415724158287048
1766400174421719300,6.04171923828125,-3.480916738510132,-9.144463539123535,0.6575631499290466
1766400174431729200,6.051729248046875,-3.4619548320770264,-9.151327133178711,0.6621747612953186
1766400174441769200,6.061769287109375,-3.453927516937256,-9.15423583984375,0.6639017462730408
1766400174451779000,6.071779052734375,-3.448218584060669,-9.156182289123535,0.6667369604110718
1766400174461789000,6.081788818359375,-3.4464831352233887,-9.15676498413086,0.6676914691925049
1766400174471798500,6.091798583984375,-3.4384331703186035,-9.159537315368652,0.6711524128913879
1766400174481808400,6.101808349609375,-3.4288790225982666,-9.162837982177734,0.6749603152275085
1766400174491818200,6.111818359375,-3.415935516357422,-9.167389869689941,0.6788043975830078
1766400174501858600,6.121858642578125,-3.4076030254364014,-9.170408248901367,0.6798977255821228
1766400174551937800,6.171937744140625,-3.3408384323120117,-9.192864418029785,0.7074255347251892
1766400174562008600,6.182008544921875,-3.3379344940185547,-9.193713188171387,0.7100947499275208
1766400174572049000,6.192048828125,-3.3313779830932617,-9.196023941040039,0.710953414440155
1766400174582058800,6.202058837890625,-3.3241894245147705,-9.198517799377441,0.712315022945404
1766400174592098800,6.212098876953125,-3.3178369998931885,-9.200736045837402,0.7133446931838989
1766400174602139100,6.22213916015625,-3.308255910873413,-9.203967094421387,0.716130793094635
1766400174622219800,6.2422197265625,-3.300502300262451,-9.206428527832031,0.7202534079551697
1766400174632260000,6.252260009765625,-3.2915806770324707,-9.209383010864258,0.7232987880706787
1766400174642300400,6.262300537109375,-3.2886481285095215,-9.210366249084473,0.7241136431694031
1766400174652310000,6.27231005859375,-3.281050682067871,-9.21301555633545,0.724875271320343
1766400174662350300,6.282350341796875,-3.2742795944213867,-9.215481758117676,0.7241703271865845
1766400174672360200,6.292360107421875,-3.2709593772888184,-9.216591835021973,0.7250380516052246
1766400174682370000,6.3023701171875,-3.2676141262054443,-9.217944145202637,0.722914457321167
1766400174692379600,6.312379638671875,-3.264711380004883,-9.219123840332031,0.7209638953208923
1766400174702420000,6.322419921875,-3.2618677616119385,-9.220111846923828,0.7212114930152893
1766400174732541000,6.352541015625,-3.2462611198425293,-9.225287437438965,0.7254518866539001
1766400174742581000,6.3625810546875,-3.2411797046661377,-9.227017402648926,0.7261743545532227
1766400174752560400,6.372560302734375,-3.239654779434204,-9.227431297302246,0.7276815176010132
1766400174762631200,6.382631103515625,-3.2369349002838135,-9.228219985961914,0.7298170924186707
1766400174772641000,6.39264111328125,-3.2345075607299805,-9.228948593139648,0.7313479781150818
1766400174782681000,6.40268115234375,-3.2327702045440674,-9.229472160339355,0.7324190735816956
1766400174792660500,6.412660400390625,-3.2329671382904053,-9.229402542114258,0.7324284315109253
1766400174802700800,6.42270068359375,-3.228527307510376,-9.230635643005371,0.7364607453346252
1766400174832791000,6.452791015625,-3.2224459648132324,-9.232431411743164,0.7405959963798523
1766400174842801000,6.46280078125,-3.220663547515869,-9.23293685913086,0.7420496940612793
1766400174852810500,6.472810546875,-3.2183587551116943,-9.233610153198242,0.7436348795890808
1766400174862820400,6.4828203125,-3.2169175148010254,-9.234150886535645,0.7431660890579224
1766400174872860700,6.492860595703125,-3.214869976043701,-9.234838485717773,0.7434992790222168
1766400174882870500,6.50287060546875,-3.211721658706665,-9.235915184020996,0.7437024116516113
1766400174892880100,6.512880126953125,-3.2087745666503906,-9.236918449401855,0.7439677715301514
1766400174902951000,6.522950927734375,-3.2028753757476807,-9.238764762878418,0.7464748024940491
1766400174923031600,6.543031494140625,-3.198132038116455,-9.240131378173828,0.749869704246521
1766400174943112200,6.5631123046875,-3.19551682472229,-9.240799903869629,0.7527920007705688
1766400174953152500,6.573152587890625,-3.1922149658203125,-9.241874694824219,0.7536243796348572
1766400174963162000,6.583162109375,-3.190185546875,-9.24246883392334,0.754899799823761
1766400174973202400,6.593202392578125,-3.187694787979126,-9.243387222290039,0.7541945576667786
1766400174983242800,6.60324267578125,-3.185572385787964,-9.244062423706055,0.7548948526382446
1766400174993222000,6.613221923828125,-3.1803221702575684,-9.245851516723633,0.7550920844078064
1766400175003262200,6.62326220703125,-3.1733038425445557,-9.248382568359375,0.7536296248435974
1766400175013272000,6.63327197265625,-3.1664609909057617,-9.250799179077148,0.7527583837509155
1766400175033291500,6.65329150390625,-3.162769079208374,-9.252327919006348,0.7494839429855347
1766400175043362300,6.6633623046875,-3.163264751434326,-9.25224781036377,0.7483850121498108
1766400175053372200,6.6733720703125,-3.164350748062134,-9.25196647644043,0.7472726702690125
1766400175063382000,6.683382080078125,-3.1635477542877197,-9.252321243286133,0.7462912797927856
1766400175093502700,6.713502685546875,-3.1606526374816895,-9.253422737121582,0.7448752522468567
1766400175103573500,6.723573486328125,-3.159339666366577,-9.253727912902832,0.7466782331466675
1766400175113553000,6.733552978515625,-3.1565866470336914,-9.254671096801758,0.7466080784797668
1766400175143704000,6.7637041015625,-3.1458985805511475,-9.258273124694824,0.7470739483833313
1766400175153744400,6.773744384765625,-3.142780303955078,-9.259383201599121,0.7464247941970825
1766400175163784700,6.78378466796875,-3.1407787799835205,-9.260046005249023,0.7466300129890442
1766400175173764000,6.79376416015625,-3.1381478309631348,-9.261052131652832,0.7452391386032104
1766400175183804200,6.80380419921875,-3.1340830326080322,-9.262517929077148,0.7441025376319885
1766400175193814000,6.81381396484375,-3.129340887069702,-9.264084815979004,0.7445730566978455
1766400175203823900,6.823823974609375,-3.1254560947418213,-9.265501976013184,0.7432330250740051
1766400175213833500,6.83383349609375,-3.1218514442443848,-9.26673698425293,0.7429688572883606
1766400175223904300,6.843904296875,-3.116365671157837,-9.268623352050781,0.7424924373626709
1766400175243954400,6.863954345703125,-3.1091082096099854,-9.271102905273438,0.7419529557228088
1766400175253994800,6.873994873046875,-3.1012065410614014,-9.273621559143066,0.743576169013977
1766400175264035000,6.88403515625,-3.100107192993164,-9.274019241333008,0.7431596517562866
1766400175274075100,6.8940751953125,-3.0974972248077393,-9.27462387084961,0.74652099609375
1766400175284085000,6.9040849609375,-3.1003146171569824,-9.273473739624023,0.749085009098053
1766400175294094800,6.9140947265625,-3.1067216396331787,-9.271042823791504,0.7526204586029053
1766400175304135200,6.92413525390625,-3.112663984298706,-9.268815040588379,0.755505383014679
1766400175314175200,6.93417529296875,-3.1137096881866455,-9.268166542053223,0.7591513395309448
1766400175324215600,6.944215576171875,-3.1116747856140137,-9.268510818481445,0.7632929682731628
1766400175364346400,6.984346435546875,-3.0867998600006104,-9.276651382446289,0.7653665542602539
1766400175374356000,6.99435595703125,-3.083113431930542,-9.277993202209473,0.7639651298522949
1766400175384426800,7.0044267578125,-3.0837819576263428,-9.278179168701172,0.7589786052703857
1766400175394436600,7.0144365234375,-3.0842199325561523,-9.278326034545898,0.7554299831390381
1766400175404446500,7.024446533203125,-3.0860633850097656,-9.278131484985352,0.7502531409263611
1766400175414456000,7.0344560546875,-3.0851972103118896,-9.27880573272705,0.7454851865768433
1766400175424526800,7.04452685546875,-3.0837042331695557,-9.279647827148438,0.7411729097366333
1766400175434567200,7.054567138671875,-3.083155393600464,-9.280241012573242,0.7360007762908936
1766400175444607500,7.064607421875,-3.0839784145355225,-9.28001594543457,0.7353887557983398
1766400175454617300,7.074617431640625,-3.0837926864624023,-9.28026294708252,0.7330483198165894
1766400175464657400,7.084657470703125,-3.084606170654297,-9.280000686645508,0.732922375202179
1766400175474667300,7.094667236328125,-3.0855209827423096,-9.279682159423828,0.7331357002258301
1766400175484707600,7.10470751953125,-3.0846786499023438,-9.280011177062988,0.7325056195259094
1766400175494717400,7.114717529296875,-3.085930824279785,-9.279674530029297,0.73149174451828
1766400175504727000,7.12472705078125,-3.0884647369384766,-9.278799057006836,0.7319061756134033
1766400175514737000,7.13473681640625,-3.0921905040740967,-9.277740478515625,0.7295850515365601
1766400175524777200,7.144777099609375,-3.092649221420288,-9.277680397033691,0.7284054756164551
1766400175564877300,7.184877197265625,-3.0820682048797607,-9.281560897827148,0.7238175868988037
1766400175574887000,7.194886962890625,-3.0802509784698486,-9.282242774963379,0.7227800488471985
1766400175584957700,7.204957763671875,-3.080739736557007,-9.282217979431152,0.7210062742233276
1766400175594937000,7.21493701171875,-3.081498384475708,-9.28210163116455,0.7192743420600891
1766400175604977400,7.224977294921875,-3.084033966064453,-9.28140926361084,0.7173314094543457
1766400175614987000,7.234987060546875,-3.0855374336242676,-9.2809476852417,0.7168553471565247
1766400175625027300,7.24502734375,-3.087103843688965,-9.280423164367676,0.7169309854507446
1766400175665158000,7.285157958984375,-3.083786725997925,-9.281368255615234,0.7189204096794128
1766400175675137300,7.29513720703125,-3.081190824508667,-9.28215503692627,0.7199199795722961
1766400175685177600,7.305177490234375,-3.076469659805298,-9.283737182617188,0.7196943163871765
1766400175695187200,7.315187255859375,-3.0752246379852295,-9.284234046936035,0.718596339225769
1766400175705258000,7.325258056640625,-3.0708916187286377,-9.285809516906738,0.7167831063270569
1766400175715237400,7.3352373046875,-3.0681204795837402,-9.28682804107666,0.7154662013053894
1766400175725308200,7.34530810546875,-3.068465232849121,-9.286855697631836,0.7136240601539612
1766400175735287300,7.355287353515625,-3.069831371307373,-9.286520004272461,0.7121256589889526
1766400175785366800,7.40536669921875,-2.988332509994507,-9.312774658203125,0.7158744931221008
1766400175795376600,7.415376708984375,-2.9637598991394043,-9.320375442504883,0.7191048264503479
1766400175805386200,7.42538623046875,-2.8975422382354736,-9.340591430664062,0.7266411185264587
1766400175815396000,7.43539599609375,-2.826693058013916,-9.361628532409668,0.734935462474823
1766400175825405700,7.44540576171875,-2.761312484741211,-9.380596160888672,0.7416194677352905
1766400175835415600,7.45541552734375,-2.7046563625335693,-9.396483421325684,0.7492220401763916
1766400175865505800,7.485505859375,-2.5714077949523926,-9.43275260925293,0.7625026702880859
1766400175885525500,7.505525390625,-2.471055746078491,-9.459146499633789,0.7673586010932922
1766400175895565800,7.51556591796875,-2.396587610244751,-9.478469848632812,0.7650842070579529
1766400175905575400,7.525575439453125,-2.3067355155944824,-9.500990867614746,0.7619208097457886
1766400175915585300,7.535585205078125,-2.2014615535736084,-9.526224136352539,0.7583052515983582
1766400175925595100,7.54559521484375,-2.1446056365966797,-9.539334297180176,0.7564035058021545
1766400175935604700,7.555604736328125,-1.9925445318222046,-9.57284164428711,0.7489166259765625
1766400175945645000,7.56564501953125,-1.9472569227218628,-9.582405090332031,0.745719313621521
1766400175975704800,7.595704833984375,-1.773054838180542,-9.618708610534668,0.7121265530586243
1766400175995755000,7.615755126953125,-1.6602052450180054,-9.640442848205566,0.68991619348526
1766400176005764600,7.6257646484375,-1.6132781505584717,-9.649039268493652,0.6810203194618225
1766400176015744000,7.635743896484375,-1.457676649093628,-9.674942970275879,0.664114773273468
1766400176025814800,7.645814697265625,-1.3867629766464233,-9.686331748962402,0.6498205661773682
1766400176035794000,7.6557939453125,-1.2302981615066528,-9.708722114562988,0.6304472088813782
1766400176045803800,7.6658037109375,-1.13553786277771,-9.720990180969238,0.6191016435623169
1766400176055783000,7.675782958984375,-1.0914502143859863,-9.726495742797852,0.6119164228439331
1766400176075833000,7.6958330078125,-0.9041507244110107,-9.747109413146973,0.5888801217079163
1766400176095822000,7.715822021484375,-0.5865882039070129,-9.773931503295898,0.544574499130249
1766400176105862400,7.7258623046875,-0.491249144077301,-9.780525207519531,0.5199894905090332
1766400176115872000,7.7358720703125,-0.2939426302909851,-9.78997802734375,0.4902253746986389
1766400176125881900,7.7458818359375,-0.17747195065021515,-9.793693542480469,0.47168463468551636
1766400176135861200,7.755861328125,-0.0771627351641655,-9.795628547668457,0.45838266611099243
1766400176145962500,7.76596240234375,0.010085340589284897,-9.79676628112793,0.4400795102119446
1766400176155941600,7.775941650390625,0.09071838110685349,-9.797155380249023,0.421779602766037
1766400176165951500,7.785951416015625,0.12675590813159943,-9.797042846679688,0.41506168246269226
1766400176206021000,7.826021240234375,0.36235156655311584,-9.793188095092773,0.3641057014465332
1766400176226040600,7.84604052734375,0.33866438269615173,-9.795278549194336,0.32897037267684937
1766400176236050400,7.856050537109375,0.2719722092151642,-9.798325538635254,0.298749715089798
1766400176246060000,7.86606005859375,0.2182862013578415,-9.800312042236328,0.27681466937065125
1766400176256039400,7.876039306640625,0.1632780134677887,-9.801959991455078,0.25556817650794983
1766400176266079700,7.886079833984375,0.12973053753376007,-9.803082466125488,0.23053981363773346
1766400176276089300,7.89608935546875,0.1132417619228363,-9.803908348083496,0.20231179893016815
1766400176306149000,7.926149169921875,0.11118483543395996,-9.805180549621582,0.12831424176692963
1766400176316159000,7.936158935546875,0.1321212351322174,-9.805245399475098,0.10050562024116516
1766400176326168800,7.9461689453125,0.1405605673789978,-9.805375099182129,0.07260609418153763
1766400176336178400,7.956178466796875,0.12578852474689484,-9.805795669555664,0.03067249432206154
1766400176346188300,7.966188232421875,0.10178396850824356,-9.806119918823242,0.005990180652588606
1766400176356198100,7.9761982421875,0.0822901651263237,-9.806290626525879,-0.016769932582974434
1766400176366207700,7.986207763671875,0.07656360417604446,-9.806279182434082,-0.03759030997753143
1766400176376217600,7.996217529296875,0.08704466372728348,-9.806107521057129,-0.05545622110366821
1766400176416317700,8.036317626953124,0.14483167231082916,-9.804988861083984,-0.10789280384778976
1766400176456387300,8.07638720703125,0.17325696349143982,-9.803824424743652,-0.15935704112052917
1766400176466427600,8.086427734375,0.19215981662273407,-9.803433418273926,-0.16177403926849365
1766400176476437200,8.096437255859374,0.21879063546657562,-9.802779197692871,-0.16739654541015625
1766400176506497000,8.1264970703125,0.3400362730026245,-9.799148559570312,-0.17734307050704956
1766400176516476400,8.136476318359374,0.3650193214416504,-9.798291206359863,-0.17498277127742767
1766400176526516700,8.146516845703125,0.43087854981422424,-9.795638084411621,-0.17388708889484406
1766400176536495900,8.156495849609374,0.46703240275382996,-9.794010162353516,-0.17213819921016693
1766400176546536200,8.1665361328125,0.48124563694000244,-9.793383598327637,-0.16866613924503326
1766400176556546000,8.176546142578125,0.49590545892715454,-9.792791366577148,-0.16039486229419708
1766400176566586000,8.186586181640624,0.4949743151664734,-9.792909622192383,-0.15595628321170807
1766400176576565500,8.1965654296875,0.4942992031574249,-9.793004035949707,-0.15205226838588715
1766400176616665600,8.23666552734375,0.6438912153244019,-9.784294128417969,-0.152969092130661
1766400176626706000,8.246705810546874,0.6924527287483215,-9.780845642089844,-0.1611243337392807
1766400176636715500,8.256715576171874,0.7399322390556335,-9.777377128601074,-0.16065847873687744
1766400176646725400,8.266725341796874,0.7464993596076965,-9.776999473571777,-0.15304449200630188
1766400176656735200,8.2767353515625,0.7225415706634521,-9.778831481933594,-0.1510179489850998
1766400176666744800,8.286744873046874,0.6935738325119019,-9.780858993530273,-0.15546061098575592
1766400176676754700,8.296754638671874,0.6516676545143127,-9.78375244140625,-0.15455986559391022
1766400176686795000,8.306794921875,0.6449848413467407,-9.784123420715332,-0.15903058648109436
1766400176706875600,8.326875732421875,0.6062199473381042,-9.786635398864746,-0.15706980228424072
1766400176716854800,8.336854736328124,0.6108219027519226,-9.78648567199707,-0.14833617210388184
1766400176726864600,8.34686474609375,0.6234954595565796,-9.785820960998535,-0.13905541598796844
1766400176736874200,8.356874267578124,0.6316220760345459,-9.785429954528809,-0.12970365583896637
1766400176746884000,8.366884033203124,0.643362820148468,-9.784843444824219,-0.11541355401277542
1766400176756894000,8.37689404296875,0.6424140930175781,-9.785065650939941,-0.10099924355745316
1766400176766903600,8.386903564453124,0.6202040314674377,-9.786675453186035,-0.08183452486991882
1766400176776913400,8.396913330078124,0.6124684810638428,-9.787248611450195,-0.07109539955854416
1766400176786953700,8.40695361328125,0.6065712571144104,-9.787696838378906,-0.059018298983573914
1766400176807034000,8.4270341796875,0.6342688202857971,-9.786050796508789,-0.03632686659693718
1766400176817044000,8.4370439453125,0.6649264097213745,-9.78404712677002,-0.026918401941657066
1766400176827114800,8.44711474609375,0.6957745552062988,-9.781917572021484,-0.020052315667271614
1766400176837124600,8.45712451171875,0.7139315605163574,-9.780622482299805,-0.01152852550148964
1766400176847195400,8.4671953125,0.7220587134361267,-9.780031204223633,-0.004388882778584957
1766400176857205200,8.477205322265625,0.7203606963157654,-9.780156135559082,0.0048734513111412525
1766400176867276000,8.487276123046875,0.7143301963806152,-9.780594825744629,0.010929098352789879
1766400176877285600,8.49728564453125,0.7062491774559021,-9.781177520751953,0.013298165053129196
1766400176887326000,8.507325927734374,0.7019512057304382,-9.781478881835938,0.01857522875070572
1766400176907406600,8.527406494140624,0.7031716704368591,-9.78136157989502,0.02987082302570343
1766400176917416200,8.537416259765624,0.7162660956382751,-9.780390739440918,0.035834699869155884
1766400176927487200,8.5474873046875,0.7135644555091858,-9.780590057373047,0.035817455500364304
1766400176937496800,8.557496826171874,0.7132757306098938,-9.78058910369873,0.041603345423936844
1766400176947506700,8.567506591796874,0.7092214822769165,-9.780858993530273,0.04710515961050987
1766400176957516300,8.577516357421874,0.7050333619117737,-9.781144142150879,0.05022212117910385
1766400176967526100,8.587526123046874,0.6987550258636475,-9.781582832336426,0.052754856646060944
1766400176977536000,8.597535888671874,0.6901479363441467,-9.782171249389648,0.056435298174619675
1766400176987545600,8.607545654296874,0.6841244101524353,-9.782583236694336,0.058824822306632996
1766400176997555500,8.617555419921874,0.6814642548561096,-9.782753944396973,0.06087854132056236
1766400177027645700,8.647645751953124,0.6918377876281738,-9.78198528289795,0.06715337932109833
1766400177037686000,8.65768603515625,0.6895008683204651,-9.782136917114258,0.06923545151948929
1766400177047696000,8.66769580078125,0.6862392425537109,-9.782360076904297,0.0699225589632988
1766400177057705700,8.677705810546875,0.6839350461959839,-9.782508850097656,0.0717085599899292
1766400177067745800,8.687745849609374,0.680840015411377,-9.782706260681152,0.07433014363050461
1766400177077786000,8.6977861328125,0.6723118424415588,-9.783260345458984,0.0788172259926796
1766400177087826400,8.707826416015624,0.6656389236450195,-9.783695220947266,0.08132833242416382
1766400177097836300,8.717836181640624,0.6542617678642273,-9.78443431854248,0.08464081585407257
1766400177117855700,8.737855712890624,0.6418494582176208,-9.785233497619629,0.08730711042881012
1766400177137875200,8.757875244140624,0.6485024690628052,-9.784796714782715,0.08702011406421661
1766400177147915500,8.76791552734375,0.6495978832244873,-9.7847261428833,0.08695406466722488
1766400177157925400,8.77792529296875,0.6556243300437927,-9.784324645996094,0.08685936778783798
1766400177167965700,8.787965576171874,0.6566495895385742,-9.784250259399414,0.08743570744991302
1766400177177975300,8.797975341796874,0.6597007513046265,-9.784013748168945,0.09099223464727402
1766400177188046000,8.808046142578124,0.6600310206413269,-9.783945083618164,0.09589315205812454
1766400177198086400,8.81808642578125,0.6644920706748962,-9.783610343933105,0.09906155616044998
1766400177218167000,8.8381669921875,0.6803396344184875,-9.782506942749023,0.10046791285276413
1766400177228207400,8.848207275390624,0.6819593906402588,-9.78240966796875,0.09893851727247238
1766400177238217200,8.85821728515625,0.669917643070221,-9.783245086669922,0.09862316399812698
1766400177248257300,8.86825732421875,0.6509680151939392,-9.784503936767578,0.10059913992881775
1766400177258267100,8.87826708984375,0.6362842321395874,-9.785435676574707,0.10382482409477234
1766400177268307500,8.888307373046874,0.6308242082595825,-9.785751342773438,0.10739275068044662
1766400177278317300,8.8983173828125,0.6306418180465698,-9.78568172454834,0.11453618854284286
1766400177298336800,8.918336669921874,0.619438886642456,-9.786262512207031,0.12557196617126465
1766400177308407600,8.928407470703124,0.6100572943687439,-9.786757469177246,0.13270898163318634
1766400177318417400,8.93841748046875,0.601144552230835,-9.787229537963867,0.13842998445034027
1766400177328457500,8.94845751953125,0.5968623161315918,-9.787453651428223,0.14120003581047058
1766400177338467300,8.95846728515625,0.5977122187614441,-9.78746223449707,0.13679857552051544
1766400177348477200,8.968477294921875,0.5945903062820435,-9.787737846374512,0.13064181804656982
1766400177358517500,8.978517578125,0.5764987468719482,-9.788825988769531,0.13003917038440704
1766400177368527000,8.988527099609374,0.551254391670227,-9.790270805358887,0.1308145374059677
1766400177378537000,8.998536865234374,0.5223311185836792,-9.791866302490234,0.13000789284706116
1766400177388546600,9.008546630859374,0.4902016818523407,-9.793525695800781,0.13012948632240295
1766400177398556400,9.018556396484374,0.45582011342048645,-9.795149803161621,0.13284721970558167
1766400177408566300,9.028566162109374,0.4502718448638916,-9.79538631439209,0.134395033121109
1766400177428616200,9.0486162109375,0.4640922546386719,-9.794816970825195,0.1288306713104248
1766400177448666400,9.068666259765624,0.4476543366909027,-9.795722007751465,0.11761340498924255
1766400177458676000,9.078676025390624,0.41574937105178833,-9.797162055969238,0.11474135518074036
1766400177468685800,9.088685791015624,0.3895096182823181,-9.798296928405762,0.10968378186225891
1766400177478695700,9.09869580078125,0.3903443217277527,-9.798320770263672,0.10457827150821686
1766400177488736000,9.108736083984375,0.39859306812286377,-9.798027038574219,0.10081775486469269
1766400177498745600,9.11874560546875,0.40103521943092346,-9.797934532165527,0.10028291493654251
1766400177508755500,9.12875537109375,0.41615796089172363,-9.797318458557129,0.09883885085582733
1766400177518765300,9.138765380859375,0.44763973355293274,-9.795995712280273,0.09219517558813095
1766400177528836000,9.148836181640625,0.45833006501197815,-9.795527458190918,0.08936024457216263
1766400177558865400,9.178865478515625,0.45139938592910767,-9.796002388000488,0.07035335153341293
1766400177568905500,9.188905517578124,0.4431295692920685,-9.796405792236328,0.06678133457899094
1766400177578945800,9.19894580078125,0.441733717918396,-9.796524047851562,0.05843932926654816
1766400177588955600,9.20895556640625,0.4441542327404022,-9.796442985534668,0.05303162708878517
1766400177598934800,9.218934814453124,0.44628363847732544,-9.796360969543457,0.050137657672166824
1766400177608944600,9.228944580078124,0.4449509382247925,-9.796440124511719,0.046535834670066833
1766400177639035000,9.259034912109374,0.4213537871837616,-9.797529220581055,0.03565671294927597
1766400177649044700,9.269044677734374,0.4087275266647339,-9.798079490661621,0.030857495963573456
1766400177659054600,9.2790546875,0.396435022354126,-9.798599243164062,0.026761749759316444
1766400177669094700,9.2890947265625,0.3886842727661133,-9.79891300201416,0.02446925640106201
1766400177679135000,9.299135009765624,0.3830529749393463,-9.799139022827148,0.02358107455074787
1766400177689144800,9.309144775390624,0.37828677892684937,-9.799328804016113,0.020568449050188065
1766400177699185200,9.31918505859375,0.37320202589035034,-9.799528121948242,0.019661562517285347
1766400177709225500,9.3292255859375,0.36426353454589844,-9.799866676330566,0.01784779131412506
1766400177739346200,9.35934619140625,0.33843934535980225,-9.800806999206543,-0.0014101590495556593
1766400177749356000,9.36935595703125,0.3357277512550354,-9.80090045928955,-0.005173018667846918
1766400177759366000,9.379365966796875,0.3350350856781006,-9.800920486450195,-0.011049802415072918
1766400177769375500,9.38937548828125,0.3367968499660492,-9.800848960876465,-0.016818741336464882
1766400177779385300,9.39938525390625,0.33790159225463867,-9.800801277160645,-0.022455578669905663
1766400177789395200,9.409395263671875,0.3337549865245819,-9.800929069519043,-0.028901685029268265
1766400177799404800,9.41940478515625,0.333120197057724,-9.80094051361084,-0.03144757077097893
1766400177809414700,9.42941455078125,0.3356061577796936,-9.800832748413086,-0.03819528967142105
1766400177819424300,9.43942431640625,0.33541443943977356,-9.800832748413086,-0.03963993862271309
1766400177829434000,9.44943408203125,0.3303752839565277,-9.800992012023926,-0.04263824224472046
1766400177859463400,9.47946337890625,0.30849429965019226,-9.801628112792969,-0.05764028802514076
1766400177879513600,9.499513671875,0.33514732122421265,-9.800718307495117,-0.06324556469917297
1766400177889553700,9.5095537109375,0.35272449254989624,-9.800087928771973,-0.06522855162620544
1766400177899563500,9.5195634765625,0.3617991805076599,-9.799748420715332,-0.06657441705465317
1766400177909573400,9.529573486328125,0.37405720353126526,-9.79929256439209,-0.06603285670280457
1766400177919583000,9.5395830078125,0.37331366539001465,-9.7993803024292,-0.05604659020900726
1766400177949612300,9.5696123046875,0.35460489988327026,-9.800187110900879,-0.03111906908452511
1766400177959652600,9.579652587890624,0.3617284595966339,-9.799949645996094,-0.023081308230757713
1766400177969693000,9.58969287109375,0.3679506778717041,-9.799727439880371,-0.019461948424577713
1766400177979702800,9.599702880859375,0.3848211467266083,-9.799088478088379,-0.013522329740226269
1766400177989742800,9.609742919921874,0.4042132496833801,-9.798312187194824,-0.00871434435248375
1766400177999752700,9.619752685546874,0.42128247022628784,-9.797595977783203,-0.002551145851612091
1766400178009762600,9.629762451171874,0.4381418228149414,-9.796856880187988,0.003631926840171218
1766400178019772200,9.639772216796874,0.44344228506088257,-9.796616554260254,0.006355214398354292
1766400178039791900,9.6597919921875,0.4455716907978058,-9.796509742736816,0.01598784327507019
1766400178049801500,9.669801513671874,0.44768473505973816,-9.796405792236328,0.020248129963874817
1766400178059811300,9.679811279296874,0.4627472758293152,-9.795692443847656,0.02642155811190605
1766400178069821200,9.6898212890625,0.4805997610092163,-9.794812202453613,0.03250438719987869
1766400178079861500,9.699861572265625,0.5057458877563477,-9.793533325195312,0.03640051558613777
1766400178089871000,9.70987109375,0.5185498595237732,-9.792860984802246,0.03719312697649002
1766400178099911400,9.719911376953124,0.5540004968643188,-9.790898323059082,0.04224807396531105
1766400178109921300,9.72992138671875,0.5741699934005737,-9.789718627929688,0.04640110209584236
1766400178119931000,9.739930908203124,0.5827087163925171,-9.789206504821777,0.04749035835266113
1766400178180050700,9.80005078125,0.692004382610321,-9.78200912475586,0.061809975653886795
1766400178190060300,9.810060302734374,0.7041594982147217,-9.781119346618652,0.06530249118804932
1766400178200100600,9.8201005859375,0.7129296660423279,-9.780444145202637,0.07110738009214401
1766400178220120000,9.8401201171875,0.7144856452941895,-9.780284881591797,0.07697539776563644
1766400178230160400,9.850160400390624,0.7183061242103577,-9.77997875213623,0.0803586095571518
1766400178250180000,9.87018017578125,0.7254939675331116,-9.779430389404297,0.08246084302663803
1766400178260189700,9.880189697265624,0.7227706909179688,-9.779632568359375,0.08221475780010223
1766400178270260500,9.890260498046874,0.7188426852226257,-9.779929161071777,0.08149404078722
1766400178280270300,9.900270263671874,0.6976993680000305,-9.781484603881836,0.07869593799114227
1766400178290310700,9.910310546875,0.6892641186714172,-9.782089233398438,0.07779782265424728
1766400178300289800,9.920289794921874,0.6805208325386047,-9.78272533416748,0.07445172220468521
1766400178310299600,9.930299560546874,0.6794745326042175,-9.782818794250488,0.07179886847734451
1766400178320309500,9.9403095703125,0.6789742112159729,-9.782861709594727,0.07093202322721481
1766400178330319000,9.950319091796874,0.6801373958587646,-9.782805442810059,0.06716594845056534
1766400178370388700,9.990388671875,0.6805816292762756,-9.782828330993652,0.05877893790602684
1766400178390408200,10.010408203125,0.6759522557258606,-9.783172607421875,0.055052611976861954
1766400178400418000,10.02041796875,0.6748258471488953,-9.78325080871582,0.05467822402715683
1766400178410428000,10.030427978515625,0.6711655855178833,-9.783509254455566,0.05359773710370064
1766400178420468000,10.040468017578124,0.6680804491043091,-9.783722877502441,0.05337795615196228
1766400178430508300,10.05050830078125,0.6637953519821167,-9.784008979797363,0.054359953850507736
1766400178480618200,10.1006181640625,0.6493629217147827,-9.784918785095215,0.06402765214443207
1766400178490628000,10.110628173828125,0.6506026983261108,-9.784818649291992,0.06665419787168503
1766400178500668200,10.120668212890624,0.6523381471633911,-9.78469467163086,0.06801993399858475
1766400178510708500,10.13070849609375,0.649344801902771,-9.784893035888672,0.06792261451482773
1766400178520718300,10.14071826171875,0.6453513503074646,-9.785157203674316,0.06796703487634659
1766400178530728200,10.150728271484375,0.6305138468742371,-9.78613567352295,0.06626052409410477
1766400178570797600,10.190797607421874,0.6112655401229858,-9.787391662597656,0.06086275726556778
1766400178580807400,10.200807373046874,0.6179489493370056,-9.786985397338867,0.058864861726760864
1766400178590817300,10.2108173828125,0.6259937286376953,-9.786482810974121,0.0573950819671154
1766400178600827000,10.220826904296874,0.6275368928909302,-9.786378860473633,0.05808686465024948
1766400178610836700,10.230836669921874,0.6378741264343262,-9.785715103149414,0.057358548045158386
1766400178620846600,10.2408466796875,0.6416624188423157,-9.785467147827148,0.057639703154563904
1766400178630886700,10.25088671875,0.6427490711212158,-9.785381317138672,0.0598570890724659
1766400178640927000,10.260927001953124,0.6393389701843262,-9.78558349609375,0.0632338747382164
1766400178671017500,10.291017578125,0.6370967030525208,-9.785727500915527,0.06360357999801636
1766400178681057800,10.301057861328125,0.6602811813354492,-9.784197807312012,0.06240268051624298
1766400178691067400,10.3110673828125,0.6761369109153748,-9.783123970031738,0.06078793853521347
1766400178701107700,10.321107666015624,0.6832336187362671,-9.782625198364258,0.061845339834690094
1766400178711178500,10.331178466796874,0.6877110600471497,-9.782313346862793,0.06167612224817276
1766400178721218800,10.34121875,0.6836159229278564,-9.782578468322754,0.06488572806119919
1766400178731228700,10.351228759765625,0.6789946556091309,-9.782877922058105,0.06824702024459839
1766400178741268700,10.361268798828124,0.6780331134796143,-9.782939910888672,0.0689496174454689
1766400178771298000,10.391298095703124,0.6904922127723694,-9.782050132751465,0.07145663350820541
1766400178781338400,10.40133837890625,0.6946107745170593,-9.781744956970215,0.07320201396942139
1766400178791348200,10.41134814453125,0.7025508880615234,-9.781169891357422,0.07459171861410141
1766400178801388500,10.421388427734374,0.7117460370063782,-9.780486106872559,0.07683686167001724
1766400178811428900,10.431428955078125,0.7233569622039795,-9.779623031616211,0.07820142805576324
1766400178821438500,10.4414384765625,0.7301847338676453,-9.779109001159668,0.07924918830394745
1766400178831478800,10.451478759765624,0.7341998219490051,-9.77879524230957,0.08072715252637863
1766400178841488600,10.461488525390624,0.7271329760551453,-9.779298782348633,0.08371902257204056
1766400178851498200,10.471498291015624,0.7238841652870178,-9.779539108276367,0.08375556021928787
1766400178891598300,10.511598388671874,0.7385101318359375,-9.778355598449707,0.09356968104839325
1766400178901608200,10.521608154296874,0.7546235918998718,-9.777112007141113,0.0948415994644165
1766400178911648500,10.5316484375,0.771896243095398,-9.775753021240234,0.09607786685228348
1766400178921658400,10.541658447265625,0.7829144597053528,-9.774883270263672,0.095482237637043
1766400178931668000,10.55166796875,0.8066074848175049,-9.77298355102539,0.09273381531238556
1766400178941677800,10.561677734375,0.8186802268028259,-9.772011756896973,0.08928630501031876
1766400178951718100,10.57171826171875,0.8221756219863892,-9.771747589111328,0.0856146290898323
1766400178981808400,10.601808349609374,0.7926578521728516,-9.774297714233398,0.07191489636898041
1766400178991848700,10.6118486328125,0.7795978784561157,-9.775392532348633,0.06580518186092377
1766400179001858600,10.621858642578125,0.7823171019554138,-9.775206565856934,0.060873571783304214
1766400179011898600,10.631898681640624,0.7918623089790344,-9.774463653564453,0.0564236082136631
1766400179021939000,10.64193896484375,0.8011766672134399,-9.773715019226074,0.05484598129987717
1766400179031948800,10.65194873046875,0.8176479339599609,-9.772366523742676,0.051722295582294464
1766400179041989000,10.661989013671874,0.8220826983451843,-9.772017478942871,0.047244857996702194
1766400179051998700,10.671998779296874,0.8204618096351624,-9.772171020507812,0.043703533709049225
1766400179092068400,10.712068359375,0.815588653087616,-9.772651672363281,0.022270869463682175
1766400179102108700,10.722108642578124,0.820949912071228,-9.772216796875,0.014472762122750282
1766400179112149000,10.73214892578125,0.8314958214759827,-9.771334648132324,0.007322598248720169
1766400179122158800,10.742158935546875,0.8291133642196655,-9.771537780761719,0.0005044423742219806
1766400179132199000,10.752198974609374,0.8261404633522034,-9.77178955078125,-0.005090893711894751
1766400179152218600,10.772218505859374,0.8112223148345947,-9.773024559020996,-0.01716156303882599
1766400179162228200,10.782228271484374,0.7820388674736023,-9.775395393371582,-0.02118775062263012
1766400179202328300,10.822328369140624,0.7989099025726318,-9.77400016784668,-0.03298719972372055
1766400179212368600,10.83236865234375,0.8162673115730286,-9.772551536560059,-0.036967795342206955
1766400179222378500,10.84237841796875,0.8242273330688477,-9.77187442779541,-0.03876549378037453
1766400179232388400,10.852388427734375,0.8270189762115479,-9.771636009216309,-0.039453472942113876
1766400179242398000,10.86239794921875,0.8245862126350403,-9.771843910217285,-0.03895575553178787
1766400179262417400,10.88241748046875,0.8314853310585022,-9.771268844604492,-0.03628244251012802
1766400179272427300,10.89242724609375,0.8438479900360107,-9.770210266113281,-0.03633534163236618
1766400179282437000,10.90243701171875,0.8552426099777222,-9.769216537475586,-0.037033844739198685
1766400179292477400,10.9124775390625,0.8660545349121094,-9.7682466506958,-0.04111146926879883
1766400179302487000,10.922487060546874,0.8672159910202026,-9.768147468566895,-0.04029927775263786
1766400179312527400,10.93252734375,0.8743547201156616,-9.767492294311523,-0.04455897957086563
1766400179322537200,10.942537109375,0.8792805075645447,-9.767026901245117,-0.049532387405633926
1766400179332577500,10.95257763671875,0.880958080291748,-9.766853332519531,-0.05375555530190468
1766400179342587100,10.962587158203124,0.8781523704528809,-9.767061233520508,-0.06134937331080437
1766400179352597000,10.972596923828124,0.8763304352760315,-9.767189025878906,-0.06688333302736282
1766400179362576100,10.982576171875,0.877635657787323,-9.767050743103027,-0.06973930448293686
1766400179382595800,11.002595947265625,0.8717477917671204,-9.767497062683105,-0.08019903302192688
1766400179412625200,11.032625244140625,0.8586246967315674,-9.768636703491211,-0.08323182910680771
1766400179422634800,11.042634765625,0.8513824343681335,-9.769295692443848,-0.08016776293516159
1766400179432644600,11.05264453125,0.8400701880455017,-9.77032470703125,-0.07391250133514404
1766400179442654500,11.062654541015625,0.8195903301239014,-9.77212142944336,-0.0656914934515953
1766400179452694500,11.072694580078124,0.8016337752342224,-9.773660659790039,-0.05785626918077469
1766400179462674000,11.082673828125,0.7929606437683105,-9.774394035339355,-0.05341682583093643
1766400179482693400,11.102693359375,0.7550503015518188,-9.777435302734375,-0.04523907229304314
1766400179512753200,11.132753173828124,0.6675847768783569,-9.78384017944336,-0.03460077568888664
1766400179522763000,11.142762939453124,0.6510340571403503,-9.784968376159668,-0.030670156702399254
1766400179532772900,11.15277294921875,0.6319026350975037,-9.786248207092285,-0.02060059830546379
1766400179542782500,11.162782470703124,0.6260480880737305,-9.78663158416748,-0.016691315919160843
1766400179552822800,11.17282275390625,0.6036199927330017,-9.78804874420166,-0.012680325657129288
1766400179562832600,11.18283251953125,0.5911112427711487,-9.788817405700684,-0.006322773173451424
1766400179572842200,11.19284228515625,0.5414753556251526,-9.7916898727417,-0.0029097499791532755
1766400179592923000,11.2129228515625,0.47387364506721497,-9.795193672180176,-0.00013414777640718967
1766400179622982700,11.242982666015624,0.4176332950592041,-9.79775333404541,0.0004994739429093897
1766400179633023000,11.25302294921875,0.41669631004333496,-9.797794342041016,-0.0021618541795760393
1766400179643032800,11.26303271484375,0.39700084924697876,-9.798611640930176,-0.0023994625080376863
1766400179653042400,11.27304248046875,0.34796881675720215,-9.800475120544434,0.002610767027363181
1766400179663052300,11.28305224609375,0.318255215883255,-9.801485061645508,0.003985270392149687
1766400179673092600,11.293092529296874,0.3069792091846466,-9.801844596862793,-0.00019581483502406627
1766400179723202600,11.34320263671875,0.2735971510410309,-9.80281925201416,-0.01588292047381401
1766400179733273300,11.3532734375,0.2686433494091034,-9.802940368652344,-0.024335691705346107
1766400179743313400,11.3633134765625,0.25123393535614014,-9.80336856842041,-0.03561053425073624
1766400179753323300,11.3733232421875,0.21504268050193787,-9.804208755493164,-0.040640052407979965
1766400179763333000,11.3833330078125,0.19389760494232178,-9.804638862609863,-0.04316635802388191
1766400179773342700,11.3933427734375,0.183820441365242,-9.804829597473145,-0.043956924229860306
1766400179783383000,11.403383056640624,0.1892816424369812,-9.804712295532227,-0.046920742839574814
1766400179833462500,11.453462646484375,0.21435879170894623,-9.804247856140137,-0.03408055007457733
1766400179843502800,11.4635029296875,0.2239467054605484,-9.804038047790527,-0.032376084476709366
1766400179853573600,11.47357373046875,0.2271779477596283,-9.803969383239746,-0.031231297180056572
1766400179863613700,11.48361376953125,0.23227497935295105,-9.803853034973145,-0.030464112758636475
1766400179873623600,11.49362353515625,0.24328093230724335,-9.803586959838867,-0.029527124017477036
1766400179883633400,11.50363330078125,0.25862348079681396,-9.803197860717773,-0.02850157953798771
1766400179923764000,11.543763916015624,0.27484452724456787,-9.802779197692871,-0.019223172217607498
1766400179933773800,11.55377392578125,0.2696171700954437,-9.802922248840332,-0.020048223435878754
1766400179943783400,11.563783447265624,0.26520341634750366,-9.803044319152832,-0.019575053825974464
1766400179953823700,11.57382373046875,0.26390811800956726,-9.80307674407959,-0.02115706168115139
1766400179963833600,11.58383349609375,0.2639373540878296,-9.803071022033691,-0.022971125319600105
1766400179973812700,11.593812744140624,0.26417526602745056,-9.803059577941895,-0.02454524300992489
1766400179983853000,11.60385302734375,0.2629191279411316,-9.803094863891602,-0.0238917488604784
1766400179993863000,11.61386279296875,0.26073652505874634,-9.803154945373535,-0.023583997040987015
1766400180043911700,11.66391162109375,0.29846855998039246,-9.802080154418945,-0.023366263136267662
1766400180053952000,11.673951904296874,0.2996516525745392,-9.802033424377441,-0.02729278802871704
1766400180063961600,11.683961669921874,0.2970195412635803,-9.802103042602539,-0.03108399733901024
1766400180074002000,11.694001953125,0.28231123089790344,-9.802528381347656,-0.03322743996977806
1766400180084011800,11.70401171875,0.2772194445133209,-9.802668571472168,-0.035011984407901764
1766400180094021600,11.714021728515625,0.2826525866985321,-9.802498817443848,-0.038643911480903625
1766400180124081400,11.744081298828124,0.30433017015457153,-9.801763534545898,-0.05665536969900131
1766400180134060500,11.754060546875,0.3100052773952484,-9.801552772521973,-0.06202566623687744
1766400180144100900,11.764100830078124,0.31352701783180237,-9.801395416259766,-0.06907090544700623
1766400180154141200,11.77414111328125,0.3164268434047699,-9.801220893859863,-0.07962942123413086
1766400180174130200,11.794130126953124,0.32967209815979004,-9.800661087036133,-0.09354104101657867
1766400180184170500,11.80417041015625,0.3362906575202942,-9.800413131713867,-0.09595979005098343
1766400180194180400,11.814180419921875,0.36787059903144836,-9.799272537231445,-0.09657645970582962
1766400180214199800,11.83419970703125,0.39600950479507446,-9.798198699951172,-0.09405922144651413
1766400180244290000,11.8642900390625,0.3969680964946747,-9.7981538772583,-0.09464578330516815
1766400180254269400,11.87426953125,0.4023386836051941,-9.797959327697754,-0.09225538372993469
1766400180264309500,11.8843095703125,0.4173901379108429,-9.797350883483887,-0.09011808037757874
1766400180274349800,11.894349853515624,0.4424521028995514,-9.796248435974121,-0.09020370990037918
1766400180284359700,11.904359619140624,0.48220133781433105,-9.794367790222168,-0.0907449796795845
1766400180294338800,11.9143388671875,0.4944166839122772,-9.793758392333984,-0.09072130918502808
1766400180304379100,11.924379150390624,0.5086421966552734,-9.79302978515625,-0.09084668755531311
1766400180314389000,11.934388916015624,0.51124507188797,-9.792880058288574,-0.09229864180088043
1766400180324429300,11.94442919921875,0.5088555216789246,-9.793001174926758,-0.09256459772586823
1766400180334408400,11.954408447265624,0.5059890151023865,-9.793142318725586,-0.0935053825378418
1766400180344448800,11.96444873046875,0.509759783744812,-9.792933464050293,-0.09494125843048096
1766400180354458600,11.974458740234375,0.518504798412323,-9.79245376586914,-0.0969783216714859
1766400180364468200,11.98446826171875,0.532922625541687,-9.791641235351562,-0.10081132501363754
1766400180374447600,11.994447509765624,0.5606096982955933,-9.790055274963379,-0.10445289313793182
1766400180384488000,12.004488037109375,0.5744417905807495,-9.789200782775879,-0.10934504866600037
1766400180394558700,12.014558837890625,0.5879734754562378,-9.78836727142334,-0.1119564026594162
1766400180404568300,12.024568359375,0.5975123047828674,-9.78774642944336,-0.11586451530456543
1766400180434658800,12.054658935546875,0.639290452003479,-9.784994125366211,-0.12486585974693298
1766400180454678300,12.07467822265625,0.666949987411499,-9.783072471618652,-0.13060878217220306
1766400180464688000,12.084688232421875,0.6813082098960876,-9.782051086425781,-0.13294483721256256
1766400180474697700,12.09469775390625,0.6912673115730286,-9.781279563903809,-0.13828736543655396
1766400180484707600,12.10470751953125,0.6904466152191162,-9.78121566772461,-0.14669308066368103
1766400180494717400,12.114717529296875,0.673937976360321,-9.782215118408203,-0.1564350128173828
1766400180504727000,12.12472705078125,0.6535235643386841,-9.783294677734375,-0.17448124289512634
1766400180514737000,12.13473681640625,0.6472451686859131,-9.78359603881836,-0.18088819086551666
1766400180554837000,12.1748369140625,0.6869447231292725,-9.779669761657715,-0.23788608610630035
1766400180564846800,12.184846923828125,0.6877490282058716,-9.779271125793457,-0.25150078535079956
1766400180574856400,12.1948564453125,0.6824515461921692,-9.779241561889648,-0.2665969431400299
1766400180584896800,12.204896728515624,0.6646358966827393,-9.779748916625977,-0.2918485701084137
1766400180594937000,12.21493701171875,0.6555518507957458,-9.780125617980957,-0.2996785342693329
1766400180604916200,12.224916259765624,0.6341191530227661,-9.78105354309082,-0.3151145875453949
1766400180614895600,12.2348955078125,0.610001802444458,-9.781973838806152,-0.3335951268672943
1766400180624936000,12.24493603515625,0.5894336104393005,-9.78255844116211,-0.352863609790802
1766400180654934500,12.2749345703125,0.6245271563529968,-9.777868270874023,-0.41672757267951965
1766400180664974800,12.284974853515624,0.633617639541626,-9.776949882507324,-0.42447715997695923
1766400180675015200,12.29501513671875,0.6419762969017029,-9.775979995727539,-0.4341402053833008
1766400180685055500,12.305055419921874,0.6442863345146179,-9.775126457214355,-0.44965019822120667
1766400180705075000,12.325074951171874,0.6382353901863098,-9.774867057800293,-0.4637243151664734
1766400180715084800,12.335084716796874,0.63697749376297,-9.774565696716309,-0.47171735763549805
1766400180725094700,12.3450947265625,0.6499661207199097,-9.77349853515625,-0.47608548402786255
1766400180795254500,12.415254638671875,0.7419026494026184,-9.766602516174316,-0.4832102358341217
1766400180805233700,12.425233642578124,0.7456623315811157,-9.76632022857666,-0.4831082224845886
1766400180815274000,12.43527392578125,0.7503033876419067,-9.765936851501465,-0.4836828112602234
1766400180825314300,12.445314208984374,0.7554156184196472,-9.765536308288574,-0.48379242420196533
1766400180835354600,12.455354736328125,0.7610007524490356,-9.765098571777344,-0.4838435649871826
1766400180845395000,12.46539501953125,0.7602741718292236,-9.765254020690918,-0.4818532466888428
1766400180855404500,12.475404541015624,0.7556021213531494,-9.76567268371582,-0.48069852590560913
1766400180885495000,12.5054951171875,0.7511082887649536,-9.766796112060547,-0.46469345688819885
1766400180895504600,12.515504638671874,0.752159833908081,-9.766980171203613,-0.4590729773044586
1766400180905514500,12.525514404296874,0.758291482925415,-9.766602516174316,-0.457041472196579
1766400180915524000,12.535524169921874,0.7738280892372131,-9.765310287475586,-0.4585779011249542
1766400180925534000,12.545533935546874,0.7813935279846191,-9.764689445495605,-0.4589698016643524
1766400180935574300,12.55557421875,0.7965940237045288,-9.7632474899292,-0.4634834825992584
1766400180945584000,12.565584228515625,0.8255886435508728,-9.760248184204102,-0.4757762849330902
1766400180955624400,12.57562451171875,0.8422931432723999,-9.758439064025879,-0.48352527618408203
1766400180975644000,12.595643798828124,0.8272422552108765,-9.75887680053711,-0.5003466606140137
1766400180985653500,12.605653564453124,0.816721498966217,-9.759449005126953,-0.5064648389816284
1766400180995693800,12.61569384765625,0.8116068840026855,-9.759753227233887,-0.5088178515434265
1766400181005673200,12.625673095703124,0.796330988407135,-9.760977745056152,-0.5094912052154541
1766400181015744000,12.635743896484374,0.7900345325469971,-9.761462211608887,-0.5099945068359375
1766400181025723100,12.64572314453125,0.7811883687973022,-9.762213706970215,-0.5092401504516602
1766400181035733000,12.65573291015625,0.7734066247940063,-9.762945175170898,-0.5070627927780151
1766400181045773300,12.665773193359374,0.7658563852310181,-9.763747215270996,-0.5030877590179443
1766400181055813600,12.675813720703125,0.7601999640464783,-9.764369010925293,-0.499574214220047
1766400181065853700,12.685853759765624,0.7541004419326782,-9.765402793884277,-0.4885217845439911
1766400181095944200,12.715944091796874,0.7157049775123596,-9.769232749938965,-0.46930912137031555
1766400181105953800,12.725953857421874,0.6831430196762085,-9.771748542785645,-0.46541592478752136
1766400181116055300,12.73605517578125,0.6474573612213135,-9.774553298950195,-0.4574939012527466
1766400181126034400,12.746034423828124,0.6336690783500671,-9.77580451965332,-0.45003393292427063
1766400181136074800,12.75607470703125,0.6285287737846375,-9.776456832885742,-0.442981094121933
1766400181146115000,12.766114990234374,0.6317267417907715,-9.776534080505371,-0.43670186400413513
1766400181156155400,12.7761552734375,0.6291109919548035,-9.776896476745605,-0.43231940269470215
1766400181176205300,12.796205322265624,0.6125380396842957,-9.778273582458496,-0.424904465675354
1766400181196225000,12.81622509765625,0.6026017665863037,-9.778778076171875,-0.42752283811569214
1766400181206234600,12.826234619140624,0.5935153365135193,-9.779060363769531,-0.43370530009269714
1766400181216275000,12.83627490234375,0.5797650814056396,-9.779744148254395,-0.43688860535621643
1766400181226284800,12.846284912109375,0.5669879913330078,-9.780305862426758,-0.4410758316516876
1766400181236294400,12.85629443359375,0.5640566349029541,-9.780397415161133,-0.44279491901397705
1766400181246304300,12.86630419921875,0.5581651926040649,-9.780673027038574,-0.44418609142303467
1766400181256344600,12.876344482421874,0.5519412159919739,-9.781047821044922,-0.44367578625679016
1766400181296383500,12.916383544921874,0.5349170565605164,-9.782235145568848,-0.4383312165737152
1766400181306393300,12.926393310546874,0.5306997299194336,-9.782418251037598,-0.4393582344055176
1766400181316433700,12.93643359375,0.5156529545783997,-9.783097267150879,-0.44214463233947754
1766400181326412800,12.946412841796874,0.5107342004776001,-9.783242225646973,-0.44465574622154236
1766400181336483600,12.956483642578124,0.5043482780456543,-9.783340454101562,-0.44975510239601135
1766400181346493400,12.966493408203124,0.4972434341907501,-9.783553123474121,-0.4530375003814697
1766400181356533800,12.97653369140625,0.4932178258895874,-9.783594131469727,-0.45652270317077637
1766400181366513000,12.986512939453124,0.48911505937576294,-9.783458709716797,-0.4637932777404785
1766400181396573000,13.016572998046875,0.4927835166454315,-9.782419204711914,-0.48150840401649475
1766400181406613000,13.026613037109374,0.4963900148868561,-9.781991958618164,-0.48644059896469116
1766400181416653300,13.0366533203125,0.49524378776550293,-9.781983375549316,-0.48777827620506287
1766400181426663200,13.0466630859375,0.4911094605922699,-9.782064437866211,-0.4903443157672882
1766400181436673000,13.056673095703125,0.4875491261482239,-9.782061576843262,-0.4939294755458832
1766400181446682600,13.0666826171875,0.48455753922462463,-9.781977653503418,-0.49851855635643005
1766400181456692500,13.0766923828125,0.48436349630355835,-9.781671524047852,-0.5046659708023071
1766400181466702000,13.0867021484375,0.4875187277793884,-9.781079292297363,-0.513038694858551
1766400181476712000,13.0967119140625,0.48522740602493286,-9.78076171875,-0.5212196111679077
1766400181496762000,13.11676220703125,0.4771031439304352,-9.780562400817871,-0.5323296189308167
1766400181506771700,13.126771728515624,0.463137149810791,-9.78101634979248,-0.5363093614578247
1766400181516842500,13.136842529296874,0.45227909088134766,-9.781375885009766,-0.538996696472168
1766400181526852400,13.146852294921874,0.453397274017334,-9.781167030334473,-0.5418360233306885
1766400181536892700,13.156892578125,0.46055591106414795,-9.780706405639648,-0.5441253185272217
1766400181546871800,13.166871826171874,0.4641974866390228,-9.780494689941406,-0.5448232293128967
1766400181556912000,13.176912109375,0.4678928256034851,-9.780308723449707,-0.5450102686882019
1766400181566922000,13.186921875,0.4709159731864929,-9.7802095413208,-0.5441837310791016
1766400181586941400,13.20694140625,0.46924424171447754,-9.780344009399414,-0.5432058572769165
1766400181606961000,13.2269609375,0.4632324278354645,-9.780854225158691,-0.5391814112663269
1766400181616970800,13.236970703125,0.447426974773407,-9.781301498413086,-0.5443596839904785
1766400181626980600,13.246980712890625,0.4406926929950714,-9.781501770019531,-0.54627925157547
1766400181637021000,13.25702099609375,0.44130000472068787,-9.781060218811035,-0.5536103248596191
1766400181647030500,13.267030517578124,0.4515881836414337,-9.780439376831055,-0.5563090443611145
1766400181657101300,13.277101318359374,0.46401217579841614,-9.779817581176758,-0.5570011734962463
1766400181667141600,13.2871416015625,0.4643465280532837,-9.779806137084961,-0.5569409132003784
1766400181677151500,13.2971513671875,0.44984981417655945,-9.780200958251953,-0.561899721622467
1766400181697171000,13.3171708984375,0.4242226183414459,-9.781396865844727,-0.5609884858131409
1766400181717251600,13.33725146484375,0.45421093702316284,-9.780147552490234,-0.559275209903717
1766400181727292000,13.3472919921875,0.4910866618156433,-9.778627395629883,-0.5547168254852295
1766400181737301500,13.357301513671874,0.49873220920562744,-9.778352737426758,-0.5527306199073792
1766400181747311400,13.367311279296874,0.5029518604278564,-9.778682708740234,-0.5429655909538269
1766400181757351700,13.3773515625,0.5012187361717224,-9.779075622558594,-0.5374413132667542
1766400181767361300,13.387361328125,0.502618134021759,-9.779619216918945,-0.5261132717132568
1766400181777371100,13.39737109375,0.5062134861946106,-9.779892921447754,-0.5175409317016602
1766400181797451800,13.41745166015625,0.5150398015975952,-9.78009033203125,-0.5049284100532532
1766400181807492000,13.4274921875,0.5167956948280334,-9.780118942260742,-0.5025625824928284
1766400181817532200,13.4375322265625,0.5194903016090393,-9.780030250549316,-0.5015385150909424
1766400181827542000,13.4475419921875,0.5257774591445923,-9.779610633850098,-0.5031657814979553
1766400181837582300,13.457582275390624,0.5267729163169861,-9.779304504394531,-0.5080304741859436
1766400181847592200,13.46759228515625,0.5218979716300964,-9.779332160949707,-0.5125283598899841
1766400181857601800,13.477601806640624,0.5179284811019897,-9.779406547546387,-0.5151599049568176
1766400181867642000,13.48764208984375,0.5099883675575256,-9.779522895812988,-0.5207788944244385
1766400181877682400,13.497682373046874,0.5048398971557617,-9.779463768005371,-0.5268956422805786
1766400181887722800,13.50772265625,0.5017220377922058,-9.779513359069824,-0.5289216041564941
1766400181927792400,13.54779248046875,0.49445468187332153,-9.77989673614502,-0.5287006497383118
1766400181937802000,13.557802001953124,0.5030126571655273,-9.779349327087402,-0.5307584404945374
1766400181947811800,13.567811767578124,0.5083768367767334,-9.778958320617676,-0.5328282713890076
1766400181957852200,13.57785205078125,0.5173732042312622,-9.778350830078125,-0.5352978706359863
1766400181967861800,13.58786181640625,0.5222171545028687,-9.778008460998535,-0.5368775129318237
1766400181977902000,13.597902099609374,0.5218991637229919,-9.778063774108887,-0.5361921787261963
1766400181987881500,13.607881591796875,0.5287398099899292,-9.777796745300293,-0.5343421697616577
1766400182028042500,13.64804248046875,0.5358622074127197,-9.777955055236816,-0.5242509841918945
1766400182038052400,13.65805224609375,0.5495990514755249,-9.777369499206543,-0.5209525227546692
1766400182048062000,13.66806201171875,0.5696954727172852,-9.776301383972168,-0.5194137692451477
1766400182058102300,13.678102294921874,0.5897124409675598,-9.775202751159668,-0.517745852470398
1766400182068142600,13.688142578125,0.6033973097801208,-9.774467468261719,-0.5158490538597107
1766400182078152400,13.69815234375,0.611749529838562,-9.774020195007324,-0.5144736766815186
1766400182088192800,13.70819287109375,0.6164548993110657,-9.773870468139648,-0.5116931200027466
1766400182138302500,13.758302490234374,0.6635860800743103,-9.771201133728027,-0.5036664605140686
1766400182148312300,13.768312255859374,0.674863874912262,-9.770469665527344,-0.5028533935546875
1766400182158322200,13.778322265625,0.6894839406013489,-9.769573211669922,-0.5004624128341675
1766400182168331800,13.788331787109374,0.6916887164115906,-9.769526481628418,-0.4983046352863312
1766400182178372000,13.7983720703125,0.6809317469596863,-9.770391464233398,-0.49619507789611816
1766400182188382000,13.8083818359375,0.6547504663467407,-9.772297859191895,-0.49383828043937683
1766400182218472200,13.83847216796875,0.6491653323173523,-9.772711753845215,-0.4930494725704193
1766400182228482000,13.84848193359375,0.6596937775611877,-9.771921157836914,-0.4947238564491272
1766400182238491600,13.85849169921875,0.6572604179382324,-9.771984100341797,-0.49672436714172363
1766400182248501500,13.86850146484375,0.6491857767105103,-9.772461891174316,-0.4979369640350342
1766400182258541800,13.878541748046874,0.6373521685600281,-9.7732515335083,-0.49773821234703064
1766400182268551700,13.8885517578125,0.6275427341461182,-9.774012565612793,-0.495256632566452
1766400182278561300,13.898561279296874,0.6283160448074341,-9.774162292480469,-0.49129825830459595
1766400182288571100,13.908571044921874,0.6414777040481567,-9.773515701293945,-0.48713061213493347
1766400182328701700,13.94870166015625,0.647040605545044,-9.77423095703125,-0.46489161252975464
1766400182338742000,13.958741943359374,0.6361778378486633,-9.775139808654785,-0.4607605040073395
1766400182348752000,13.968751953125,0.6338333487510681,-9.775498390197754,-0.45637306571006775
1766400182358761500,13.978761474609374,0.6394196152687073,-9.77529525756836,-0.4529118239879608
1766400182368771300,13.988771240234374,0.6439794898033142,-9.775193214416504,-0.4486302137374878
1766400182378811600,13.998811767578125,0.6422048807144165,-9.775484085083008,-0.44482526183128357
1766400182388790800,14.008790771484374,0.6332646012306213,-9.776226043701172,-0.4413362443447113
1766400182398861600,14.018861572265624,0.625922441482544,-9.776789665222168,-0.4393070638179779
1766400182438961700,14.058961669921874,0.594822347164154,-9.778669357299805,-0.440725713968277
1766400182448971500,14.068971435546874,0.5823854804039001,-9.7794828414917,-0.43926265835762024
1766400182458981400,14.0789814453125,0.569628894329071,-9.780388832092285,-0.4358230233192444
1766400182468991000,14.088990966796874,0.5580623745918274,-9.781291007995605,-0.4304714500904083
1766400182479000800,14.099000732421874,0.55564945936203,-9.781535148620605,-0.4280693531036377
1766400182489010400,14.109010498046874,0.5631517767906189,-9.781206130981445,-0.4257511496543884
1766400182529080000,14.149080078125,0.5356459021568298,-9.78273868560791,-0.42604953050613403
1766400182539150800,14.15915087890625,0.5162217020988464,-9.783693313598633,-0.428108811378479
1766400182549191200,14.169191162109374,0.5117039084434509,-9.783909797668457,-0.42859864234924316
1766400182559201000,14.179200927734374,0.5150064826011658,-9.783635139465332,-0.43086162209510803
1766400182569210600,14.189210693359374,0.5166004300117493,-9.783413887023926,-0.43402037024497986
1766400182579251000,14.1992509765625,0.5109165906906128,-9.78354263305664,-0.43781596422195435
1766400182599270700,14.219270751953125,0.4818389415740967,-9.784759521484375,-0.4435112476348877
1766400182639340000,14.259340087890624,0.4930453896522522,-9.783998489379883,-0.44795888662338257
1766400182649350000,14.269349853515624,0.4874509274959564,-9.784425735473633,-0.44474226236343384
1766400182659420700,14.279420654296874,0.48051148653030396,-9.784761428833008,-0.4449082612991333
1766400182669430500,14.289430419921874,0.4757114052772522,-9.784856796264648,-0.4479822516441345
1766400182679440100,14.299440185546874,0.4749240577220917,-9.784754753112793,-0.4509916603565216
1766400182689450000,14.309449951171874,0.47831952571868896,-9.784441947937012,-0.4542483389377594
1766400182699459800,14.3194599609375,0.48099663853645325,-9.784090995788574,-0.4589192569255829
1766400182739498800,14.359498779296874,0.48872461915016174,-9.783445358276367,-0.4644733667373657
1766400182749508600,14.369508544921874,0.4943704903125763,-9.783198356628418,-0.4637213945388794
1766400182759549000,14.379548828125,0.49793142080307007,-9.783086776733398,-0.46228083968162537
1766400182769558500,14.38955859375,0.4950140714645386,-9.78333854675293,-0.4600687026977539
1766400182779629600,14.399629638671875,0.4879845976829529,-9.783916473388672,-0.4552537202835083
1766400182789639200,14.40963916015625,0.4835118353366852,-9.784356117248535,-0.45056846737861633
1766400182799679500,14.419679443359374,0.48340895771980286,-9.784249305725098,-0.4530038833618164
1766400182809689300,14.429689453125,0.4849187731742859,-9.784011840820312,-0.45648297667503357
1766400182839779600,14.459779541015624,0.4852537214756012,-9.783651351928711,-0.46379005908966064
1766400182849789400,14.46978955078125,0.4905793070793152,-9.783370018005371,-0.46407705545425415
1766400182859860200,14.479860107421874,0.497460275888443,-9.783138275146484,-0.46165043115615845
1766400182879879700,14.499879638671874,0.5097229480743408,-9.7828369140625,-0.4546326696872711
1766400182889889500,14.5098896484375,0.5112696290016174,-9.782903671264648,-0.45144087076187134
1766400182899929900,14.519929931640625,0.5097434520721436,-9.783185005187988,-0.44704586267471313
1766400182909909000,14.529908935546874,0.49686816334724426,-9.784029006958008,-0.44303515553474426
1766400182949978600,14.569978515625,0.44505205750465393,-9.786883354187012,-0.4350152313709259
1766400182960019000,14.58001904296875,0.4334568977355957,-9.78739070892334,-0.4353153705596924
1766400182970028500,14.590028564453124,0.42829206585884094,-9.787694931030273,-0.43356385827064514
1766400182980068900,14.60006884765625,0.42726388573646545,-9.787759780883789,-0.4331260621547699
1766400182990078700,14.61007861328125,0.4267769753932953,-9.7877836227417,-0.4330424666404724
1766400183000149500,14.6201494140625,0.4249258041381836,-9.787824630737305,-0.4339192509651184
1766400183010128600,14.630128662109374,0.42709845304489136,-9.787663459777832,-0.435463547706604
1766400183050228700,14.670228759765624,0.4234270751476288,-9.787647247314453,-0.43938422203063965
1766400183060238600,14.680238525390624,0.42930328845977783,-9.78731632232666,-0.44105976819992065
1766400183070248400,14.69024853515625,0.4292372167110443,-9.787254333496094,-0.4425014853477478
1766400183080288500,14.70028857421875,0.42559391260147095,-9.787337303161621,-0.4441571533679962
1766400183090298400,14.71029833984375,0.4222258925437927,-9.787459373474121,-0.4447031021118164
1766400183100338700,14.720338623046874,0.41393911838531494,-9.787750244140625,-0.44610944390296936
1766400183110379000,14.73037890625,0.40971362590789795,-9.78790283203125,-0.4466361105442047
1766400183120388600,14.740388671875,0.40885788202285767,-9.78786563873291,-0.4482055604457855
1766400183200497400,14.820497314453124,0.42635026574134827,-9.785290718078613,-0.48652827739715576
1766400183210507000,14.830507080078124,0.43266311287879944,-9.784880638122559,-0.4892234802246094
1766400183220516900,14.840516845703124,0.44277650117874146,-9.78426742553711,-0.49237963557243347
1766400183230526700,14.850526611328124,0.45253393054008484,-9.783782958984375,-0.4931643307209015
1766400183240536300,14.860536376953124,0.46107029914855957,-9.783332824707031,-0.49415597319602966
1766400183250546200,14.870546142578124,0.47092825174331665,-9.782962799072266,-0.49218934774398804
1766400183260556000,14.88055615234375,0.48576459288597107,-9.782470703125,-0.48750996589660645
1766400183270565600,14.890565673828124,0.5003870129585266,-9.781822204589844,-0.48575785756111145
1766400183280606000,14.90060595703125,0.5056915283203125,-9.781641960144043,-0.4839201271533966
1766400183290615800,14.91061572265625,0.5019260048866272,-9.781917572021484,-0.4822434186935425
1766400183300625700,14.920625732421875,0.49855509400367737,-9.782171249389648,-0.48056936264038086
1766400183310635300,14.93063525390625,0.502621591091156,-9.781999588012695,-0.47986939549446106
1766400183320645000,14.94064501953125,0.5162625908851624,-9.781318664550781,-0.4792366325855255
1766400183330624300,14.950624267578124,0.5326987504959106,-9.780420303344727,-0.47961336374282837
1766400183340664600,14.96066455078125,0.5445733070373535,-9.779773712158203,-0.4794336259365082
1766400183360684000,14.98068408203125,0.5389409065246582,-9.780022621154785,-0.4807073175907135
1766400183370694000,14.99069384765625,0.533637523651123,-9.780393600463867,-0.47909051179885864
1766400183380703700,15.000703857421875,0.5326467752456665,-9.78042984008789,-0.4794672429561615
1766400183390713300,15.01071337890625,0.5386673212051392,-9.77997875213623,-0.48190441727638245
1766400183400723200,15.02072314453125,0.5459452271461487,-9.77945327758789,-0.4843924343585968
1766400183410702300,15.030702392578124,0.5539239048957825,-9.778901100158691,-0.4864414632320404
1766400183420742700,15.04074267578125,0.5533317923545837,-9.778968811035156,-0.48579469323158264
1766400183430752500,15.05075244140625,0.5542407631874084,-9.778965950012207,-0.4848211705684662
1766400183440762400,15.060762451171875,0.5549322366714478,-9.77912712097168,-0.48074910044670105
1766400183470761000,15.090760986328124,0.5600444674491882,-9.779085159301758,-0.47562137246131897
1766400183480770800,15.100770751953124,0.5583996176719666,-9.779088973999023,-0.47751522064208984
1766400183490811100,15.11081103515625,0.5559259057044983,-9.779187202453613,-0.47834640741348267
1766400183500820700,15.12082080078125,0.5528577566146851,-9.779219627380371,-0.4812731146812439
1766400183510830600,15.13083056640625,0.5514169335365295,-9.779168128967285,-0.48394379019737244
1766400183520840400,15.14084033203125,0.5503992438316345,-9.779204368591309,-0.4843757748603821
1766400183530850000,15.15085009765625,0.5482353568077087,-9.779312133789062,-0.4846542775630951
1766400183540890400,15.160890380859374,0.5476017594337463,-9.779231071472168,-0.4869818389415741
1766400183550930700,15.1709306640625,0.5462491512298584,-9.77922248840332,-0.488707959651947
1766400183570950100,15.1909501953125,0.5508136749267578,-9.77885627746582,-0.4909098446369171
1766400183580990500,15.200990478515624,0.5535516142845154,-9.778534889221191,-0.4942007064819336
1766400183591000300,15.211000244140624,0.5513198971748352,-9.778682708740234,-0.4937751591205597
1766400183601040600,15.22104052734375,0.5415554642677307,-9.779204368591309,-0.4942205846309662
1766400183611050200,15.23105029296875,0.5293810367584229,-9.779899597167969,-0.4936959743499756
1766400183621060000,15.24106005859375,0.521587610244751,-9.780348777770996,-0.49306467175483704
1766400183631100400,15.251100341796874,0.5243120789527893,-9.780119895935059,-0.4947200417518616
1766400183641110300,15.2611103515625,0.5265297293663025,-9.779948234558105,-0.49576225876808167
1766400183661160200,15.28116015625,0.5270172357559204,-9.779929161071777,-0.49562662839889526
1766400183671200500,15.291200439453124,0.5248106718063354,-9.780092239379883,-0.4947010576725006
1766400183681210400,15.30121044921875,0.5196820497512817,-9.78050422668457,-0.4919935464859009
1766400183711270100,15.331270263671875,0.5164116621017456,-9.780630111694336,-0.4929635524749756
1766400183731320000,15.351320068359374,0.49819913506507874,-9.781485557556152,-0.4947478175163269
1766400183741360400,15.3613603515625,0.49236735701560974,-9.781757354736328,-0.4951365292072296
1766400183761410600,15.38141064453125,0.48958325386047363,-9.781715393066406,-0.4987401068210602
1766400183781460500,15.40146044921875,0.4997633099555969,-9.781049728393555,-0.5017261505126953
1766400183791470300,15.41147021484375,0.4908849895000458,-9.781333923339844,-0.5048947930335999
1766400183801480000,15.42147998046875,0.47803428769111633,-9.781875610351562,-0.5067512392997742
1766400183811489800,15.43148974609375,0.4698007106781006,-9.782303810119629,-0.5062170028686523
1766400183821560600,15.441560546875,0.45775488018989563,-9.782928466796875,-0.505133867263794
1766400183831570400,15.4515703125,0.4576560854911804,-9.782964706420898,-0.5045627951622009
1766400183841641200,15.46164111328125,0.46227848529815674,-9.782864570617676,-0.5022396445274353
1766400183851650800,15.47165087890625,0.4651677906513214,-9.782815933227539,-0.5005196928977966
1766400183871701000,15.491700927734374,0.4583423137664795,-9.783273696899414,-0.49787208437919617
1766400183881710800,15.5017109375,0.4481096863746643,-9.78377628326416,-0.49733901023864746
1766400183891690000,15.51168994140625,0.4396294355392456,-9.784149169921875,-0.49751290678977966
1766400183901730300,15.521730224609374,0.4361737370491028,-9.784317016601562,-0.49728143215179443
1766400183911740200,15.531740234375,0.43607205152511597,-9.784337043762207,-0.4969725012779236
1766400183921749800,15.541749755859374,0.43556174635887146,-9.784436225891113,-0.49547380208969116
1766400183931820500,15.551820556640624,0.435904860496521,-9.784585952758789,-0.4921928644180298
1766400183941769200,15.561769287109374,0.42791035771369934,-9.785181999206543,-0.48732906579971313
1766400183951779000,15.571779052734374,0.4201321303844452,-9.785637855529785,-0.48495298624038696
1766400183981808400,15.601808349609374,0.4096183478832245,-9.785981178283691,-0.4870172142982483
1766400184011807200,15.63180712890625,0.4091740846633911,-9.785558700561523,-0.4958028793334961
1766400184021847600,15.64184765625,0.40541914105415344,-9.785425186157227,-0.5014817714691162
1766400184031857200,15.651857177734374,0.40404024720191956,-9.785289764404297,-0.5052388310432434
1766400184041867000,15.661866943359374,0.4060036540031433,-9.784832000732422,-0.5124891996383667
1766400184051876900,15.671876953125,0.41281041502952576,-9.783935546875,-0.5240203738212585
1766400184071926800,15.6919267578125,0.4188520312309265,-9.782628059387207,-0.5432616472244263
1766400184101956000,15.7219560546875,0.40298810601234436,-9.782289505004883,-0.5610881447792053
1766400184111966000,15.731966064453125,0.4059346914291382,-9.781947135925293,-0.5649059414863586
1766400184131985400,15.7519853515625,0.4117220342159271,-9.781234741210938,-0.5730088353157043
1766400184142025700,15.762025634765624,0.4092898368835449,-9.781206130981445,-0.5752356052398682
1766400184152035300,15.772035400390624,0.41196751594543457,-9.780946731567383,-0.5777546167373657
1766400184172055000,15.792054931640624,0.41958266496658325,-9.780682563781738,-0.5767272710800171
1766400184192105000,15.81210498046875,0.4367068409919739,-9.780342102050781,-0.5697504281997681
1766400184202114800,15.82211474609375,0.44028177857398987,-9.780431747436523,-0.5654091835021973
1766400184212124700,15.832124755859375,0.4433388113975525,-9.780344009399414,-0.5645409226417542
1766400184222164700,15.842164794921874,0.4531295597553253,-9.779826164245605,-0.5657529234886169
1766400184232174600,15.852174560546874,0.47229427099227905,-9.77862548828125,-0.5707873702049255
1766400184242184400,15.862184326171874,0.48054012656211853,-9.778087615966797,-0.5731342434883118
1766400184252194000,15.872194091796874,0.4842641055583954,-9.777791023254395,-0.575045645236969
1766400184262234400,15.882234375,0.4895183742046356,-9.777448654174805,-0.5764052271842957
1766400184292233200,15.912233154296874,0.5032616853713989,-9.776762008666992,-0.5762485861778259
1766400184322293000,15.94229296875,0.5180693864822388,-9.776719093322754,-0.5637214183807373
1766400184332272400,15.9522724609375,0.5204407572746277,-9.776830673217773,-0.5595563650131226
1766400184342343200,15.96234326171875,0.5311053395271301,-9.776782989501953,-0.5503162741661072
1766400184352322300,15.972322265625,0.5356003642082214,-9.7769775390625,-0.5424307584762573
1766400184362362600,15.982362548828124,0.5384650826454163,-9.777155876159668,-0.5363359451293945
1766400184372341800,15.992341796875,0.52871173620224,-9.778152465820312,-0.5278189182281494
1766400184412411400,16.032411376953124,0.5249713659286499,-9.78048324584961,-0.48676732182502747
1766400184422451700,16.04245166015625,0.539365828037262,-9.78051471710205,-0.4701312482357025
1766400184432461600,16.052461669921875,0.5624111890792847,-9.779993057250977,-0.4536825120449066
1766400184442471200,16.06247119140625,0.5879617929458618,-9.779535293579102,-0.43058279156684875
1766400184462491000,16.082490966796875,0.59747314453125,-9.780415534973145,-0.39607760310173035
1766400184472500500,16.09250048828125,0.5852876305580139,-9.781925201416016,-0.37654054164886475
1766400184512570000,16.132570068359374,0.5552017092704773,-9.786242485046387,-0.3027300238609314
1766400184522610400,16.1426103515625,0.5681862831115723,-9.786181449890137,-0.279643177986145
1766400184532620300,16.152620361328125,0.5924667119979858,-9.785394668579102,-0.2558034360408783
1766400184542630000,16.1626298828125,0.6177239418029785,-9.784608840942383,-0.2241261601448059
1766400184552639700,16.1726396484375,0.6211580038070679,-9.784585952758789,-0.21554157137870789
1766400184562649300,16.1826494140625,0.6156453490257263,-9.785212516784668,-0.2024357169866562
1766400184572659200,16.1926591796875,0.5959218144416809,-9.786624908447266,-0.19300416111946106
1766400184622769200,16.24276904296875,0.6393132209777832,-9.783913612365723,-0.1916530430316925
1766400184632778800,16.25277880859375,0.6542185544967651,-9.78282642364502,-0.19674013555049896
1766400184642849500,16.262849609375,0.6628051400184631,-9.782039642333984,-0.2068643420934677
1766400184652829000,16.272828857421874,0.6623363494873047,-9.781848907470703,-0.21714900434017181
1766400184662869200,16.282869140625,0.6588491201400757,-9.781966209411621,-0.22234277427196503
1766400184672909600,16.29290966796875,0.649921715259552,-9.78225326538086,-0.23556934297084808
1766400184682919200,16.302919189453124,0.638728678226471,-9.782882690429688,-0.2400546669960022
1766400184732998700,16.35299853515625,0.6104688048362732,-9.783867835998535,-0.27137044072151184
1766400184743039000,16.3630390625,0.6120154857635498,-9.783751487731934,-0.27214404940605164
1766400184753048600,16.373048583984374,0.6047539710998535,-9.784144401550293,-0.2742003798484802
1766400184763089000,16.3830888671875,0.5914075970649719,-9.784951210021973,-0.27452537417411804
1766400184773098800,16.3930986328125,0.5721639394760132,-9.7861328125,-0.2732148766517639
1766400184783139000,16.40313916015625,0.5531178712844849,-9.787239074707031,-0.27272331714630127
