time,seconds_elapsed,z,y,x
1765793067373163500,-0.80883642578125,0.8379706144332886,0.047884032130241394,-0.043095629662275314
1765793067403131600,-0.778868408203125,0.5291185975074768,0.11252748221158981,0
1765793067413110800,-0.76888916015625,0.5841852426528931,0.33758243918418884,0.1628057211637497
1765793067423090200,-0.758909912109375,0.6272808313369751,0.24181437492370605,-0.090979665517807
1765793067433038800,-0.748961181640625,0.42616790533065796,0.10055647045373917,-0.047884032130241394
1765793067443079200,-0.7389208984375,0.3208230137825012,-0.05746084079146385,0.09816227108240128
1765793067453119500,-0.728880615234375,0.12210428714752197,-0.17477671802043915,0.13407529890537262
1765793067463129000,-0.718870849609375,0.12689268589019775,-0.09816227108240128,0.33279404044151306
1765793067473078000,-0.708921875,0.11971008777618408,-0.004788403399288654,0.304063618183136
1765793067483118300,-0.698881591796875,0.16998831927776337,0.002394201699644327,0.3495534360408783
1765793067513117000,-0.668883056640625,0.090979665517807,-0.19153612852096558,0.1364694982767105
1765793067533136600,-0.64886328125,0.14365209639072418,0.021547814831137657,-0.026336219161748886
1765793067553125600,-0.628874267578125,0.2537853717803955,-0.17956513166427612,-0.3256114423274994
1765793067563135200,-0.61886474609375,0.2537853717803955,-0.016759412363171577,-0.2537853717803955
1765793067573145000,-0.60885498046875,0.1843535304069519,-0.2059013396501541,-0.22744916379451752
1765793067583155000,-0.598844970703125,0.26575639843940735,-0.272938996553421,-0.29209262132644653
1765793067593134000,-0.588865966796875,0.2585737705230713,0.08379705995321274,-0.038307227194309235
1765793067613153500,-0.568846435546875,0.1867477297782898,0.0071826050989329815,-0.17238251864910126
1765793067633142500,-0.548857421875,0.016759412363171577,0.035913024097681046,-0.31364041566848755
1765793067643152400,-0.53884765625,0.047884032130241394,0.1843535304069519,-0.3064578175544739
1765793067653131800,-0.5288681640625,0.08858546614646912,0.14844051003456116,-0.21547815203666687
1765793067663171800,-0.518828125,0.10055647045373917,0.05746084079146385,-0.2513911724090576
1765793067673120800,-0.508879150390625,0.19632454216480255,0.090979665517807,-0.24181437492370605
1765793067683130400,-0.49886962890625,0.07661445438861847,0.10295066982507706,-0.1867477297782898
1765793067693140200,-0.48885986328125,0.047884032130241394,0.06224924325942993,-0.14604631066322327
1765793067743097600,-0.43890234375,0.08619125932455063,-0.17238251864910126,0.040701430290937424
1765793067753107200,-0.428892822265625,0.07182604819536209,-0.181959331035614,0.035913024097681046
1765793067773187800,-0.408812255859375,0.12210428714752197,0.14365209639072418,0.06224924325942993
1765793067783197700,-0.39880224609375,0.2106897532939911,0.009576806798577309,0.021547814831137657
1765793067793207300,-0.388792724609375,0.1843535304069519,-0.05506663769483566,0.004788403399288654
1765793067803217200,-0.378782958984375,0.24660277366638184,-0.08858546614646912,-0.021547814831137657
1765793067813196300,-0.3688037109375,0.33518823981285095,-0.019153613597154617,-0.011971008032560349
1765793067833216000,-0.348783935546875,0.2585737705230713,0.12689268589019775,-0.05746084079146385
1765793067843225600,-0.3387744140625,0.17956513166427612,-0.09576806426048279,-0.08619125932455063
1765793067853174300,-0.32882568359375,0.3687070608139038,-0.05985504388809204,-0.08858546614646912
1765793067863214600,-0.318785400390625,0.2537853717803955,-0.019153613597154617,-0.1173158809542656
1765793067873194000,-0.308805908203125,0.19393034279346466,0.009576806798577309,-0.08379705995321274
1765793067883234300,-0.298765625,0.2082955539226532,-0.019153613597154617,-0.040701430290937424
1765793067893213400,-0.28878662109375,0.181959331035614,-0.014365210197865963,-0.031124621629714966
1765793067903192600,-0.278807373046875,0.26096799969673157,-0.1173158809542656,-0.021547814831137657
1765793067933222000,-0.248778076171875,0.19153612852096558,-0.031124621629714966,-0.07182604819536209
1765793067943201300,-0.238798828125,0.1388636976480484,0.002394201699644327,-0.09816227108240128
1765793067953211000,-0.2287890625,0.05985504388809204,0.05506663769483566,-0.019153613597154617
1765793067963220700,-0.218779296875,0.06464344263076782,-0.05027823522686958,-0.1364694982767105
1765793067973200100,-0.2087998046875,0.014365210197865963,-0.1364694982767105,-0.19393034279346466
1765793067983209700,-0.198790283203125,0.15322890877723694,-0.10534487664699554,-0.1412578970193863
1765793067993189000,-0.188810791015625,0.12449848651885986,-0.07182604819536209,-0.17477671802043915
1765793068003198700,-0.17880126953125,0.12689268589019775,-0.0694318488240242,-0.16998831927776337
1765793068013178000,-0.16882177734375,0.1628057211637497,0.05746084079146385,-0.33039984107017517
1765793068023187700,-0.158812255859375,0.16519992053508759,0.30885201692581177,-0.28969839215278625
1765793068043176700,-0.1388232421875,0.15083470940589905,0.014365210197865963,-0.45250412821769714
1765793068053125600,-0.128874267578125,0.028730420395731926,-0.15562310814857483,-0.569819986820221
1765793068063135200,-0.11886474609375,-0.06464344263076782,0.023942016065120697,-0.45250412821769714
1765793068073114600,-0.108885498046875,-0.05506663769483566,0.1412578970193863,-0.40462008118629456
1765793068083124200,-0.098875732421875,-0.12449848651885986,0.30885201692581177,-0.3902548849582672
1765793068093073200,-0.0889267578125,-0.0454898327589035,0.12689268589019775,-0.19871874153614044
1765793068103113200,-0.07888671875,-0.021547814831137657,-0.1628057211637497,0.023942016065120697
1765793068113092600,-0.068907470703125,0.19153612852096558,-0.1364694982767105,0
1765793068123102500,-0.0588974609375,0.2801215946674347,-0.21547815203666687,0.0071826050989329815
1765793068143060700,-0.038939208984375,0.3471592366695404,-0.10055647045373917,-0.05985504388809204
1765793068153070600,-0.028929443359375,0.33039984107017517,0.002394201699644327,-0.06224924325942993
1765793068163080400,-0.01891943359375,0.40462008118629456,-0.026336219161748886,-0.14365209639072418
1765793068173090000,-0.008909912109375,0.42856210470199585,0.09576806426048279,-0.24420857429504395
1765793068183039000,0.0010390625,0.507570743560791,0.047884032130241394,-0.13168109953403473
1765793068193079000,0.0110791015625,0.49799394607543945,0.1412578970193863,-0.1412578970193863
1765793068203089000,0.0210888671875,0.4141969084739685,0.3447650372982025,-0.12210428714752197
1765793068213068300,0.031068359375,0.363918662071228,0.43095630407333374,-0.10055647045373917
1765793068223078000,0.041077880859375,0.23942017555236816,0.2944868206977844,-0.11252748221158981
1765793068243067000,0.06106689453125,0.17717093229293823,0.1364694982767105,-0.19871874153614044
1765793068263086600,0.081086669921875,0.05027823522686958,0.17717093229293823,0.0933738648891449
1765793068273065700,0.091065673828125,0.021547814831137657,-0.3280056416988373,-0.19393034279346466
1765793068283075600,0.10107568359375,-0.023942016065120697,-0.5434837937355042,-0.2537853717803955
1765793068293024300,0.111024169921875,0.14844051003456116,-0.6703764796257019,-0.1628057211637497
1765793068303003400,0.12100341796875,0.31364041566848755,-0.5746083855628967,0.07661445438861847
1765793068312982800,0.130982666015625,0.3878606855869293,-0.33997663855552673,0.24899697303771973
1765793068322962000,0.1409619140625,0.33518823981285095,-0.16759411990642548,0.2825157940387726
1765793068332971800,0.1509716796875,0.2825157940387726,-0.07422025501728058,0.19153612852096558
1765793068352960800,0.170960693359375,0.15562310814857483,-0.1364694982767105,0.3734954595565796
1765793068362940000,0.18093994140625,0.31124621629714966,-0.004788403399288654,0.19632454216480255
1765793068372980200,0.190980224609375,0.5051765441894531,0.1149216815829277,0.19393034279346466
1765793068382990000,0.200989990234375,0.6584054827690125,0.002394201699644327,0.33997663855552673
1765793068393000000,0.211,0.7613561153411865,-0.043095629662275314,0.023942016065120697
1765793068402979000,0.22097900390625,0.7134721279144287,-0.038307227194309235,-0.019153613597154617
1765793068422998500,0.24099853515625,0.35434186458587646,0.33997663855552673,0.028730420395731926
1765793068433008400,0.25100830078125,0.2561795711517334,0.4644751250743866,0.0071826050989329815
1765793068462976500,0.2809765625,0.49320554733276367,-0.0933738648891449,0.08619125932455063
1765793068492975400,0.310975341796875,0.47644615173339844,-0.16519992053508759,0.07422025501728058
1765793068512964400,0.33096435546875,0.17238251864910126,-0.09576806426048279,0.10773907601833344
1765793068522943700,0.34094384765625,0.028730420395731926,-0.1604115068912506,0.06224924325942993
1765793068532984000,0.350984130859375,-0.05267243832349777,-0.5051765441894531,-0.1173158809542656
1765793068563013000,0.38101318359375,0.12928688526153564,0.15801730751991272,-0.05985504388809204
1765793068573023000,0.39102294921875,0.2753331959247589,0.1628057211637497,-0.1867477297782898
1765793068583032800,0.40103271484375,0.1604115068912506,0.22505496442317963,-0.10055647045373917
1765793068593042400,0.41104248046875,-0.031124621629714966,0.24420857429504395,-0.15322890877723694
1765793068603052300,0.42105224609375,-0.31364041566848755,0.2801215946674347,-0.15562310814857483
1765793068613031700,0.43103173828125,-0.545877993106842,0.4165911078453064,-0.05985504388809204
1765793068623041300,0.441041259765625,-0.569819986820221,0.43095630407333374,-0.15562310814857483
1765793068633020700,0.451020751953125,-0.6416460275650024,0.181959331035614,-0.10295066982507706
1765793068643030300,0.4610302734375,-0.6368576288223267,0.1628057211637497,-0.08619125932455063
1765793068673059600,0.4910595703125,0.2753331959247589,-0.031124621629714966,-0.26815059781074524
1765793068683069400,0.5010693359375,0.3687070608139038,0.2825157940387726,-0.31364041566848755
1765793068693018000,0.51101806640625,0.28730419278144836,0.6344634294509888,-0.27054479718208313
1765793068702997500,0.52099755859375,0.12449848651885986,0.6847416758537292,-0.22026655077934265
1765793068713007000,0.531007080078125,0.05985504388809204,0.7565677165985107,-0.47165772318840027
1765793068723017000,0.541016845703125,0.0933738648891449,0.6344634294509888,-0.3663128614425659
1765793068732965600,0.550965576171875,0.11252748221158981,0.5961562395095825,-0.3280056416988373
1765793068742944800,0.56094482421875,0.30885201692581177,0.5793967843055725,-0.42616790533065796
1765793068783014400,0.601014404296875,0.7015010714530945,-0.10773907601833344,-0.4118026793003082
1765793068793024300,0.611024169921875,0.7996633648872375,-0.23942017555236816,-0.14365209639072418
1765793068803034000,0.6210341796875,0.5339069962501526,-0.3734954595565796,-0.0071826050989329815
1765793068812982800,0.630982666015625,0.2537853717803955,-0.33758243918418884,-0.009576806798577309
1765793068822962000,0.6409619140625,0.1149216815829277,-0.3687070608139038,0.22744916379451752
1765793068832941300,0.65094140625,-0.05506663769483566,-0.3495534360408783,0.2944868206977844
1765793068842920400,0.66092041015625,-0.023942016065120697,-0.5554547905921936,0.3878606855869293
1765793068872949800,0.69094970703125,0.2777273952960968,-0.181959331035614,0.7110779285430908
1765793068882959600,0.700959716796875,0.3998316824436188,-0.7422025203704834,0.45250412821769714
1765793068893000000,0.711,0.47644615173339844,-0.8068459630012512,0.14365209639072418
1765793068902979000,0.72097900390625,0.4381389021873474,-0.7541735172271729,0.12689268589019775
1765793068912989000,0.730989013671875,0.3016694188117981,-0.3232172429561615,0.2513911724090576
1765793068922968000,0.740968017578125,0.05267243832349777,-0.12210428714752197,0.28969839215278625
1765793068932947200,0.750947265625,-0.19871874153614044,-0.10055647045373917,0.2298433631658554
1765793068942987500,0.760987548828125,-0.16998831927776337,-0.08140286058187485,0.15083470940589905
1765793068952997400,0.770997314453125,0.011971008032560349,0.12449848651885986,0.1628057211637497
1765793068963007200,0.78100732421875,0.0454898327589035,0.19153612852096558,0.26575639843940735
1765793068993036500,0.81103662109375,0.22505496442317963,-0.035913024097681046,-0.08858546614646912
1765793069003046100,0.821046142578125,0.19632454216480255,0.2346317619085312,0.08619125932455063
1765793069013025500,0.831025634765625,0.13168109953403473,0.2968810200691223,-0.05746084079146385
1765793069023004700,0.841004638671875,0.1604115068912506,0.19871874153614044,-0.16519992053508759
1765793069033014500,0.8510146484375,0.15322890877723694,-0.05506663769483566,-0.16759411990642548
1765793069043054800,0.861054931640625,0.16759411990642548,0.035913024097681046,-0.1604115068912506
1765793069053064400,0.871064453125,0.26575639843940735,0.1867477297782898,-0.07182604819536209
1765793069063043800,0.8810439453125,0.15801730751991272,0.19632454216480255,-0.19871874153614044
1765793069082963200,0.900963134765625,0.19393034279346466,0.5219359993934631,-0.11013327538967133
1765793069092912000,0.910912109375,0.15322890877723694,0.5578489899635315,-0.1388636976480484
1765793069102921700,0.920921630859375,0.15083470940589905,0.4884171485900879,-0.2298433631658554
1765793069112931600,0.930931640625,0.23942017555236816,0.4836287498474121,-0.2944868206977844
1765793069122941400,0.94094140625,0.1867477297782898,0.3663128614425659,-0.3663128614425659
1765793069132951000,0.950950927734375,0.09576806426048279,0.2753331959247589,-0.40701428055763245
1765793069142991400,0.960991455078125,0.14365209639072418,0.38546648621559143,-0.33997663855552673
1765793069163010800,0.9810107421875,0.2777273952960968,0.08379705995321274,-0.28730419278144836
1765793069173020700,0.991020751953125,-0.10534487664699554,-0.10055647045373917,-0.2059013396501541
1765793069193040100,1.0110400390625,0.3447650372982025,0.5267243981361389,-0.090979665517807
1765793069203019500,1.02101953125,0.6392518281936646,0.4884171485900879,-0.05746084079146385
1765793069213029000,1.031029052734375,0.6703764796257019,-0.026336219161748886,-0.10534487664699554
1765793069223039000,1.0410390625,0.586579442024231,-0.17477671802043915,-0.33518823981285095
1765793069233048800,1.051048828125,0.3423708379268646,0.016759412363171577,-0.2346317619085312
1765793069243058400,1.061058349609375,0.16519992053508759,0.004788403399288654,-0.1604115068912506
1765793069253007400,1.07100732421875,-0.07900865375995636,0,-0.2753331959247589
1765793069263017000,1.081016845703125,-0.09816227108240128,-0.014365210197865963,-0.2346317619085312
1765793069273057300,1.091057373046875,-0.05985504388809204,0.12449848651885986,-0.07661445438861847
1765793069283067100,1.101067138671875,-0.021547814831137657,0.011971008032560349,0.047884032130241394
1765793069313035300,1.13103515625,0.040701430290937424,-0.31364041566848755,0.002394201699644327
1765793069323045000,1.141045166015625,0.1412578970193863,-0.3256114423274994,-0.033518824726343155
1765793069333024300,1.151024169921875,0.31842881441116333,-0.10295066982507706,-0.1867477297782898
1765793069343003600,1.161003662109375,0.3902548849582672,0.181959331035614,0
1765793069353044000,1.1710439453125,0.2585737705230713,0.31364041566848755,0.0071826050989329815
1765793069363053600,1.181053466796875,0.12449848651885986,0.28969839215278625,-0.040701430290937424
1765793069373063400,1.1910634765625,-0.06703764945268631,0.19632454216480255,-0.0933738648891449
1765793069383042600,1.20104248046875,-0.15562310814857483,0.004788403399288654,-0.06224924325942993
1765793069393052400,1.211052490234375,-0.24899697303771973,0.014365210197865963,-0.07661445438861847
1765793069413011000,1.231010986328125,-0.040701430290937424,-0.09816227108240128,0.12210428714752197
1765793069422990000,1.240989990234375,0.05267243832349777,-0.05506663769483566,0.06224924325942993
1765793069432969500,1.250969482421875,0.2322375625371933,-0.035913024097681046,0.07422025501728058
1765793069443009800,1.261009765625,0.33518823981285095,-0.13407529890537262,-0.019153613597154617
1765793069453019400,1.271019287109375,0.40701428055763245,-0.1867477297782898,-0.090979665517807
1765793069463029200,1.281029296875,0.3280056416988373,-0.12689268589019775,-0.0454898327589035
1765793069473039000,1.2910390625,0.19632454216480255,-0.009576806798577309,0.019153613597154617
1765793069483048700,1.301048583984375,0.05985504388809204,0.12928688526153564,-0.011971008032560349
1765793069493058600,1.31105859375,-0.06703764945268631,0.14844051003456116,-0.08379705995321274
1765793069523088000,1.341087890625,0.15562310814857483,0.1173158809542656,-0.12689268589019775
1765793069533067000,1.35106689453125,0.24181437492370605,-0.05027823522686958,-0.1412578970193863
1765793069543107300,1.361107421875,0.30885201692581177,0.043095629662275314,-0.1173158809542656
1765793069553117200,1.3711171875,0.31603461503982544,-0.043095629662275314,-0.17238251864910126
1765793069563126800,1.381126708984375,0.22744916379451752,-0.023942016065120697,-0.1149216815829277
1765793069573106200,1.391106201171875,0.272938996553421,-0.06224924325942993,-0.08379705995321274
1765793069583115800,1.40111572265625,0.21787235140800476,0.014365210197865963,-0.14365209639072418
1765793069593125600,1.411125732421875,0.24660277366638184,0.12210428714752197,-0.05506663769483566
1765793069603135500,1.421135498046875,0.11013327538967133,0.090979665517807,0.0071826050989329815
1765793069623124500,1.44112451171875,0.1388636976480484,0.031124621629714966,-0.07900865375995636
1765793069633134000,1.451134033203125,0.14844051003456116,-0.09816227108240128,-0.07900865375995636
1765793069643144000,1.46114404296875,0.19632454216480255,-0.10773907601833344,-0.047884032130241394
1765793069653153800,1.47115380859375,0.17477671802043915,-0.05027823522686958,-0.11252748221158981
1765793069663133000,1.4811328125,0.14365209639072418,-0.13168109953403473,0.0454898327589035
1765793069673142800,1.491142822265625,0.19153612852096558,-0.09576806426048279,0.035913024097681046
1765793069683122000,1.501121826171875,0.27054479718208313,-0.019153613597154617,0
1765793069693070600,1.511070556640625,0.31124621629714966,0.028730420395731926,0.009576806798577309
1765793069703080400,1.52108056640625,0.3447650372982025,0.05746084079146385,0.033518824726343155
1765793069713029000,1.531029052734375,0.23702596127986908,-0.031124621629714966,0
1765793069743028000,1.561028076171875,0.19871874153614044,-0.0454898327589035,-0.07661445438861847
1765793069753007400,1.57100732421875,0.24660277366638184,0.07900865375995636,-0.10773907601833344
1765793069763047400,1.58104736328125,0.1867477297782898,0.2298433631658554,0.014365210197865963
1765793069773057300,1.591057373046875,0.15801730751991272,0.2082955539226532,0.011971008032560349
1765793069783067100,1.601067138671875,0.27054479718208313,0.17238251864910126,0.002394201699644327
1765793069793076700,1.61107666015625,0.1628057211637497,0.181959331035614,-0.07422025501728058
1765793069803056000,1.62105615234375,0.18914192914962769,0.26575639843940735,-0.026336219161748886
1765793069813065700,1.631065673828125,0.1628057211637497,0.1388636976480484,0.009576806798577309
1765793069823075600,1.64107568359375,0.12928688526153564,-0.07182604819536209,-0.0933738648891449
1765793069853013200,1.67101318359375,0.20350714027881622,-0.22505496442317963,-0.009576806798577309
1765793069863053600,1.681053466796875,0.2346317619085312,-0.033518824726343155,-0.004788403399288654
1765793069873063400,1.6910634765625,0.28730419278144836,0.031124621629714966,0.08379705995321274
1765793069883073300,1.7010732421875,0.19871874153614044,0.08619125932455063,0.016759412363171577
1765793069893052400,1.711052490234375,0.06224924325942993,0.17956513166427612,-0.019153613597154617
1765793069903062300,1.721062255859375,0.06703764945268631,0.181959331035614,0.090979665517807
1765793069913071900,1.73107177734375,0.1173158809542656,-0.0071826050989329815,-0.05027823522686958
1765793069923081700,1.741081787109375,0.14604631066322327,-0.12449848651885986,-0.0933738648891449
1765793069963090200,1.781090087890625,0.26096799969673157,0.031124621629714966,-0.19871874153614044
1765793069973069600,1.791069580078125,0.15322890877723694,0.08140286058187485,-0.08379705995321274
1765793069983048700,1.801048583984375,0.07182604819536209,0.2059013396501541,-0.0933738648891449
1765793069993089000,1.811089111328125,0.10773907601833344,0.2346317619085312,-0.035913024097681046
1765793070003068200,1.821068115234375,0,0.14604631066322327,-0.023942016065120697
1765793070013047600,1.831047607421875,0.08379705995321274,-0.002394201699644327,-0.043095629662275314
1765793070023057400,1.841057373046875,0.06703764945268631,-0.13407529890537262,-0.14604631066322327
1765793070033006000,1.851006103515625,0.15322890877723694,-0.06464344263076782,-0.11971008777618408
1765793070062943700,1.88094384765625,-0.06464344263076782,0.028730420395731926,-0.014365210197865963
1765793070072892400,1.890892333984375,-0.14844051003456116,-0.22026655077934265,-0.009576806798577309
1765793070092912000,1.910912109375,0.15322890877723694,-0.33758243918418884,-0.05027823522686958
1765793070102891300,1.920891357421875,0.3495534360408783,-0.2801215946674347,-0.05746084079146385
1765793070112901000,1.930901123046875,0.35434186458587646,-0.11013327538967133,-0.033518824726343155
1765793070122910700,1.94091064453125,0.3687070608139038,0.0933738648891449,-0.08379705995321274
1765793070132920600,1.950920654296875,0.17238251864910126,0.16519992053508759,0.05027823522686958
1765793070152848600,1.9708486328125,0.22026655077934265,0,-0.11013327538967133
1765793070172807200,1.99080712890625,0.23702596127986908,0.026336219161748886,-0.15322890877723694
1765793070182816800,2.000816650390625,0.2753331959247589,0.043095629662275314,-0.26815059781074524
1765793070192826600,2.01082666015625,0.3064578175544739,0.2106897532939911,-0.13407529890537262
1765793070202836200,2.020836181640625,0.21547815203666687,0.0694318488240242,-0.033518824726343155
1765793070212815600,2.030815673828125,0.1388636976480484,-0.09576806426048279,-0.1843535304069519
1765793070232835000,2.0508349609375,0.1604115068912506,0.031124621629714966,-0.019153613597154617
1765793070252854500,2.0708544921875,0.17956513166427612,0.05027823522686958,-0.05985504388809204
1765793070272874200,2.090874267578125,0.14604631066322327,0.05267243832349777,0.0933738648891449
1765793070282853400,2.100853271484375,0.12210428714752197,0.090979665517807,0.047884032130241394
1765793070292893700,2.110893798828125,0.15562310814857483,0.07661445438861847,0.17477671802043915
1765793070302903600,2.120903564453125,0.15322890877723694,0.021547814831137657,0.08619125932455063
1765793070312913200,2.1309130859375,0.15322890877723694,0.05267243832349777,0.0071826050989329815
1765793070322892500,2.140892578125,0.26096799969673157,0.035913024097681046,0
1765793070332871700,2.15087158203125,0.26575639843940735,-0.043095629662275314,0.035913024097681046
1765793070342881500,2.160881591796875,0.24181437492370605,-0.11971008777618408,-0.004788403399288654
1765793070372941300,2.19094140625,0.11252748221158981,0.07661445438861847,-0.0454898327589035
1765793070382890000,2.200889892578125,0.011971008032560349,0.08858546614646912,-0.10773907601833344
1765793070392869400,2.210869384765625,-0.0454898327589035,-0.08379705995321274,-0.07900865375995636
1765793070402909700,2.22090966796875,0.035913024097681046,0.035913024097681046,-0.07900865375995636
1765793070412919300,2.230919189453125,0.14844051003456116,-0.15562310814857483,0.004788403399288654
1765793070422929200,2.24092919921875,0.16519992053508759,-0.3280056416988373,-0.05027823522686958
1765793070442948600,2.260948486328125,0.1604115068912506,-0.30885201692581177,-0.023942016065120697
1765793070452928000,2.270927978515625,0.31364041566848755,-0.11252748221158981,-0.002394201699644327
1765793070472947500,2.290947509765625,0.3758896589279175,0.090979665517807,0.026336219161748886
1765793070482957300,2.300957275390625,0.21308395266532898,0.26336219906806946,-0.038307227194309235
1765793070492936400,2.3109365234375,0.26096799969673157,0.2585737705230713,-0.090979665517807
1765793070502885000,2.320885009765625,0.1867477297782898,0.021547814831137657,-0.16519992053508759
1765793070512925400,2.330925537109375,0.1412578970193863,-0.10295066982507706,-0.16998831927776337
1765793070522935300,2.340935302734375,0.12210428714752197,-0.026336219161748886,-0.2106897532939911
1765793070532914400,2.35091455078125,0.11971008777618408,0.11013327538967133,-0.1173158809542656
1765793070542924300,2.36092431640625,0.10773907601833344,0.07182604819536209,-0.1149216815829277
1765793070552934000,2.370933837890625,0.16998831927776337,0.021547814831137657,-0.15801730751991272
1765793070582902300,2.40090234375,0.3208230137825012,-0.2346317619085312,-0.08379705995321274
1765793070592912100,2.410912109375,0.3208230137825012,-0.2322375625371933,-0.08379705995321274
1765793070602921700,2.420921630859375,0.24899697303771973,-0.05027823522686958,-0.15562310814857483
1765793070612931600,2.430931640625,0.23942017555236816,0.07182604819536209,-0.043095629662275314
1765793070622910700,2.44091064453125,0.2059013396501541,0.07422025501728058,-0.08619125932455063
1765793070642899700,2.460899658203125,-0.11971008777618408,0.13168109953403473,-0.0694318488240242
1765793070682908400,2.500908447265625,0.3998316824436188,0.08858546614646912,-0.12928688526153564
1765793070692948700,2.51094873046875,0.3926490843296051,-0.031124621629714966,-0.24660277366638184
1765793070702958300,2.520958251953125,0.10534487664699554,-0.033518824726343155,-0.1412578970193863
1765793070712968200,2.53096826171875,0.19871874153614044,-0.2298433631658554,-0.2059013396501541
1765793070722978000,2.54097802734375,0.21787235140800476,-0.22026655077934265,-0.12689268589019775
1765793070732987600,2.550987548828125,0.3064578175544739,-0.1364694982767105,-0.040701430290937424
1765793070742997500,2.56099755859375,0.395043283700943,-0.10534487664699554,0.07900865375995636
1765793070752976600,2.5709765625,0.38067805767059326,-0.043095629662275314,0.06464344263076782
1765793070792985300,2.6109853515625,0.1843535304069519,-0.3758896589279175,0.10773907601833344
1765793070803025700,2.621025634765625,0.19871874153614044,-0.13168109953403473,0.09576806426048279
1765793070813004800,2.6310048828125,0.16759411990642548,-0.16759411990642548,0.07900865375995636
1765793070823014700,2.6410146484375,0.05027823522686958,-0.08619125932455063,0.09576806426048279
1765793070833024300,2.651024169921875,-0.0694318488240242,0.14844051003456116,0.15322890877723694
1765793070843003600,2.661003662109375,-0.16759411990642548,0.07422025501728058,0.0933738648891449
1765793070853013200,2.67101318359375,-0.2082955539226532,-0.11252748221158981,0.090979665517807
1765793070863023000,2.681023193359375,-0.13168109953403473,-0.09816227108240128,0.14844051003456116
1765793070883042600,2.70104248046875,-0.028730420395731926,-0.07182604819536209,0.019153613597154617
1765793070903001000,2.7210009765625,0.0071826050989329815,0.040701430290937424,0.1149216815829277
1765793070923020500,2.7410205078125,0.05746084079146385,0.3280056416988373,0.047884032130241394
1765793070932969500,2.750969482421875,0.1173158809542656,0.27054479718208313,-0.035913024097681046
1765793070942979000,2.76097900390625,0.090979665517807,0.11971008777618408,-0.10055647045373917
1765793070952958500,2.77095849609375,-0.033518824726343155,-0.17238251864910126,-0.21308395266532898
1765793070962968000,2.780968017578125,-0.07422025501728058,-0.2537853717803955,-0.31124621629714966
1765793070972947500,2.790947509765625,0.028730420395731926,0.016759412363171577,-0.3926490843296051
1765793071002885000,2.820885009765625,0.2585737705230713,0.33039984107017517,-0.3495534360408783
1765793071012864500,2.830864501953125,0.3471592366695404,0.12210428714752197,-0.26815059781074524
1765793071022874000,2.8408740234375,0.36152446269989014,0.20111294090747833,-0.28969839215278625
1765793071032823000,2.850822998046875,0.4812345504760742,0.10295066982507706,-0.31603461503982544
1765793071042832600,2.86083251953125,0.507570743560791,-0.10295066982507706,-0.3064578175544739
1765793071052873000,2.870873046875,0.5099649429321289,0.021547814831137657,-0.3064578175544739
1765793071062882800,2.8808828125,0.44532153010368347,0.040701430290937424,-0.15322890877723694
1765793071072862000,2.890862060546875,0.40222588181495667,0.1149216815829277,-0.023942016065120697
1765793071092881400,2.91088134765625,0.304063618183136,0.08379705995321274,-0.021547814831137657
1765793071102891300,2.920891357421875,0.42616790533065796,0.22266076505184174,0.004788403399288654
1765793071112901000,2.930901123046875,0.38067805767059326,0.035913024097681046,0.043095629662275314
1765793071122880300,2.94088037109375,0.26096799969673157,-0.009576806798577309,-0.043095629662275314
1765793071132920600,2.950920654296875,0.22266076505184174,0.06703764945268631,0.0454898327589035
1765793071142930400,2.960930419921875,0.24420857429504395,-0.031124621629714966,0.014365210197865963
1765793071152940000,2.97093994140625,0.18914192914962769,-0.1149216815829277,-0.09816227108240128
1765793071162950000,2.980949951171875,0.1843535304069519,-0.17717093229293823,-0.181959331035614
1765793071172959700,2.990959716796875,0.06464344263076782,-0.05746084079146385,-0.038307227194309235
1765793071182969300,3.00096923828125,0.07661445438861847,-0.05746084079146385,0.047884032130241394
1765793071212937700,3.030937744140625,0.07661445438861847,-0.002394201699644327,0
1765793071222947300,3.040947265625,0.002394201699644327,-0.05506663769483566,0.009576806798577309
1765793071232896300,3.050896240234375,0.05267243832349777,-0.13407529890537262,-0.08619125932455063
1765793071242936300,3.060936279296875,0.05267243832349777,-0.12928688526153564,-0.08140286058187485
1765793071252915700,3.070915771484375,0.1149216815829277,-0.363918662071228,-0.031124621629714966
1765793071262925600,3.080925537109375,0.15562310814857483,-0.4118026793003082,-0.14365209639072418
1765793071272935200,3.09093505859375,0.19871874153614044,-0.304063618183136,-0.2561795711517334
1765793071282914600,3.10091455078125,0.16519992053508759,-0.24181437492370605,-0.17717093229293823
1765793071292924200,3.110924072265625,0.08858546614646912,-0.023942016065120697,-0.2106897532939911
1765793071312974300,3.130974365234375,0.035913024097681046,-0.009576806798577309,-0.090979665517807
1765793071332993800,3.150993896484375,0.17956513166427612,-0.5099649429321289,0.11013327538967133
1765793071343003600,3.161003662109375,0.28730419278144836,-0.5817909836769104,0.038307227194309235
1765793071353013200,3.17101318359375,0.21787235140800476,-0.5363011956214905,0.10295066982507706
1765793071372971800,3.1909716796875,0.28730419278144836,-0.49559974670410156,0.06224924325942993
1765793071382981600,3.200981689453125,0.40701428055763245,-0.2849099934101105,0.07661445438861847
1765793071403001000,3.2210009765625,0.5937620401382446,0.15083470940589905,0.10055647045373917
1765793071422990000,3.240989990234375,0.5793967843055725,-0.026336219161748886,-0.038307227194309235
1765793071433000000,3.251,0.43335050344467163,-0.4118026793003082,0.07182604819536209
1765793071443009800,3.261009765625,0.36152446269989014,-0.629675030708313,0.004788403399288654
1765793071453019400,3.271019287109375,0.2825157940387726,-0.5315127968788147,0.16759411990642548
1765793071462968000,3.280968017578125,0.3663128614425659,-0.13168109953403473,0.2106897532939911
1765793071473008400,3.29100830078125,0.33279404044151306,0.11013327538967133,0.26336219906806946
1765793071483018200,3.301018310546875,0.30885201692581177,0.26815059781074524,0.1843535304069519
1765793071493028000,3.311028076171875,0.31364041566848755,0.3998316824436188,0.0454898327589035
1765793071503037700,3.32103759765625,0.26096799969673157,0.6129156351089478,-0.002394201699644327
1765793071513047600,3.331047607421875,0.24181437492370605,0.6224924325942993,0.06464344263076782
1765793071543015700,3.361015625,-0.14604631066322327,0.33279404044151306,-0.004788403399288654
1765793071593003500,3.41100341796875,-0.014365210197865963,0.751779317855835,-0.22505496442317963
1765793071603013400,3.421013427734375,-0.023942016065120697,0.3447650372982025,-0.42856210470199585
1765793071613023200,3.431023193359375,0.0933738648891449,0.1149216815829277,-0.4213795065879822
1765793071623032800,3.44103271484375,0.16519992053508759,-0.043095629662275314,-0.2968810200691223
1765793071633012200,3.45101220703125,0.2561795711517334,-0.38307225704193115,-0.31842881441116333
1765793071663041500,3.48104150390625,0.3734954595565796,0.15083470940589905,-0.11971008777618408
1765793071673020700,3.491020751953125,0.35913026332855225,-0.05027823522686958,-0.16519992053508759
1765793071683061000,3.50106103515625,0.31603461503982544,-0.22744916379451752,-0.090979665517807
1765793071693070600,3.511070556640625,0.3519476354122162,-0.3495534360408783,-0.028730420395731926
1765793071703080400,3.52108056640625,0.42377370595932007,-0.35434186458587646,-0.08379705995321274
1765793071713059800,3.531059814453125,0.5051765441894531,-0.26096799969673157,-0.08140286058187485
1765793071723069400,3.5410693359375,0.4836287498474121,-0.05506663769483566,0.1149216815829277
1765793071733079300,3.551079345703125,0.3519476354122162,-0.031124621629714966,0.19393034279346466
1765793071773026800,3.59102685546875,-0.026336219161748886,-0.524330198764801,0.1843535304069519
1765793071782975500,3.6009755859375,0.033518824726343155,-0.29209262132644653,0.10055647045373917
1765793071792954600,3.61095458984375,0.06224924325942993,-0.019153613597154617,0.12689268589019775
1765793071802964500,3.620964599609375,0.16759411990642548,0.08619125932455063,-0.002394201699644327
1765793071812974300,3.630974365234375,0.12928688526153564,0.028730420395731926,-0.10534487664699554
1765793071822984000,3.64098388671875,0.24181437492370605,-0.07661445438861847,-0.1364694982767105
1765793071832993800,3.650993896484375,0.19632454216480255,0.009576806798577309,-0.05746084079146385
1765793071843003600,3.661003662109375,0.16998831927776337,-0.22266076505184174,-0.14365209639072418
1765793071873033000,3.691032958984375,0.2992752194404602,-0.19871874153614044,-0.1173158809542656
1765793071883042600,3.70104248046875,0.3495534360408783,-0.40701428055763245,-0.06703764945268631
1765793071892991500,3.710991455078125,0.37828385829925537,-0.5315127968788147,-0.13168109953403473
1765793071903031600,3.721031494140625,0.37828385829925537,-0.507570743560791,-0.13168109953403473
1765793071913041400,3.73104150390625,0.4357447028160095,-0.4381389021873474,-0.07900865375995636
1765793071923051300,3.74105126953125,0.2753331959247589,-0.24420857429504395,-0.11252748221158981
1765793071933060900,3.751060791015625,0.22026655077934265,-0.05027823522686958,-0.08619125932455063
1765793071943040300,3.761040283203125,0.0454898327589035,-0.05985504388809204,-0.047884032130241394
1765793071973069600,3.791069580078125,-0.031124621629714966,-0.24181437492370605,0.12449848651885986
1765793071983079200,3.8010791015625,-0.0694318488240242,-0.08140286058187485,0.21547815203666687
1765793071993089000,3.811089111328125,-0.009576806798577309,0.09816227108240128,0.2298433631658554
1765793072003099000,3.821098876953125,0.090979665517807,0.24899697303771973,0.07661445438861847
1765793072013078000,3.831078125,0.2346317619085312,0.2944868206977844,0.08858546614646912
1765793072023118300,3.841118408203125,0.4213795065879822,0.2849099934101105,-0.043095629662275314
1765793072033097500,3.851097412109375,0.5386953949928284,0.2513911724090576,-0.1364694982767105
1765793072043137800,3.8611376953125,0.5961562395095825,0.181959331035614,-0.07422025501728058
1765793072083146500,3.901146484375,0.05985504388809204,-0.08619125932455063,-0.11971008777618408
1765793072093156000,3.911156005859375,0.035913024097681046,-0.1364694982767105,-0.19153612852096558
1765793072103166000,3.921166015625,0.05985504388809204,-0.090979665517807,-0.15562310814857483
1765793072113145000,3.93114501953125,-0.043095629662275314,-0.0071826050989329815,-0.05506663769483566
1765793072123185400,3.941185302734375,-0.06464344263076782,0.2561795711517334,0.004788403399288654
1765793072133164800,3.951164794921875,-0.019153613597154617,0.3016694188117981,-0.043095629662275314
1765793072143174400,3.96117431640625,0.004788403399288654,0.2346317619085312,0.035913024097681046
1765793072153184300,3.971184326171875,0.12689268589019775,0.0071826050989329815,-0.08140286058187485
1765793072173142800,3.991142822265625,0.22026655077934265,-0.05746084079146385,-0.07182604819536209
1765793072203141600,4.0211416015625,0.023942016065120697,0.023942016065120697,-0.08140286058187485
1765793072213120800,4.031120849609375,0.1388636976480484,0.20111294090747833,-0.090979665517807
1765793072223100000,4.041099853515625,0.12928688526153564,0.07422025501728058,-0.0454898327589035
1765793072233079300,4.051079345703125,0.20350714027881622,0.0933738648891449,-0.12449848651885986
1765793072243089200,4.061089111328125,0.26096799969673157,0.0694318488240242,-0.14604631066322327
1765793072253098800,4.0710986328125,0.2944868206977844,0.21787235140800476,-0.11971008777618408
1765793072273087700,4.091087646484375,0.31124621629714966,-0.1604115068912506,-0.06224924325942993
1765793072283128000,4.101128173828125,0.35673606395721436,0.09576806426048279,-0.05985504388809204
1765793072303086600,4.121086669921875,0.3016694188117981,0.011971008032560349,-0.033518824726343155
1765793072313096400,4.131096435546875,0.21787235140800476,-0.06703764945268631,-0.12210428714752197
1765793072323106000,4.14110595703125,0.18914192914962769,0.07182604819536209,-0.16519992053508759
1765793072333054700,4.1510546875,0.1628057211637497,0.11013327538967133,-0.043095629662275314
1765793072343003600,4.161003662109375,0.15083470940589905,0.1604115068912506,0.021547814831137657
1765793072353013200,4.17101318359375,0.1388636976480484,0.09816227108240128,-0.038307227194309235
1765793072403031600,4.221031494140625,0.27054479718208313,-0.15562310814857483,-0.026336219161748886
1765793072413041400,4.23104150390625,0.2082955539226532,-0.13168109953403473,-0.05506663769483566
1765793072423020500,4.2410205078125,0.19393034279346466,-0.16998831927776337,0.011971008032560349
1765793072433030400,4.251030517578125,0.15801730751991272,-0.15083470940589905,0.016759412363171577
1765793072443040300,4.261040283203125,0.12449848651885986,-0.023942016065120697,-0.011971008032560349
1765793072452989000,4.270989013671875,0.090979665517807,0.08858546614646912,0.038307227194309235
1765793072462998800,4.280998779296875,0.047884032130241394,0.24181437492370605,0.016759412363171577
1765793072483018200,4.301018310546875,0.05027823522686958,0.569819986820221,-0.011971008032560349
1765793072503037700,4.32103759765625,0.05027823522686958,0.2513911724090576,-0.033518824726343155
1765793072513047600,4.331047607421875,0.10295066982507706,0.1604115068912506,-0.021547814831137657
1765793072523026700,4.341026611328125,-0.016759412363171577,-0.1364694982767105,0.026336219161748886
1765793072533036500,4.35103662109375,0.05267243832349777,0.06703764945268631,-0.05267243832349777
1765793072543046400,4.36104638671875,-0.11013327538967133,0.16759411990642548,0.06224924325942993
1765793072553056000,4.371055908203125,-0.11013327538967133,0.1604115068912506,0.06224924325942993
1765793072563065900,4.38106591796875,-0.08379705995321274,0.3998316824436188,0.07900865375995636
1765793072593095200,4.41109521484375,0.14365209639072418,0.4165911078453064,-0.24899697303771973
1765793072603104800,4.421104736328125,0.4644751250743866,0.689530074596405,-0.4405331015586853
1765793072613053700,4.4310537109375,0.5315127968788147,0.7733271718025208,-0.4213795065879822
1765793072623032800,4.44103271484375,0.5147533416748047,-0.5315127968788147,-0.3447650372982025
1765793072633042700,4.451042724609375,0.35913026332855225,-1.400607943534851,-0.48602294921875
1765793072643052300,4.46105224609375,0.40462008118629456,-1.3335703611373901,-0.4165911078453064
1765793072653001200,4.471001220703125,0.35913026332855225,-0.8331822156906128,-0.12210428714752197
1765793072663010800,4.4810107421875,0.35673606395721436,-0.2082955539226532,0.040701430290937424
1765793072673020700,4.491020751953125,0.031124621629714966,-0.090979665517807,0.16759411990642548
1765793072693009700,4.511009765625,-0.42856210470199585,-0.40940847992897034,0.05985504388809204
1765793072702989000,4.520989013671875,-0.49559974670410156,-0.4405331015586853,0.026336219161748886
1765793072712998700,4.53099853515625,-0.4644751250743866,-1.0749965906143188,0.1843535304069519
1765793072723008500,4.541008544921875,-0.6703764796257019,-1.9081788063049316,0.30885201692581177
1765793072733018000,4.55101806640625,-0.8475474119186401,-1.9608511924743652,0.49559974670410156
1765793072743028000,4.561028076171875,-0.6177040338516235,-1.6376339197158813,0.6129156351089478
1765793072753068300,4.571068359375,-0.4165911078453064,-1.625662922859192,0.6488286852836609
1765793072763078100,4.581078125,-0.4668693244457245,-1.5394717454910278,0.47644615173339844
1765793072772996400,4.590996337890625,-0.3280056416988373,-1.2761094570159912,0.608127236366272
1765793072803025700,4.621025634765625,-0.21787235140800476,0.363918662071228,0.7134721279144287
1765793072813004800,4.6310048828125,-0.22026655077934265,0.4644751250743866,0.47644615173339844
1765793072823014700,4.6410146484375,0.1149216815829277,0.043095629662275314,0.33279404044151306
1765793072833024300,4.651024169921875,0.24181437492370605,-0.31364041566848755,-0.031124621629714966
1765793072843034000,4.6610341796875,0.5195417404174805,0.09576806426048279,-0.44771572947502136
1765793072853044000,4.6710439453125,0.7182605266571045,0.7805097699165344,-0.40222588181495667
1765793072863053600,4.681053466796875,1.1252747774124146,1.1755530834197998,-0.5195417404174805
1765793072873002200,4.691002197265625,1.335964560508728,1.2665326595306396,-0.8044517636299133
1765793072903031600,4.721031494140625,1.2521674633026123,1.9033904075622559,-0.8738836050033569
1765793072913041400,4.73104150390625,1.0534487962722778,1.6927006244659424,-0.8906430602073669
1765793072923051300,4.74105126953125,0.4620809257030487,0.6991068720817566,-0.6871358752250671
1765793072932969500,4.750969482421875,0.12928688526153564,-0.40940847992897034,-0.5985504388809204
1765793072942948600,4.760948486328125,-0.13168109953403473,-0.9600749015808105,-0.6392518281936646
1765793072952928000,4.770927978515625,-0.13168109953403473,-0.8810662031173706,-0.507570743560791
1765793072962937600,4.7809375,0.06464344263076782,-0.524330198764801,-0.15322890877723694
1765793072972947500,4.790947509765625,0.15322890877723694,-0.17717093229293823,-0.37828385829925537
1765793073002976800,4.820976806640625,0.4189853072166443,0.19153612852096558,-0.3758896589279175
1765793073012956000,4.830955810546875,0.49320554733276367,0.13168109953403473,-0.49559974670410156
1765793073022996200,4.840996337890625,0.33279404044151306,0.19632454216480255,-0.38307225704193115
1765793073032945000,4.85094482421875,0.09816227108240128,0.26096799969673157,-0.5147533416748047
1765793073042985200,4.860985107421875,0.20350714027881622,0.2944868206977844,-0.6536170840263367
1765793073052995000,4.8709951171875,0.07900865375995636,0.4812345504760742,-0.3974374830722809
1765793073063004700,4.881004638671875,-0.22266076505184174,0.4381389021873474,-0.038307227194309235
1765793073072984000,4.890984130859375,0.019153613597154617,0.4141969084739685,-0.1364694982767105
1765793073082994000,4.900993896484375,0.11971008777618408,-0.17717093229293823,-0.15322890877723694
1765793073132981500,4.9509814453125,0.13407529890537262,-0.2849099934101105,0.1364694982767105
1765793073142991400,4.960991455078125,-0.033518824726343155,-0.12449848651885986,0.2944868206977844
1765793073153001200,4.971001220703125,-0.07661445438861847,0.10773907601833344,0.19393034279346466
1765793073162980400,4.98098046875,-0.05506663769483566,0.05746084079146385,0.11971008777618408
1765793073172990200,4.990990234375,-0.023942016065120697,-0.05506663769483566,0.12210428714752197
1765793073182999800,5.000999755859375,0.023942016065120697,-0.031124621629714966,0.14604631066322327
1765793073213029000,5.031029052734375,0.2561795711517334,0.23942017555236816,0.05267243832349777
1765793073233048800,5.051048828125,0.22266076505184174,0.2825157940387726,-0.047884032130241394
1765793073243058400,5.061058349609375,0.44532153010368347,0.6560112833976746,-0.21787235140800476
1765793073253068300,5.071068359375,0.47405192255973816,0.6248866319656372,-0.28730419278144836
1765793073263078100,5.081078125,0.42856210470199585,0.5003881454467773,-0.21787235140800476
1765793073283097600,5.10109765625,0.2106897532939911,0.3495534360408783,-0.1388636976480484
1765793073293107500,5.111107421875,0.014365210197865963,-0.21547815203666687,0.05985504388809204
1765793073323136500,5.141136474609375,0.304063618183136,-0.021547814831137657,0.15083470940589905
1765793073333085400,5.15108544921875,0.4118026793003082,-0.0454898327589035,0.13168109953403473
1765793073343034000,5.1610341796875,0.5578489899635315,-0.05027823522686958,0.06703764945268631
1765793073353074400,5.171074462890625,0.4644751250743866,-0.42616790533065796,0.17238251864910126
1765793073363084000,5.181083984375,0.5027823448181152,-0.5219359993934631,0.019153613597154617
1765793073373033000,5.191032958984375,0.5171475410461426,-0.45250412821769714,0.13407529890537262
1765793073383012000,5.20101220703125,0.4692635238170624,-0.48602294921875,0.2059013396501541
1765793073393022000,5.21102197265625,0.5051765441894531,-0.5650315880775452,0.1867477297782898
1765793073413041400,5.23104150390625,0.5650315880775452,-0.45010992884635925,0.2825157940387726
1765793073433060900,5.251060791015625,0.6751648783683777,0.20350714027881622,0.23942017555236816
1765793073453019400,5.271019287109375,0.5913678407669067,0.05985504388809204,-0.15562310814857483
1765793073463059700,5.281059814453125,0.7374141216278076,0.11971008777618408,-0.2753331959247589
1765793073473069600,5.291069580078125,0.42377370595932007,0.090979665517807,-0.22505496442317963
1765793073483079200,5.3010791015625,0.2537853717803955,-0.13407529890537262,-0.22026655077934265
1765793073493028000,5.311028076171875,0,-0.20111294090747833,-0.272938996553421
1765793073532975600,5.3509755859375,-0.1867477297782898,-0.14604631066322327,-0.31124621629714966
1765793073543015700,5.361015625,-0.181959331035614,0.011971008032560349,-0.38307225704193115
1765793073553025500,5.371025634765625,-0.06703764945268631,-0.021547814831137657,-0.27054479718208313
1765793073563035400,5.381035400390625,-0.009576806798577309,-0.2106897532939911,-0.272938996553421
1765793073573045000,5.391044921875,0.06464344263076782,-0.22744916379451752,-0.24899697303771973
1765793073583054800,5.401054931640625,0.26336219906806946,0.033518824726343155,-0.2944868206977844
1765793073593034000,5.411033935546875,0.5913678407669067,0.27054479718208313,-0.18914192914962769
1765793073603043800,5.4210439453125,0.6536170840263367,0.35673606395721436,-0.1867477297782898
1765793073633042700,5.451042724609375,0.5434837937355042,0.05506663769483566,-0.11013327538967133
1765793073653062100,5.471062255859375,0.3447650372982025,0.11252748221158981,-0.18914192914962769
1765793073663072000,5.481072021484375,0.3064578175544739,0.31603461503982544,-0.12210428714752197
1765793073673081600,5.49108154296875,0.31124621629714966,0.1412578970193863,-0.14844051003456116
1765793073683091500,5.501091552734375,0.1604115068912506,0.023942016065120697,-0.3232172429561615
1765793073693070600,5.511070556640625,0.14844051003456116,-0.004788403399288654,-0.16759411990642548
1765793073703080400,5.52108056640625,0.27054479718208313,-0.2322375625371933,-0.15322890877723694
1765793073733109800,5.55110986328125,0.35913026332855225,0.2849099934101105,-0.19632454216480255
1765793073743119600,5.56111962890625,0.2777273952960968,0.49799394607543945,-0.31842881441116333
1765793073753160000,5.571159912109375,0.002394201699644327,0.43095630407333374,-0.4812345504760742
1765793073763169500,5.58116943359375,-0.10773907601833344,0.40222588181495667,-0.33518823981285095
1765793073773179400,5.591179443359375,0.009576806798577309,0.13168109953403473,-0.43335050344467163
1765793073783189200,5.601189208984375,0.28730419278144836,0.11013327538967133,-0.3663128614425659
1765793073793168400,5.61116845703125,0.2561795711517334,-0.0071826050989329815,-0.033518824726343155
1765793073803178200,5.62117822265625,0.24899697303771973,-0.2801215946674347,0.021547814831137657
1765793073833116000,5.651115966796875,0.10773907601833344,-0.15562310814857483,0.17238251864910126
1765793073843125800,5.661125732421875,0.22744916379451752,0.002394201699644327,0.16519992053508759
1765793073853074400,5.671074462890625,0.17477671802043915,-0.11252748221158981,0.028730420395731926
1765793073863053600,5.681053466796875,0.17238251864910126,-0.11252748221158981,0.026336219161748886
1765793073873094000,5.691093994140625,0.06224924325942993,-0.038307227194309235,0.038307227194309235
1765793073883103700,5.701103759765625,0.026336219161748886,0.09576806426048279,0.033518824726343155
1765793073893113300,5.71111328125,0.07182604819536209,0.08379705995321274,0.038307227194309235
1765793073903092700,5.7210927734375,0.24181437492370605,0.014365210197865963,-0.05506663769483566
1765793073923112200,5.7411123046875,0.3208230137825012,0.16998831927776337,0.06224924325942993
1765793073933122000,5.7511220703125,0.2513911724090576,0.08858546614646912,0.08140286058187485
1765793073943131600,5.761131591796875,0.1412578970193863,0.033518824726343155,0.1364694982767105
1765793073953111000,5.771111083984375,0.1628057211637497,-0.14604631066322327,0.19153612852096558
1765793073963120600,5.78112060546875,0.272938996553421,-0.3758896589279175,0.16759411990642548
1765793073973039000,5.7910390625,0.2968810200691223,-0.2944868206977844,0.19153612852096558
1765793073983079200,5.8010791015625,0.35434186458587646,-0.4644751250743866,0.1867477297782898
1765793073993089000,5.811089111328125,0.4118026793003082,-0.33279404044151306,0.06224924325942993
1765793074003099000,5.821098876953125,0.2537853717803955,-0.06464344263076782,0.040701430290937424
1765793074013108500,5.8311083984375,0.31124621629714966,0.15562310814857483,-0.07422025501728058
1765793074043137800,5.8611376953125,0.1364694982767105,-0.20350714027881622,-0.181959331035614
1765793074053117200,5.8711171875,0.2513911724090576,-0.10534487664699554,0.004788403399288654
1765793074063157500,5.881157470703125,-0.009576806798577309,-0.21787235140800476,0.11971008777618408
1765793074073136600,5.89113671875,0.2968810200691223,-0.19632454216480255,-0.028730420395731926
1765793074083146500,5.901146484375,0.2513911724090576,-0.05985504388809204,-0.1149216815829277
1765793074093156000,5.911156005859375,0.31364041566848755,0.2561795711517334,-0.035913024097681046
1765793074113175800,5.93117578125,0.1149216815829277,0.2561795711517334,-0.10534487664699554
1765793074143174400,5.96117431640625,0.2537853717803955,-0.17956513166427612,-0.17956513166427612
1765793074163224600,5.981224609375,0.5099649429321289,-0.23942017555236816,-0.12449848651885986
1765793074173234200,5.991234130859375,0.4189853072166443,-0.15801730751991272,-0.08619125932455063
1765793074183213600,6.001213623046875,0.23702596127986908,-0.033518824726343155,-0.07182604819536209
1765793074193192700,6.011192626953125,0.24420857429504395,0.22026655077934265,-0.09816227108240128
1765793074203202600,6.02120263671875,0.24899697303771973,0.5099649429321289,-0.043095629662275314
1765793074213151200,6.031151123046875,0.1412578970193863,0.31124621629714966,-0.15801730751991272
1765793074223161000,6.0411611328125,0.23702596127986908,0.12210428714752197,-0.15322890877723694
1765793074263108600,6.081108642578125,0.08858546614646912,-0.16519992053508759,0.16519992053508759
1765793074273118200,6.0911181640625,-0.05506663769483566,-0.2753331959247589,0.24899697303771973
1765793074283128000,6.101128173828125,-0.014365210197865963,-0.304063618183136,0.16998831927776337
1765793074293138000,6.111137939453125,-0.08858546614646912,-0.23702596127986908,0.08140286058187485
1765793074303147500,6.1211474609375,-0.026336219161748886,-0.37828385829925537,0.11013327538967133
1765793074313127000,6.131126953125,0.021547814831137657,-0.4620809257030487,0.002394201699644327
1765793074323167200,6.141167236328125,0.002394201699644327,-0.2777273952960968,-0.023942016065120697
1765793074333176800,6.1511767578125,0.15083470940589905,0.021547814831137657,0.06224924325942993
1765793074343186700,6.161186767578125,0.11971008777618408,0.004788403399288654,-0.026336219161748886
1765793074363206100,6.1812060546875,0.0454898327589035,0.009576806798577309,0.004788403399288654
1765793074373154800,6.19115478515625,0.08858546614646912,-0.08140286058187485,0.09816227108240128
1765793074383164700,6.20116455078125,0.26575639843940735,-0.1412578970193863,0.021547814831137657
1765793074393174500,6.211174560546875,0.3280056416988373,-0.24420857429504395,-0.035913024097681046
1765793074403184000,6.22118408203125,0.2849099934101105,-0.23702596127986908,-0.10055647045373917
1765793074413163500,6.23116357421875,0.2825157940387726,-0.0454898327589035,0.002394201699644327
1765793074423173400,6.24117333984375,0.3974374830722809,0.304063618183136,-0.15322890877723694
1765793074433183000,6.251182861328125,0.31124621629714966,0.42616790533065796,0.002394201699644327
1765793074453202400,6.271202392578125,0.1604115068912506,0.17717093229293823,-0.090979665517807
1765793074463181800,6.281181884765625,0.26575639843940735,0.2059013396501541,-0.0933738648891449
1765793074473222100,6.29122216796875,0.3423708379268646,0.1412578970193863,0.038307227194309235
1765793074483231700,6.301231689453125,0.2082955539226532,-0.12210428714752197,-0.0454898327589035
1765793074493211100,6.311211181640625,0.26815059781074524,-0.14844051003456116,-0.09576806426048279
1765793074503251500,6.32125146484375,0.21547815203666687,-0.08140286058187485,-0.026336219161748886
1765793074513261000,6.331260986328125,0.2059013396501541,0.004788403399288654,0.047884032130241394
1765793074523271000,6.34127099609375,0.20350714027881622,0,0.047884032130241394
1765793074533219600,6.351219482421875,0.18914192914962769,0.05746084079146385,0.05746084079146385
1765793074553269800,6.371269775390625,0.1149216815829277,0.181959331035614,-0.07900865375995636
1765793074573289200,6.391289306640625,0.047884032130241394,-0.14844051003456116,-0.12689268589019775
1765793074583268400,6.401268310546875,0.12928688526153564,0.028730420395731926,-0.16759411990642548
1765793074593278200,6.4112783203125,0.14844051003456116,0.23702596127986908,-0.20350714027881622
1765793074603288000,6.4212880859375,0.09576806426048279,0.2825157940387726,-0.181959331035614
1765793074613297700,6.431297607421875,0.11971008777618408,0.33997663855552673,-0.2561795711517334
1765793074623307500,6.4413076171875,0.14844051003456116,0.272938996553421,-0.2585737705230713
1765793074633256200,6.451256103515625,0.10295066982507706,0.05027823522686958,-0.22744916379451752
1765793074643296500,6.461296630859375,0.16998831927776337,-0.17956513166427612,-0.2944868206977844
1765793074683305200,6.50130517578125,0.3711012601852417,0.1412578970193863,-0.2561795711517334
1765793074693254000,6.51125390625,0.35913026332855225,-0.19153612852096558,-0.19393034279346466
1765793074703263500,6.521263427734375,0.17717093229293823,-0.27054479718208313,-0.19632454216480255
1765793074713273300,6.5312734375,0.31124621629714966,-0.2801215946674347,-0.19393034279346466
1765793074723283200,6.541283203125,0.11971008777618408,-0.42616790533065796,0.040701430290937424
1765793074733292800,6.551292724609375,0.23942017555236816,-0.31364041566848755,0.1364694982767105
1765793074743302700,6.561302734375,0.22026655077934265,-0.21547815203666687,0.12210428714752197
1765793074753343000,6.571343017578125,0.14844051003456116,-0.1388636976480484,0.0694318488240242
1765793074763352600,6.5813525390625,0.040701430290937424,-0.19632454216480255,0.1388636976480484
1765793074793321000,6.611321044921875,0.043095629662275314,-0.031124621629714966,0.22505496442317963
1765793074803361300,6.621361328125,0.090979665517807,-0.10295066982507706,0.17956513166427612
1765793074813371100,6.63137109375,0.033518824726343155,-0.38067805767059326,0.16998831927776337
1765793074823319800,6.64131982421875,0.07182604819536209,-0.42616790533065796,0.1412578970193863
1765793074833360100,6.651360107421875,0.12210428714752197,-0.4189853072166443,0.1388636976480484
1765793074843369700,6.66136962890625,0.22026655077934265,-0.22744916379451752,0.10773907601833344
1765793074853318400,6.671318359375,0.29209262132644653,-0.002394201699644327,-0.004788403399288654
1765793074873368600,6.69136865234375,0.17717093229293823,0.16998831927776337,-0.011971008032560349
1765793074883378400,6.70137841796875,0.14604631066322327,0.016759412363171577,-0.07422025501728058
1765793074893388000,6.711387939453125,0.16998831927776337,-0.0694318488240242,-0.15801730751991272
1765793074903367400,6.721367431640625,0.2944868206977844,-0.035913024097681046,-0.19871874153614044
1765793074913316000,6.731316162109375,0.42856210470199585,0.19393034279346466,-0.20350714027881622
1765793074923326000,6.741325927734375,0.4596867263317108,0.21547815203666687,-0.14604631066322327
1765793074933305000,6.75130517578125,0.3663128614425659,0.22744916379451752,-0.19393034279346466
1765793074943284200,6.7612841796875,0.28969839215278625,0.1364694982767105,-0.2513911724090576
1765793074953324500,6.771324462890625,0.18914192914962769,-0.10773907601833344,-0.19153612852096558
1765793074963334400,6.78133447265625,0.14365209639072418,0,-0.22505496442317963
1765793074983293000,6.80129296875,0.31603461503982544,0.15083470940589905,-0.19393034279346466
1765793074993272000,6.81127197265625,0.37828385829925537,0.06703764945268631,-0.19632454216480255
1765793075003282000,6.821281982421875,0.3208230137825012,-0.23702596127986908,-0.1173158809542656
1765793075013261000,6.831260986328125,0.28730419278144836,0.06464344263076782,-0.05506663769483566
1765793075023271000,6.84127099609375,0.28730419278144836,0.009576806798577309,-0.002394201699644327
1765793075033250000,6.85125,0.16759411990642548,-0.035913024097681046,0.031124621629714966
1765793075043260000,6.861260009765625,0.20111294090747833,0.10534487664699554,0.002394201699644327
1765793075053269800,6.871269775390625,0.1173158809542656,0.016759412363171577,0.021547814831137657
1765793075063279400,6.881279296875,0.08379705995321274,0.16998831927776337,-0.06464344263076782
1765793075103288000,6.9212880859375,0.31603461503982544,0.18914192914962769,-0.12210428714752197
1765793075113267200,6.93126708984375,0.42856210470199585,0.4118026793003082,-0.05506663769483566
1765793075123277000,6.941277099609375,0.3902548849582672,0.2968810200691223,-0.181959331035614
1765793075133286700,6.95128662109375,0.15562310814857483,-0.026336219161748886,-0.2825157940387726
1765793075143296500,6.961296630859375,0.038307227194309235,-0.07182604819536209,-0.28969839215278625
1765793075153245200,6.9712451171875,-0.028730420395731926,0.0933738648891449,-0.2513911724090576
1765793075163255000,6.981255126953125,-0.011971008032560349,0.1388636976480484,-0.15322890877723694
1765793075213303800,7.0313037109375,0.20111294090747833,0.019153613597154617,-0.31364041566848755
1765793075223313700,7.041313720703125,0.12210428714752197,0.1388636976480484,-0.26575639843940735
1765793075233262300,7.051262451171875,0.15083470940589905,0.05506663769483566,-0.3208230137825012
1765793075243272200,7.061272216796875,0.09576806426048279,-0.026336219161748886,-0.28730419278144836
1765793075253251300,7.071251220703125,-0.002394201699644327,0.09576806426048279,-0.3423708379268646
1765793075263230700,7.081230712890625,-0.15083470940589905,0.181959331035614,-0.22744916379451752
1765793075273240300,7.091240234375,-0.181959331035614,0.2346317619085312,-0.26096799969673157
1765793075303269600,7.12126953125,0.12449848651885986,-0.0071826050989329815,-0.26096799969673157
1765793075313249000,7.1312490234375,0.22505496442317963,-0.21547815203666687,-0.2346317619085312
1765793075323258600,7.141258544921875,0.4812345504760742,-0.2537853717803955,-0.37828385829925537
1765793075333238000,7.151238037109375,0.7230489253997803,-0.002394201699644327,-0.35913026332855225
1765793075343247600,7.16124755859375,0.7541735172271729,0.30885201692581177,-0.22505496442317963
1765793075353257500,7.171257568359375,0.5434837937355042,0.5889736413955688,-0.2298433631658554
1765793075363267300,7.181267333984375,0.3447650372982025,0.6200982332229614,-0.05985504388809204
1765793075373277000,7.19127685546875,0.10055647045373917,0.7254431247711182,-0.009576806798577309
1765793075403306200,7.22130615234375,-0.16998831927776337,0.1604115068912506,0.17717093229293823
1765793075413316000,7.231316162109375,-0.16519992053508759,-0.043095629662275314,0.12928688526153564
1765793075423326000,7.241325927734375,-0.33279404044151306,-0.15562310814857483,0.06224924325942993
1765793075433335600,7.25133544921875,-0.29209262132644653,-0.05985504388809204,0.12928688526153564
1765793075443345400,7.261345458984375,-0.2944868206977844,-0.0071826050989329815,0.19153612852096558
1765793075453294000,7.271294189453125,-0.1364694982767105,-0.06224924325942993,0.1173158809542656
1765793075463273500,7.2812734375,-0.002394201699644327,-0.0454898327589035,0.11971008777618408
1765793075473283000,7.291282958984375,0.038307227194309235,-0.05506663769483566,0.11971008777618408
1765793075513291800,7.331291748046875,-0.14365209639072418,-0.4141969084739685,-0.0933738648891449
1765793075523301400,7.34130126953125,-0.05506663769483566,-0.4405331015586853,-0.16519992053508759
1765793075533280800,7.35128076171875,0.2106897532939911,-0.2106897532939911,-0.181959331035614
1765793075543290400,7.361290283203125,0.021547814831137657,-0.12210428714752197,-0.07900865375995636
1765793075553300200,7.37130029296875,0.026336219161748886,-0.14604631066322327,-0.08379705995321274
1765793075563310000,7.38131005859375,0.1173158809542656,-0.09576806426048279,-0.21308395266532898
1765793075573319700,7.391319580078125,0.08619125932455063,-0.033518824726343155,-0.2753331959247589
1765793075583299000,7.401299072265625,-0.033518824726343155,-0.021547814831137657,-0.14365209639072418
1765793075613297700,7.431297607421875,0.2298433631658554,0.16519992053508759,-0.023942016065120697
1765793075623277000,7.441277099609375,0.304063618183136,0.3471592366695404,0.10055647045373917
1765793075633256200,7.451256103515625,0.272938996553421,0.2298433631658554,0.07900865375995636
1765793075643266000,7.46126611328125,0.2585737705230713,0.014365210197865963,0.1867477297782898
1765793075653214700,7.471214599609375,0.2513911724090576,-0.4189853072166443,0.1149216815829277
1765793075663255000,7.481255126953125,0.43335050344467163,-0.42856210470199585,0.023942016065120697
1765793075673234200,7.491234130859375,0.5363011956214905,-0.17956513166427612,0.1628057211637497
1765793075683274500,7.5012744140625,0.6703764796257019,0.06464344263076782,0.18914192914962769
1765793075693284400,7.511284423828125,0.6224924325942993,0.014365210197865963,0.14365209639072418
1765793075723283200,7.541283203125,0.07900865375995636,-0.06703764945268631,-0.016759412363171577
1765793075733292800,7.551292724609375,0.019153613597154617,-0.15562310814857483,0.05746084079146385
1765793075743302700,7.561302734375,-0.021547814831137657,-0.23702596127986908,-0.004788403399288654
1765793075753343000,7.571343017578125,0.10295066982507706,-0.06703764945268631,-0.06703764945268631
1765793075763352600,7.5813525390625,0.24181437492370605,0.16519992053508759,0.09816227108240128
1765793075773332000,7.59133203125,0.2059013396501541,0.24899697303771973,0
1765793075783311000,7.60131103515625,0.19871874153614044,0.21787235140800476,-0.10773907601833344
1765793075793321000,7.611321044921875,0.10773907601833344,0.002394201699644327,-0.1604115068912506
1765793075833360100,7.651360107421875,0.11013327538967133,-0.5506663918495178,-0.33039984107017517
1765793075843369700,7.66136962890625,0.07661445438861847,-0.272938996553421,-0.3423708379268646
1765793075853318400,7.671318359375,0.090979665517807,0.09576806426048279,-0.1604115068912506
1765793075863328300,7.681328369140625,0.033518824726343155,0.42616790533065796,-0.10534487664699554
1765793075873307600,7.6913076171875,0.021547814831137657,0.6153098344802856,-0.17477671802043915
1765793075883347700,7.70134765625,-0.1364694982767105,0.47165772318840027,-0.13407529890537262
1765793075893327000,7.7113271484375,-0.09816227108240128,-0.2777273952960968,0.12210428714752197
1765793075903306200,7.72130615234375,0.009576806798577309,-0.6727706789970398,-0.028730420395731926
1765793075933274600,7.751274658203125,0.5195417404174805,-0.0933738648891449,0.2944868206977844
1765793075943284200,7.7612841796875,0.5171475410461426,-0.028730420395731926,0.4165911078453064
1765793075953263600,7.771263671875,0.5099649429321289,-0.0454898327589035,0.44532153010368347
1765793075963304000,7.781303955078125,0.6033388376235962,-0.4812345504760742,0.49320554733276367
1765793075973313500,7.7913134765625,0.5339069962501526,-0.6847416758537292,0.3758896589279175
1765793075993302500,7.811302490234375,0.730231523513794,-0.5410895943641663,0.40701428055763245
1765793076003342800,7.8213427734375,0.7326257228851318,-0.3758896589279175,0.33997663855552673
1765793076033311200,7.851311279296875,0.5985504388809204,-0.14604631066322327,0.27054479718208313
1765793076043320800,7.86132080078125,0.5219359993934631,-0.3280056416988373,0.17238251864910126
1765793076053330700,7.87133056640625,0.3758896589279175,-0.3711012601852417,0.028730420395731926
1765793076063340500,7.881340576171875,0.26815059781074524,-0.2801215946674347,0
1765793076073350100,7.89135009765625,0.3064578175544739,-0.08858546614646912,0.090979665517807
1765793076083360000,7.901360107421875,0.2825157940387726,0.038307227194309235,0.06224924325942993
1765793076093339400,7.91133935546875,0.26336219906806946,0.09816227108240128,0.023942016065120697
1765793076103349000,7.921348876953125,0.24899697303771973,0.040701430290937424,0.10534487664699554
1765793076153306400,7.971306396484375,0.0933738648891449,-0.06703764945268631,0.038307227194309235
1765793076163316000,7.98131591796875,0.12210428714752197,-0.08379705995321274,0
1765793076173325800,7.991325927734375,0.033518824726343155,-0.10534487664699554,0.14365209639072418
1765793076183305200,8.00130517578125,-0.035913024097681046,-0.19393034279346466,0.11013327538967133
1765793076193314800,8.011314697265625,-0.033518824726343155,-0.507570743560791,0.08858546614646912
1765793076203324700,8.02132470703125,0.0694318488240242,-0.4644751250743866,-0.011971008032560349
1765793076213334300,8.031334228515625,0.05985504388809204,-0.21547815203666687,-0.07422025501728058
1765793076253312500,8.0713125,0.13168109953403473,-0.08140286058187485,-0.026336219161748886
1765793076263322000,8.081322021484375,0.0694318488240242,0.2849099934101105,-0.016759412363171577
1765793076273301500,8.091301513671874,0.031124621629714966,0.3423708379268646,-0.1867477297782898
1765793076283341800,8.101341796875,0.21547815203666687,0.4668693244457245,-0.16519992053508759
1765793076293351400,8.111351318359375,0.2537853717803955,0.3663128614425659,-0.0694318488240242
1765793076303361300,8.121361328125,0.40701428055763245,0.19153612852096558,-0.1604115068912506
1765793076313340400,8.13134033203125,0.2968810200691223,-0.08858546614646912,-0.05985504388809204
1765793076323380700,8.141380615234375,0.28730419278144836,-0.05506663769483566,-0.0071826050989329815
1765793076353379600,8.171379638671874,0.5722141861915588,-0.2106897532939911,-0.11013327538967133
1765793076363389400,8.181389404296874,0.6991068720817566,-0.19871874153614044,-0.09816227108240128
1765793076373338000,8.191338134765624,0.5937620401382446,-0.021547814831137657,-0.047884032130241394
1765793076383378400,8.20137841796875,0.3447650372982025,0.22026655077934265,0.11971008777618408
1765793076393388000,8.211387939453125,0.272938996553421,0.17717093229293823,-0.011971008032560349
1765793076403398000,8.22139794921875,0.12689268589019775,0.090979665517807,-0.023942016065120697
1765793076413346600,8.2313466796875,0.2513911724090576,0.15083470940589905,-0.10295066982507706
1765793076423356400,8.2413564453125,0.20350714027881622,0.05506663769483566,0.040701430290937424
1765793076433305000,8.25130517578125,0.181959331035614,-0.13407529890537262,0.05506663769483566
1765793076483353900,8.301353759765625,0.08140286058187485,0.16998831927776337,0
1765793076493363700,8.31136376953125,0.090979665517807,0.011971008032560349,0.10534487664699554
1765793076503373600,8.32137353515625,0.12210428714752197,-0.016759412363171577,0.11013327538967133
1765793076513322200,8.331322265625,0.10773907601833344,-0.17956513166427612,0.05506663769483566
1765793076523331800,8.341331787109375,0.16759411990642548,-0.3711012601852417,-0.019153613597154617
1765793076533311200,8.351311279296874,0.24181437492370605,-0.3974374830722809,-0.08858546614646912
1765793076543351600,8.3613515625,0.2825157940387726,-0.1412578970193863,0.016759412363171577
1765793076573380900,8.391380859375,0.20350714027881622,-0.21308395266532898,0.15322890877723694
1765793076603410200,8.42141015625,0.395043283700943,0.021547814831137657,0.043095629662275314
1765793076613419800,8.431419677734375,0.40940847992897034,0.14844051003456116,0.0694318488240242
1765793076623429600,8.4414296875,0.4165911078453064,-0.040701430290937424,-0.07422025501728058
1765793076633439500,8.451439453125,0.3663128614425659,-0.004788403399288654,-0.0933738648891449
1765793076653459000,8.471458984375,0.27054479718208313,-0.07900865375995636,0.002394201699644327
1765793076703416000,8.521416015625,0.5051765441894531,-0.07661445438861847,-0.11971008777618408
1765793076713426000,8.531426025390624,0.4429273009300232,-0.021547814831137657,-0.16759411990642548
1765793076723435800,8.541435791015624,0.3471592366695404,-0.06464344263076782,-0.07182604819536209
1765793076733384400,8.551384521484374,0.2513911724090576,0.011971008032560349,-0.031124621629714966
1765793076743394300,8.561394287109374,0.17956513166427612,-0.023942016065120697,-0.016759412363171577
1765793076753434400,8.571434326171875,0.2082955539226532,0.031124621629714966,0.014365210197865963
1765793076763444200,8.5814443359375,0.2968810200691223,0.15083470940589905,0.07182604819536209
1765793076783463700,8.601463623046875,0.31364041566848755,-0.0454898327589035,0.016759412363171577
1765793076793473500,8.6114736328125,0.22026655077934265,-0.023942016065120697,-0.08379705995321274
1765793076803483400,8.6214833984375,0.13407529890537262,-0.26815059781074524,-0.05506663769483566
1765793076813493000,8.631492919921875,0.0933738648891449,-0.27054479718208313,0.0071826050989329815
1765793076823502800,8.6415029296875,0.13407529890537262,-0.1412578970193863,-0.002394201699644327
1765793076833512700,8.6515126953125,0.21787235140800476,0.08379705995321274,-0.0071826050989329815
1765793076843522300,8.661522216796875,0.06224924325942993,0.10773907601833344,0.004788403399288654
1765793076853471200,8.67147119140625,0.14365209639072418,-0.0933738648891449,0.043095629662275314
1765793076883500300,8.701500244140625,-0.07182604819536209,-0.035913024097681046,0.028730420395731926
1765793076893479700,8.711479736328124,-0.05027823522686958,0.06464344263076782,0.05027823522686958
1765793076903489500,8.721489501953124,0.033518824726343155,-0.004788403399288654,-0.035913024097681046
1765793076913499100,8.7314990234375,0.040701430290937424,-0.1364694982767105,-0.10295066982507706
1765793076923509000,8.741509033203124,0.0933738648891449,-0.28730419278144836,-0.08379705995321274
1765793076933518600,8.7515185546875,-0.011971008032560349,-0.38307225704193115,-0.1364694982767105
1765793076943498000,8.761498046875,-0.12210428714752197,-0.29209262132644653,-0.16998831927776337
1765793076953507800,8.7715078125,-0.19871874153614044,-0.26096799969673157,-0.06464344263076782
1765793076963517400,8.781517333984375,-0.14844051003456116,-0.14844051003456116,-0.090979665517807
1765793076973466000,8.791466064453125,-0.028730420395731926,-0.026336219161748886,0.004788403399288654
1765793077013474800,8.831474853515624,0,0.26575639843940735,0.05027823522686958
1765793077023454000,8.841453857421875,0.0071826050989329815,0.1604115068912506,-0.011971008032560349
1765793077033463800,8.8514638671875,-0.004788403399288654,0.17717093229293823,-0.026336219161748886
1765793077043473700,8.8614736328125,0.12210428714752197,0.2585737705230713,0
1765793077053483300,8.871483154296875,0.1867477297782898,0.31364041566848755,0.15801730751991272
1765793077063493000,8.8814931640625,0.2298433631658554,0.1412578970193863,0.07182604819536209
1765793077073502700,8.891502685546875,0.29209262132644653,0.06703764945268631,-0.06464344263076782
1765793077103532000,8.921531982421875,0.5291185975074768,-0.3495534360408783,-0.021547814831137657
1765793077113511400,8.931511474609374,0.3423708379268646,-0.569819986820221,-0.009576806798577309
1765793077123521300,8.941521240234374,0.38307225704193115,-0.6392518281936646,-0.07900865375995636
1765793077133531000,8.95153076171875,0.4836287498474121,-0.3758896589279175,0.011971008032560349
1765793077143510300,8.96151025390625,0.4836287498474121,-0.3663128614425659,0.009576806798577309
1765793077153519900,8.971519775390625,0.5410895943641663,-0.10773907601833344,0.004788403399288654
1765793077163529700,8.98152978515625,0.6272808313369751,-0.035913024097681046,-0.028730420395731926
1765793077173478400,8.991478515625,0.5339069962501526,-0.08140286058187485,-0.2298433631658554
1765793077193467400,9.01146728515625,0.31603461503982544,-0.021547814831137657,-0.1412578970193863
1765793077223496700,9.04149658203125,0.06224924325942993,0,-0.0694318488240242
1765793077233506600,9.051506591796874,0.12210428714752197,0.1628057211637497,-0.12449848651885986
1765793077243516200,9.06151611328125,0.21308395266532898,0.17477671802043915,-0.05267243832349777
1765793077253526000,9.071526123046874,0.12928688526153564,-0.14604631066322327,-0.08619125932455063
1765793077263535900,9.081535888671874,0.21547815203666687,-0.12928688526153564,-0.17238251864910126
1765793077273545500,9.09154541015625,0.29209262132644653,0.090979665517807,-0.2298433631658554
1765793077283555300,9.101555419921874,0.37828385829925537,0.08619125932455063,-0.08858546614646912
1765793077313523700,9.131523681640624,0.28969839215278625,0.2537853717803955,-0.14365209639072418
1765793077323533300,9.141533203125,0.22266076505184174,0.1149216815829277,-0.14365209639072418
1765793077333543200,9.151543212890624,0.15083470940589905,-0.0694318488240242,-0.14604631066322327
1765793077343552800,9.161552734375,0.17956513166427612,-0.014365210197865963,-0.19871874153614044
1765793077353562600,9.171562744140624,0.19871874153614044,0.05267243832349777,-0.21547815203666687
1765793077363542000,9.1815419921875,0.2322375625371933,0.014365210197865963,-0.17238251864910126
1765793077373551600,9.191551513671875,0.1867477297782898,-0.09816227108240128,-0.19393034279346466
1765793077383561500,9.2015615234375,0.16759411990642548,-0.17717093229293823,-0.30885201692581177
1765793077423570000,9.24156982421875,0.21547815203666687,-0.05506663769483566,-0.22266076505184174
1765793077433610200,9.2516103515625,0.17956513166427612,-0.08379705995321274,-0.24899697303771973
1765793077443620000,9.2616201171875,0.1628057211637497,0.07182604819536209,-0.20350714027881622
1765793077453629700,9.271629638671875,0.16759411990642548,0.09816227108240128,-0.21787235140800476
1765793077463639600,9.2816396484375,0.29209262132644653,0.31603461503982544,-0.181959331035614
1765793077473649400,9.2916494140625,0.44532153010368347,0.33758243918418884,-0.17477671802043915
1765793077483659000,9.301658935546875,0.42616790533065796,0.2082955539226532,-0.2537853717803955
1765793077493638400,9.311638427734374,0.40701428055763245,0.10295066982507706,-0.17238251864910126
1765793077523606500,9.3416064453125,0.545877993106842,0.10295066982507706,-0.009576806798577309
1765793077533616400,9.351616455078124,0.5027823448181152,0.3471592366695404,0.10055647045373917
1765793077543626200,9.361626220703124,0.42856210470199585,0.38307225704193115,0.12210428714752197
1765793077553635800,9.3716357421875,0.3902548849582672,0.3519476354122162,0.026336219161748886
1765793077563645700,9.381645751953124,0.38546648621559143,0.363918662071228,-0.009576806798577309
1765793077573594400,9.391594482421874,0.3687070608139038,0.37828385829925537,0.07182604819536209
1765793077583634700,9.401634765625,0.2777273952960968,0.1604115068912506,0.15562310814857483
1765793077593644500,9.41164453125,0.17477671802043915,-0.026336219161748886,0.10055647045373917
1765793077603654100,9.421654052734375,0.15562310814857483,0.0454898327589035,0.2585737705230713
1765793077633683500,9.451683349609375,0.2561795711517334,-0.24420857429504395,0.37828385829925537
1765793077643693300,9.461693359375,0.4213795065879822,-0.05267243832349777,0.38067805767059326
1765793077653703200,9.471703125,0.4165911078453064,0.11013327538967133,0.395043283700943
1765793077663712800,9.481712646484375,0.47405192255973816,0.16519992053508759,0.22505496442317963
1765793077673722600,9.49172265625,0.19153612852096558,0.12928688526153564,0.19871874153614044
1765793077683732200,9.501732177734375,-0.07661445438861847,0.011971008032560349,0.1173158809542656
1765793077693742000,9.5117421875,-0.26575639843940735,-0.1364694982767105,-0.11971008777618408
1765793077703721500,9.521721435546874,-0.2082955539226532,0.1364694982767105,-0.14844051003456116
1765793077723771400,9.541771484375,0.026336219161748886,0.3974374830722809,-0.14844051003456116
1765793077743730000,9.56172998046875,0.07182604819536209,0.3447650372982025,-0.023942016065120697
1765793077753709000,9.571708984375,0.07422025501728058,0.19153612852096558,-0.019153613597154617
1765793077763719000,9.581718994140624,0.08858546614646912,-0.09576806426048279,-0.05985504388809204
1765793077773728800,9.591728759765624,-0.05267243832349777,-0.272938996553421,0.028730420395731926
1765793077783738400,9.60173828125,-0.023942016065120697,-0.5027823448181152,0.05267243832349777
1765793077793748200,9.611748291015624,0.009576806798577309,-0.3734954595565796,-0.014365210197865963
1765793077803758000,9.621758056640624,0.07900865375995636,-0.038307227194309235,0.07900865375995636
1765793077823777500,9.641777587890624,-0.011971008032560349,0.12689268589019775,0.24181437492370605
1765793077833787400,9.651787353515624,-0.15562310814857483,0.09576806426048279,0.2777273952960968
1765793077843797000,9.661796875,-0.19632454216480255,0.004788403399288654,0.31364041566848755
1765793077853806800,9.671806884765624,-0.1364694982767105,-0.19632454216480255,0.31842881441116333
1765793077863786000,9.681785888671875,-0.0071826050989329815,-0.2561795711517334,0.21308395266532898
1765793077873795800,9.6917958984375,0.035913024097681046,-0.15083470940589905,0.19393034279346466
1765793077883805700,9.7018056640625,0.05027823522686958,0.08619125932455063,0.1867477297782898
1765793077893815300,9.711815185546875,0.047884032130241394,0.035913024097681046,0.181959331035614
1765793077903825200,9.7218251953125,0.09576806426048279,-0.07661445438861847,0.11252748221158981
1765793077913834800,9.731834716796875,-0.023942016065120697,-0.3016694188117981,0.18914192914962769
1765793077943864000,9.761864013671875,-0.021547814831137657,-0.10295066982507706,-0.05506663769483566
1765793077953843500,9.771843505859374,-0.21308395266532898,-0.17956513166427612,-0.24899697303771973
1765793077983811600,9.8018115234375,-0.545877993106842,-0.20350714027881622,-0.26336219906806946
1765793078003831300,9.821831298828124,-0.4644751250743866,-0.2825157940387726,-0.24660277366638184
1765793078013841000,9.8318408203125,-0.545877993106842,-0.17717093229293823,-0.20350714027881622
1765793078023850800,9.841850830078124,-0.5003881454467773,-0.24420857429504395,-0.20350714027881622
1765793078053910500,9.87191064453125,-0.5123591423034668,-0.6153098344802856,-0.2513911724090576
1765793078063920400,9.88192041015625,-0.6153098344802856,-0.8930372595787048,-0.36152446269989014
1765793078073930000,9.891929931640625,-0.5650315880775452,-1.161187767982483,-0.36152446269989014
1765793078083939800,9.90193994140625,-0.30885201692581177,-1.6687586307525635,-0.1867477297782898
1765793078093949700,9.91194970703125,-0.24899697303771973,-1.886630892753601,-0.1412578970193863
1765793078103928800,9.9219287109375,-0.004788403399288654,-1.4293384552001953,-0.05985504388809204
1765793078113938700,9.931938720703124,0.15562310814857483,-0.9074024558067322,0.040701430290937424
1765793078123948300,9.9419482421875,0.24420857429504395,-0.4381389021873474,0.11971008777618408
1765793078133897200,9.951897216796874,0.0454898327589035,-0.1364694982767105,0.16998831927776337
1765793078153947100,9.971947021484375,-0.5650315880775452,-0.5267243981361389,0.17477671802043915
1765793078163957000,9.98195703125,-0.7493851184844971,-0.9050082564353943,0.19393034279346466
1765793078173966600,9.991966552734375,-0.9026140570640564,-1.115697979927063,0.1388636976480484
1765793078183946000,10.001946044921874,-0.9864110946655273,-1.0965443849563599,0.16759411990642548
1765793078193955800,10.011955810546874,-0.8331822156906128,-0.8834604024887085,0.18914192914962769
1765793078203935000,10.02193505859375,-0.6823474764823914,-0.8164227604866028,0.05985504388809204
1765793078213944800,10.03194482421875,-0.7445967197418213,-0.507570743560791,-0.028730420395731926
1765793078223924000,10.041924072265624,-0.7972691655158997,-0.33997663855552673,-0.07900865375995636
1765793078233933800,10.051933837890624,-1.0247182846069336,-0.304063618183136,-0.0454898327589035
1765793078263963100,10.081963134765624,-1.4963760375976562,-1.1109095811843872,-0.11013327538967133
1765793078273942300,10.0919423828125,-1.3072341680526733,-1.1994950771331787,-0.24660277366638184
1765793078283982600,10.101982666015624,-0.8595184087753296,-0.706289529800415,-0.14844051003456116
1765793078293992400,10.111992431640624,-0.5195417404174805,-0.17477671802043915,0.15083470940589905
1765793078303941000,10.121941162109374,-0.4381389021873474,0.1843535304069519,0.21547815203666687
1765793078313981400,10.1319814453125,-0.6871358752250671,0.23702596127986908,0.31603461503982544
1765793078323991000,10.141990966796875,-0.9864110946655273,0.07422025501728058,0.2992752194404602
1765793078334001000,10.1520009765625,-1.501164436340332,-0.38067805767059326,0.3998316824436188
1765793078344010800,10.1620107421875,-1.7501614093780518,-0.6727706789970398,0.5291185975074768
1765793078364030200,10.1820302734375,-1.5275006294250488,-0.48602294921875,0.5937620401382446
1765793078373979000,10.191978759765625,-1.335964560508728,-0.31124621629714966,0.6177040338516235
1765793078383988700,10.20198876953125,-1.3239935636520386,-0.4692635238170624,0.6919242739677429
1765793078393967900,10.2119677734375,-1.3000515699386597,-0.8930372595787048,0.7781155705451965
1765793078403977700,10.221977783203124,-1.381454348564148,-1.1037269830703735,0.7326257228851318
1765793078413956900,10.231956787109375,-1.359906554222107,-0.9840168952941895,0.706289529800415
1765793078423966700,10.241966796875,-1.1420341730117798,-0.7996633648872375,0.8068459630012512
1765793078433976600,10.2519765625,-0.6153098344802856,-0.5554547905921936,0.7326257228851318
1765793078443955700,10.261955810546874,-0.36152446269989014,-0.1628057211637497,0.6177040338516235
1765793078483964200,10.301964111328125,-0.3711012601852417,-0.6536170840263367,0.7182605266571045
1765793078493974000,10.31197412109375,-0.49799394607543945,-1.0342950820922852,0.7589619159698486
1765793078503983900,10.32198388671875,-0.5123591423034668,-1.1563993692398071,0.7134721279144287
1765793078513993500,10.331993408203125,-0.5793967843055725,-1.699883222579956,0.545877993106842
1765793078524003300,10.34200341796875,-0.3447650372982025,-2.2409727573394775,0.48602294921875
1765793078533952000,10.351951904296875,-0.4836287498474121,-2.3918075561523438,0.6009446382522583
1765793078573960700,10.391960693359374,0.2298433631658554,-1.2210428714752197,0.6536170840263367
1765793078593949700,10.41194970703125,0.0071826050989329815,-1.2737152576446533,0.507570743560791
1765793078613908200,10.431908203125,0,-0.6224924325942993,0.40940847992897034
1765793078623917800,10.441917724609375,0.002394201699644327,-0.6751648783683777,0.4381389021873474
1765793078633927700,10.451927734375,0.2753331959247589,-1.0558429956436157,0.38546648621559143
1765793223117605000,154.93560522460936,-0.2753331959247589,-1.2282254695892334,-0.17477671802043915
1765793223127584300,154.94558422851563,4.771644115447998,11.99255657196045,-2.6384103298187256
1765793223167262500,154.98526245117188,-0.363918662071228,0.507570743560791,0.6871358752250671
1765793223177072000,154.99507202148436,-0.40462008118629456,0.2082955539226532,0.8978256583213806
1765793223196930600,155.0149306640625,-0.6177040338516235,0.3663128614425659,0.727837324142456
1765793223206940400,155.0249404296875,-0.6991068720817566,0.30885201692581177,0.6871358752250671
1765793223216919600,155.03491943359376,-0.8906430602073669,0.26336219906806946,0.5602431893348694
1765793223226899000,155.04489892578124,-1.0869675874710083,0.35673606395721436,0.6009446382522583
1765793223246888000,155.06488793945311,-1.455674648284912,0.6751648783683777,0.6727706789970398
1765793223286835500,155.10483544921874,-2.006340980529785,0.5291185975074768,1.2114660739898682
1765793223296814600,155.11481469726561,-1.802833914756775,0.019153613597154617,1.0007762908935547
1765793223306794000,155.1247939453125,-1.1851298809051514,-0.3663128614425659,0.8451532125473022
1765793223316773000,155.13477319335936,-0.3016694188117981,-1.3910311460494995,0.9265560507774353
1765793223326783000,155.14478295898436,0.5267243981361389,-2.013523578643799,0.5554547905921936
1765793223346741500,155.16474145507811,1.4867992401123047,-2.557007312774658,-0.040701430290937424
1765793223356781800,155.17478173828124,1.5610195398330688,-2.3104045391082764,0.08858546614646912
1765793223416718300,155.23471826171874,0.7733271718025208,-0.5626373887062073,0.1867477297782898
1765793223496704800,155.31470483398436,0.45010992884635925,-1.1492167711257935,-0.8212111592292786
1765793223506684200,155.32468408203124,0.10055647045373917,-0.5051765441894531,-0.49320554733276367
1765793223516724200,155.33472412109376,0.17477671802043915,-0.3711012601852417,0.20111294090747833
1765793223536682800,155.35468286132811,0.7805097699165344,-0.727837324142456,0.24660277366638184
1765793223576630300,155.39463037109374,2.9065608978271484,-0.8978256583213806,0.09576806426048279
1765793223666565600,155.48456567382811,1.6639702320098877,0.4381389021873474,0.8403648138046265
1765793223676544800,155.49454467773438,1.6879122257232666,0.4884171485900879,0.5770025849342346
1765793223696564500,155.514564453125,1.6112977266311646,0.8667010068893433,0.4405331015586853
1765793223776520400,155.5945205078125,0.6440402865409851,0.7326257228851318,0.1412578970193863
1765793223786499800,155.60449975585936,0.5410895943641663,0.5793967843055725,0.3423708379268646
1765793223796509400,155.61450952148436,0.5482721924781799,0.45010992884635925,0.3280056416988373
1765793223806519300,155.62451928710936,0.5051765441894531,0.3758896589279175,0.16759411990642548
1765793223816498400,155.63449853515624,0.45489832758903503,0.3926490843296051,0.23942017555236816
1765793223826508300,155.64450830078124,0.40940847992897034,0.23942017555236816,0.33758243918418884
1765793223836487400,155.6544873046875,0.3495534360408783,0.1867477297782898,0.26575639843940735
1765793223846497300,155.66449731445311,0.22026655077934265,0.3471592366695404,0.23942017555236816
1765793223856476400,155.67447631835938,0.17477671802043915,0.5291185975074768,0.5386953949928284
1765793223876465700,155.69446557617186,-0.15083470940589905,0.38307225704193115,0.49320554733276367
1765793223886444800,155.70444482421874,-0.26815059781074524,0.31124621629714966,0.5291185975074768
1765793223896454700,155.71445458984374,-0.2346317619085312,0.2513911724090576,0.569819986820221
1765793223906433800,155.72443383789061,-0.0454898327589035,0.08619125932455063,0.4596867263317108
1765793223916443600,155.73444360351561,0.08858546614646912,-0.1388636976480484,0.43095630407333374
1765793223926422800,155.7444228515625,0.2513911724090576,-0.2346317619085312,0.4357447028160095
1765793223936432600,155.7544326171875,0.3878606855869293,-0.20350714027881622,0.38546648621559143
1765793223946442200,155.76444213867188,0.31603461503982544,-0.2082955539226532,0.2346317619085312
1765793223956421600,155.77442163085936,0.33279404044151306,0.24181437492370605,0.19871874153614044
1765793223966400800,155.78440087890624,0.14844051003456116,0.629675030708313,0.2346317619085312
1765793223986389800,155.8043896484375,-0.38546648621559143,0.9074024558067322,0.26096799969673157
1765793223996369200,155.814369140625,-0.4572925269603729,0.47884035110473633,0.5027823448181152
1765793224006348300,155.82434838867186,-0.45489832758903503,0.047884032130241394,0.5674257874488831
1765793224016327700,155.83432763671874,-0.2849099934101105,0.15562310814857483,0.5219359993934631
1765793224026306800,155.84430688476561,-0.1388636976480484,0.38307225704193115,0.7709329724311829
1765793224036316700,155.85431665039061,-0.10055647045373917,0.3734954595565796,0.7852981686592102
1765793224046326300,155.864326171875,-0.07182604819536209,0.4596867263317108,0.6847416758537292
1765793224056305700,155.8743056640625,-0.06224924325942993,0.2346317619085312,0.5195417404174805
1765793224066223900,155.88422387695311,-0.06464344263076782,0.19632454216480255,0.4596867263317108
1765793224096253200,155.91425317382811,-0.2513911724090576,-0.47405192255973816,0.11971008777618408
1765793224106262800,155.9242626953125,-0.33518823981285095,-0.5889736413955688,0.016759412363171577
1765793224116242200,155.9342421875,-0.5195417404174805,-0.5339069962501526,-0.0933738648891449
1765793224136292000,155.9542919921875,-0.8523358106613159,-0.4596867263317108,-0.1843535304069519
1765793224146271500,155.964271484375,-1.0007762908935547,-0.6320692300796509,-0.3519476354122162
1765793224156281300,155.97428125,-1.0223240852355957,-0.9840168952941895,-0.6177040338516235
1765793224166291000,155.984291015625,-0.7805097699165344,-0.9576807022094727,-0.8978256583213806
1765793224196259300,156.01425927734374,-0.7182605266571045,0.395043283700943,-1.5873557329177856
1765793224206238500,156.02423852539061,-0.9481038451194763,1.0199298858642578,-1.5442601442337036
1765793224216217900,156.0342177734375,-1.3910311460494995,1.3431471586227417,-1.5490485429763794
1765793224226197000,156.04419702148436,-1.7717092037200928,1.4772224426269531,-1.400607943534851
1765793224236206800,156.05420678710936,-1.9488801956176758,1.2761094570159912,-1.2234370708465576
1765793224246247000,156.06424682617188,-2.3032219409942627,0.9624691009521484,-1.3742717504501343
1765793224256226300,156.07422631835936,-2.5282769203186035,0.20350714027881622,-1.482010841369629
1765793224266205400,156.08420532226563,-2.5905263423919678,-0.6607996821403503,-1.556231141090393
1765793224276184800,156.09418481445311,-2.698265314102173,-1.702277421951294,-1.7094600200653076
1765793224286164000,156.1041640625,-2.7269957065582275,-2.3702597618103027,-1.7549498081207275
1765793224336121300,156.15412133789061,-2.8131868839263916,-2.8562827110290527,0.15322890877723694
1765793224346100500,156.1641005859375,-2.145204782485962,-2.873042106628418,0.6799532771110535
1765793224356079900,156.17407983398436,-1.7070658206939697,-2.96162748336792,1.0055646896362305
1765793224366059000,156.18405908203124,-1.3024457693099976,-3.157952070236206,1.4221558570861816
1765793224376068900,156.19406884765624,-1.7166426181793213,-3.7421371936798096,1.824381709098816
1765793224386048000,156.20404809570311,-2.27209734916687,-4.3622355461120605,2.1045033931732178
1765793224406037000,156.224037109375,-2.693476915359497,-4.082113742828369,2.451662540435791
1765793224416046800,156.234046875,-3.0310592651367188,-3.6774938106536865,2.5282769203186035
1765793224426026000,156.24402587890626,-2.719813108444214,-4.235342979431152,2.6671407222747803
1765793224436005400,156.25400537109374,-2.099714994430542,-4.455609321594238,2.892195701599121
1765793224445984500,156.26398461914061,-1.414973258972168,-4.446032524108887,3.2130186557769775
1765793224455994400,156.27399438476561,-0.9241618514060974,-3.928884983062744,3.1507694721221924
1765793224466004200,156.28400415039061,0.1604115068912506,-2.8107926845550537,2.6623523235321045
1765793224475983400,156.2939833984375,1.072602391242981,-1.941697597503662,2.3127987384796143
1765793224526032100,156.3440322265625,2.918531894683838,-1.9297266006469727,1.4245500564575195
1765793224536011500,156.35401147460936,2.3343467712402344,-2.2673089504241943,1.6903064250946045
1765793224545990700,156.36399072265624,1.9488801956176758,-1.9800047874450684,1.5083470344543457
1765793224556000500,156.37400048828124,2.008735179901123,-0.47165772318840027,0.9696516990661621
1765793224566010000,156.38401000976563,2.454056739807129,-0.5027823448181152,0.7230489253997803
1765793224576020000,156.39402001953124,1.802833914756775,0.24899697303771973,1.1324573755264282
1765793224585968600,156.40396875,2.2601263523101807,1.9177556037902832,0.6129156351089478
1765793224605927200,156.42392724609374,2.142810583114624,2.365471363067627,-0.19153612852096558
1765793224655945500,156.47394555664061,-0.3519476354122162,0.7326257228851318,-0.6368576288223267
1765793224665924900,156.4839248046875,0.7254431247711182,3.6296098232269287,-0.9074024558067322
1765793224675965000,156.49396484375,1.4939818382263184,2.564189910888672,-2.298433542251587
1765793224685974800,156.50397485351561,3.976768970489502,3.1292216777801514,-2.7916390895843506
1765793224695954200,156.5139541015625,4.156333923339844,1.9847931861877441,-3.485957622528076
1765793224705933300,156.52393334960936,3.797203779220581,1.7501614093780518,-3.1866824626922607
1765793695120275500,626.938275390625,1.4460978507995605,2.118868589401245,-0.5985504388809204
1765793695130254800,626.9482548828125,4.309563159942627,6.610390663146973,-0.2801215946674347
1765793695159992600,626.9779926757813,0.8762778043746948,-0.5913678407669067,-0.2585737705230713
1765793695169802200,626.9878022460938,1.1228805780410767,-0.5913678407669067,-0.5386953949928284
1765793695199601000,627.0176008300781,1.259350061416626,-0.19632454216480255,-0.7733271718025208
1765793695209610800,627.0276108398438,1.1683704853057861,-0.09816227108240128,-0.6751648783683777
1765793695219620600,627.0376206054688,0.9696516990661621,0.3495534360408783,-0.5267243981361389
1765793695239609600,627.0576096191406,0.8906430602073669,0.7038952708244324,-0.3280056416988373
1765793695269516800,627.0875168457031,0.4836287498474121,0.9552865028381348,0.043095629662275314
1765793695339432400,627.1574323730468,-1.0989385843276978,-1.161187767982483,-0.11252748221158981
1765793695359421400,627.1774213867187,-0.8236053586006165,-1.2186486721038818,-0.07182604819536209
1765793695369400800,627.1874008789063,-0.8523358106613159,-1.400607943534851,0.06464344263076782
1765793695389389800,627.2073898925781,-1.0055646896362305,-1.601720929145813,-0.2992752194404602
1765793695409409300,627.2274091796875,-0.8355764150619507,-1.01753568649292,0.05027823522686958
1765793695489304300,627.3073041992187,-0.6775590777397156,0.9385270476341248,-0.17238251864910126
1765793695539109000,627.3571091308594,-1.072602391242981,0.9433154463768005,-0.689530074596405
1765793695609024800,627.4270246582031,-0.4812345504760742,1.2641384601593018,-0.20350714027881622
1765793695649002800,627.4670026855468,0.1604115068912506,0.6344634294509888,0.10773907601833344
1765793695689011500,627.5070114746094,0.8355764150619507,0.44771572947502136,0.06224924325942993
1765793695798996700,627.6169968261719,1.845929503440857,-0.047884032130241394,-0.3495534360408783
1765793695808976100,627.6269760742188,1.9536685943603516,-0.06464344263076782,-0.2346317619085312
1765793695828965000,627.6469650878906,1.9728221893310547,-0.3447650372982025,-0.3926490843296051
1765793695878891800,627.6968918457031,0.7565677165985107,-0.33039984107017517,0.706289529800415
1765793695928879600,627.7468796386719,0.5410895943641663,-0.26336219906806946,1.5897499322891235
1765793696008744200,627.826744140625,0.5003881454467773,-1.1851298809051514,1.235408067703247
1765793696018692900,627.8366928710938,0.6368576288223267,-1.4652514457702637,1.048660397529602
1765793696028702500,627.8467023925781,0.7565677165985107,-1.3335703611373901,0.9457096457481384
1765793696038681900,627.8566818847656,0.6751648783683777,-1.05105459690094,0.8834604024887085
1765793696048722200,627.8667221679688,0.3495534360408783,-1.0438719987869263,0.8619126081466675
1765793696058731800,627.8767316894531,0.16519992053508759,-1.0199298858642578,0.8762778043746948
1765793696118607400,627.936607421875,-0.4572925269603729,0.47405192255973816,0.5482721924781799
1765793696128617200,627.9466171875,-0.6512228846549988,0.6488286852836609,0.5602431893348694
1765793696138566000,627.9565659179688,-0.9193734526634216,0.8571242094039917,0.5985504388809204
1765793696148606200,627.9666062011719,-1.2066776752471924,0.8164227604866028,0.5291185975074768
1765793696158615800,627.9766157226562,-1.4077905416488647,0.8307880163192749,0.47644615173339844
1765793696178604800,627.9966047363281,-1.1683704853057861,0.8667010068893433,0.4620809257030487
1765793696188553700,628.0065537109375,-0.9911994934082031,0.7422025203704834,0.31124621629714966
1765793696198532900,628.0165329589844,-0.8451532125473022,0.6967126727104187,0.3711012601852417
1765793696208481500,628.0264814453125,-0.646434485912323,0.545877993106842,0.3447650372982025
1765793696218430500,628.0364304199219,-0.3998316824436188,0.19632454216480255,0.18914192914962769
1765793696228440000,628.0464401855469,-0.3519476354122162,-0.004788403399288654,0.10055647045373917
1765793696238388700,628.056388671875,-0.272938996553421,-0.023942016065120697,-0.07182604819536209
1765793696248368000,628.0663681640625,-0.22505496442317963,0.05985504388809204,-0.16759411990642548
1765793696258316800,628.0763168945313,-0.31603461503982544,-0.0694318488240242,-0.16998831927776337
1765793696268326700,628.0863266601563,-0.33997663855552673,-0.13168109953403473,-0.1628057211637497
1765793696298294800,628.1162946777343,-0.2322375625371933,-0.16519992053508759,-0.4405331015586853
1765793696308335000,628.1263352050781,-0.19393034279346466,-0.28730419278144836,-0.4644751250743866
1765793696318345000,628.1363449707031,-0.1412578970193863,0.07661445438861847,-0.45010992884635925
1765793696328354600,628.1463544921875,-0.11971008777618408,0.2561795711517334,-0.3208230137825012
1765793696338334000,628.156333984375,-0.21547815203666687,0.3280056416988373,-0.2777273952960968
1765793696348374300,628.1663742675781,-0.29209262132644653,0.4884171485900879,-0.26096799969673157
1765793696358383900,628.1763837890625,-0.16759411990642548,0.5434837937355042,-0.14365209639072418
1765793696368393700,628.1863937988281,-0.31842881441116333,0.629675030708313,-0.06464344263076782
1765793696408371700,628.2263718261719,-0.21547815203666687,0.706289529800415,-0.040701430290937424
1765793696418381600,628.2363815917969,-0.15083470940589905,0.7613561153411865,0.016759412363171577
1765793696428360700,628.2463605957031,-0.06703764945268631,0.9097966551780701,0.181959331035614
1765793696438340000,628.2563400878906,-0.040701430290937424,0.9552865028381348,0.26336219906806946
1765793696448349700,628.266349609375,-0.07422025501728058,0.8762778043746948,0.3902548849582672
1765793696458329000,628.2763291015625,-0.11013327538967133,0.8451532125473022,0.304063618183136
1765793696468338700,628.2863386230468,-0.10773907601833344,0.6368576288223267,0.363918662071228
1765793696478318000,628.2963181152344,-0.272938996553421,0.4596867263317108,0.26815059781074524
1765793696508317000,628.3263168945313,-0.2298433631658554,-0.4165911078453064,0.043095629662275314
1765793696518296000,628.3362961425781,-0.16998831927776337,-0.2106897532939911,0.016759412363171577
1765793696528306000,628.3463059082031,-0.17717093229293823,-0.06703764945268631,0.038307227194309235
1765793696538285000,628.35628515625,-0.3471592366695404,-0.19871874153614044,-0.023942016065120697
1765793696548325400,628.3663254394531,-0.395043283700943,-0.33758243918418884,-0.009576806798577309
1765793696558304500,628.3763044433593,-0.3471592366695404,-0.3471592366695404,-0.031124621629714966
1765793696568314400,628.386314453125,-0.3280056416988373,-0.363918662071228,0.021547814831137657
1765793696578293800,628.3962937011719,-0.24899697303771973,-0.5171475410461426,-0.08619125932455063
1765793696598282800,628.4162827148438,-0.2585737705230713,-0.49799394607543945,-0.2059013396501541
1765793696608262000,628.4262619628906,-0.20350714027881622,-0.33279404044151306,-0.4405331015586853
1765793696618241000,628.4362409667968,-0.0694318488240242,0.0694318488240242,-0.5793967843055725
1765793696628220400,628.4462204589844,0.1628057211637497,0.4429273009300232,-0.6177040338516235
1765793696638199600,628.4561994628906,0.0933738648891449,0.5817909836769104,-0.7972691655158997
1765793696648209400,628.4662094726563,0.019153613597154617,0.7398083209991455,-0.7230489253997803
1765793696658188500,628.4761884765625,-0.1412578970193863,0.8978256583213806,-0.6224924325942993
1765793696668198400,628.4861984863281,-0.272938996553421,0.9768342971801758,-0.4357447028160095
1765793696678208300,628.4962082519531,-0.2585737705230713,0.8930372595787048,-0.5051765441894531
1765793696688217900,628.5062177734375,-0.06224924325942993,0.8738836050033569,-0.4644751250743866
1765793696728165400,628.5461652832031,0.4213795065879822,0.9457096457481384,-0.2106897532939911
1765793696738114300,628.5561142578125,0.20111294090747833,0.7589619159698486,-0.20350714027881622
1765793696748124000,628.5661240234375,0.3519476354122162,0.6823474764823914,-0.0933738648891449
1765793696758103300,628.5761032714844,0.3878606855869293,0.608127236366272,-0.0071826050989329815
1765793696768082400,628.5860825195313,0.363918662071228,0.5770025849342346,-0.016759412363171577
1765793696788102000,628.6061018066406,0.26815059781074524,0.05267243832349777,0.13407529890537262
1765793696798111700,628.6161118164063,0.40701428055763245,-0.6009446382522583,-0.07661445438861847
1765793696828049400,628.6460493164062,0.023942016065120697,-1.4676456451416016,-0.5674257874488831
1765793696838059300,628.6560593261719,-0.23942017555236816,-2.557007312774658,-0.15322890877723694
1765793696857987300,628.6759873046875,0.11971008777618408,-2.212242364883423,0.30885201692581177
1765793696867966500,628.6859665527344,0.49799394607543945,-1.6974890232086182,0.31124621629714966
1765793696887955500,628.7059555664063,1.0199298858642578,-1.721431016921997,-0.6607996821403503
1765793696917862700,628.7358625488281,1.4077905416488647,-1.0199298858642578,-0.751779317855835
1765793696927842000,628.7458420410156,1.3048399686813354,-0.6943184733390808,-0.9169792532920837
1765793696937821200,628.7558212890625,1.4245500564575195,-0.35913026332855225,-1.0079588890075684
1765793696947861500,628.7658615722656,1.5298948287963867,-0.304063618183136,-0.8978256583213806
1765793696957840600,628.7758405761718,1.534683346748352,0.07422025501728058,-0.9911994934082031
1765793696967850500,628.7858505859375,1.359906554222107,0.5506663918495178,-0.706289529800415
1765793696977830000,628.7958298339844,1.137245774269104,0.629675030708313,-0.4189853072166443
1765793696987809000,628.8058090820313,0.7661445140838623,0.4836287498474121,-0.21787235140800476
1765793696997788200,628.8157880859375,0.3687070608139038,0.0454898327589035,-0.06224924325942993
1765793697037735700,628.8557355957031,0.3519476354122162,-0.9097966551780701,-0.08140286058187485
1765793697047715000,628.8657150878906,0.42377370595932007,-1.1540051698684692,-0.37828385829925537
1765793697057694200,628.8756940917968,0.2801215946674347,-1.1276689767837524,-0.6919242739677429
1765793697067734500,628.8857346191406,0.1364694982767105,-0.9481038451194763,-0.7996633648872375
1765793697077714000,628.8957138671875,0.14604631066322327,-1.0630255937576294,-0.9097966551780701
1765793697087693000,628.9056931152344,-0.040701430290937424,-1.015141487121582,-1.2018892765045166
1765793697097672200,628.9156721191406,-0.2968810200691223,-0.7948749661445618,-1.2186486721038818
1765793697147599000,628.9655991210938,-1.0079588890075684,1.094150185585022,-0.3711012601852417
1765793697157578200,628.975578125,-0.9983820915222168,1.1851298809051514,-0.4405331015586853
1765793697167557600,628.9855576171875,-1.0127472877502441,1.4293384552001953,-0.2944868206977844
1765793697177506300,628.9955063476563,-0.9888052940368652,0.9840168952941895,-0.15801730751991272
1765793697187516200,629.0055161132813,-0.871489405632019,1.0295066833496094,-0.15322890877723694
1765793697197495300,629.0154953613281,-0.6009446382522583,1.0534487962722778,0.028730420395731926
1765793697207505200,629.0255051269531,-0.5315127968788147,1.0342950820922852,0.023942016065120697
1765793697217514800,629.0355146484375,-0.5171475410461426,1.0797849893569946,-0.002394201699644327
1765793697267441700,629.0854416503906,0.2992752194404602,-0.09576806426048279,0.09576806426048279
1765793697277420800,629.0954208984375,0.45250412821769714,-0.19393034279346466,-0.047884032130241394
1765793697287400200,629.1054001464844,0.5315127968788147,-0.395043283700943,-0.15801730751991272
1765793697297379300,629.1153793945313,0.6177040338516235,-0.524330198764801,-0.1843535304069519
1765793697307389200,629.1253891601563,0.5195417404174805,-0.6392518281936646,-0.29209262132644653
1765793697317398800,629.1353986816406,0.37828385829925537,-0.33997663855552673,-0.21547815203666687
1765793697327408600,629.1454086914063,0.3758896589279175,-0.31364041566848755,-0.22026655077934265
1765793697357346300,629.1753461914062,0.4812345504760742,-0.038307227194309235,-0.15562310814857483
1765793697367325700,629.1853256835938,0.5937620401382446,-0.06464344263076782,-0.2777273952960968
1765793697377366000,629.1953659667969,0.5099649429321289,-0.12689268589019775,-0.181959331035614
1765793697387284200,629.2052841796875,0.4118026793003082,0.12449848651885986,0.019153613597154617
1765793697407212000,629.2252119140625,0.19632454216480255,0.24420857429504395,0.1628057211637497
1765793697417191400,629.23519140625,0.14844051003456116,0.15562310814857483,0.23702596127986908
1765793697427140000,629.2451401367188,0.2298433631658554,0.08858546614646912,0.2561795711517334
1765793697457108200,629.2751081542968,0.49320554733276367,-0.28730419278144836,0.33279404044151306
1765793697487046100,629.3050461425781,0.4429273009300232,-0.5291185975074768,0.24660277366638184
1765793697497025300,629.315025390625,0.43095630407333374,-0.395043283700943,0.26096799969673157
1765793697507035100,629.32503515625,0.5913678407669067,-0.45010992884635925,0.3208230137825012
1765793697517014300,629.3350141601562,0.7134721279144287,-0.3687070608139038,0.14604631066322327
1765793697527024000,629.3450241699219,0.9026140570640564,-0.1867477297782898,0.07661445438861847
1765793697537003300,629.3550031738281,1.170764684677124,0.15801730751991272,-0.031124621629714966
1765793697547013000,629.3650131835938,1.4724340438842773,0.5961562395095825,-0.14844051003456116
1765793697556992300,629.3749921875,1.5059528350830078,0.9816226959228516,-0.13168109953403473
1765793697567002000,629.3850021972656,1.4987702369689941,1.0797849893569946,-0.35434186458587646
1765793697577012000,629.3950119628906,1.1971008777618408,0.8738836050033569,-0.31603461503982544
1765793697586991000,629.4049912109375,0.8475474119186401,0.4692635238170624,-0.19393034279346466
1765793697597001000,629.4150009765625,0.7733271718025208,0.3016694188117981,-0.08858546614646912
1765793697607010600,629.4250104980468,0.6871358752250671,0.3998316824436188,-0.009576806798577309
1765793697617020400,629.4350205078125,0.7661445140838623,0.5506663918495178,0.090979665517807
1765793697626999800,629.4449997558594,0.8690952062606812,0.5003881454467773,0.28969839215278625
1765793697636979000,629.4549790039063,0.8475474119186401,0.363918662071228,0.08619125932455063
1765793697646958000,629.4649580078125,0.6919242739677429,0.5291185975074768,0.038307227194309235
1765793697676896000,629.4948959960938,-0.17477671802043915,0.524330198764801,0.3902548849582672
1765793697696854500,629.5148544921875,-0.40222588181495667,0.507570743560791,0.6177040338516235
1765793697706864000,629.5248640136718,-0.36152446269989014,0.6488286852836609,0.7541735172271729
1765793697716843500,629.5348435058594,-0.36152446269989014,0.8595184087753296,0.950498104095459
1765793697726853000,629.5448530273437,-0.24420857429504395,0.9050082564353943,1.2761094570159912
1765793697736832500,629.5548325195313,-0.2801215946674347,0.8858546018600464,1.50355863571167
1765793697746811600,629.5648117675781,-0.30885201692581177,0.6967126727104187,1.6400281190872192
1765793697756791000,629.574791015625,-0.5099649429321289,0.5889736413955688,1.644816517829895
1765793697776749600,629.5947495117188,-0.3687070608139038,-0.21547815203666687,1.525106430053711
1765793697786728700,629.6047287597656,-0.14365209639072418,-0.395043283700943,1.1994950771331787
1765793697796707800,629.6147077636718,-0.15801730751991272,-0.5147533416748047,1.070208191871643
1765793697806687200,629.6246872558594,-0.12928688526153564,-0.5482721924781799,0.8164227604866028
1765793697816666400,629.6346662597656,-0.13407529890537262,-0.727837324142456,0.5650315880775452
1765793697826645800,629.6446457519531,-0.038307227194309235,-0.9840168952941895,0.4189853072166443
1765793697836625000,629.654625,-0.004788403399288654,-0.912190854549408,0.13168109953403473
1765793697846604300,629.6646042480469,0.038307227194309235,-0.8355764150619507,0.038307227194309235
1765793697856614000,629.6746137695312,-0.19393034279346466,-0.8930372595787048,-0.011971008032560349
1765793697866623700,629.6846237792969,-0.2777273952960968,-0.4429273009300232,0.021547814831137657
1765793697896592000,629.714591796875,-0.4381389021873474,0.9840168952941895,0.31842881441116333
1765793697906601700,629.7246018066406,-0.4668693244457245,1.0319008827209473,0.2753331959247589
1765793697916611600,629.7346115722656,-0.4668693244457245,1.1324573755264282,0.31842881441116333
1765793697926590700,629.7445908203125,-0.45010992884635925,1.039083480834961,0.28969839215278625
1765793697936570000,629.7545700683594,-0.2992752194404602,1.1994950771331787,0.3280056416988373
1765793697946579700,629.7645798339844,-0.3902548849582672,0.8690952062606812,0.24420857429504395
1765793697956559000,629.7745590820313,-0.35434186458587646,0.7469909191131592,0.023942016065120697
1765793697986557700,629.8045576171875,0.28730419278144836,0.21787235140800476,-0.22026655077934265
1765793698006546700,629.8245466308593,0.31364041566848755,-0.17956513166427612,-0.5123591423034668
1765793698016526000,629.8345261230469,0.3208230137825012,-0.3064578175544739,-0.5961562395095825
1765793698026505200,629.8445051269531,0.2513911724090576,-0.5363011956214905,-0.6584054827690125
1765793698036484600,629.8544846191406,0.21547815203666687,-0.6248866319656372,-0.7398083209991455
1765793698046463700,629.8644636230468,0.2753331959247589,-0.5003881454467773,-0.7326257228851318
1765793698056443100,629.8744431152344,0.1388636976480484,-0.38067805767059326,-0.545877993106842
1765793698066483500,629.8844833984375,0.09576806426048279,-0.33279404044151306,-0.23942017555236816
1765793698076493000,629.8944931640625,0.12928688526153564,-0.13168109953403473,-0.11971008777618408
1765793698106461400,629.9244614257813,-0.08140286058187485,0.1867477297782898,-0.17238251864910126
1765793698116440600,629.9344406738281,-0.2561795711517334,0.3064578175544739,-0.15562310814857483
1765793698126420000,629.944419921875,-0.26575639843940735,0.3758896589279175,-0.014365210197865963
1765793698136399000,629.9543991699219,-0.26575639843940735,0.363918662071228,-0.1604115068912506
1765793698146378200,629.9643781738281,-0.2801215946674347,0.33279404044151306,-0.19871874153614044
1765793698156357600,629.9743576660156,-0.1843535304069519,0.3256114423274994,-0.07661445438861847
1765793698166398000,629.9843979492188,-0.19871874153614044,0.09816227108240128,-0.24181437492370605
1765793698176377000,629.9943771972656,-0.20111294090747833,-0.0933738648891449,-0.2537853717803955
1765793698186387000,630.0043869628906,-0.12449848651885986,-0.14604631066322327,-0.22026655077934265
1765793698196396500,630.014396484375,-0.035913024097681046,-0.15083470940589905,-0.3711012601852417
1765793698206376000,630.0243759765625,-0.023942016065120697,-0.2513911724090576,-0.5793967843055725
1765793698216355000,630.0343549804687,0.1173158809542656,-0.2968810200691223,-0.5913678407669067
1765793698226334500,630.0443344726563,-0.011971008032560349,-0.5027823448181152,-0.6368576288223267
1765793698236313600,630.0543137207031,0.026336219161748886,-0.35913026332855225,-0.545877993106842
1765793698246293000,630.06429296875,0.08379705995321274,0.05027823522686958,-0.5506663918495178
1765793698256272100,630.0742722167969,0.05506663769483566,0.0454898327589035,-0.6248866319656372
1765793698266251500,630.0842514648438,-0.026336219161748886,0.15801730751991272,-0.6009446382522583
1765793698286240500,630.1042404785156,-0.009576806798577309,0.5482721924781799,-0.42377370595932007
1765793698316239000,630.1342390136718,-0.23702596127986908,0.9241618514060974,-0.181959331035614
1765793698326249000,630.1442490234375,-0.2801215946674347,0.8523358106613159,-0.22505496442317963
1765793698336228000,630.1542280273437,-0.21547815203666687,0.7110779285430908,-0.23702596127986908
1765793698346268400,630.1642683105468,-0.17717093229293823,0.7350199222564697,-0.20111294090747833
1765793698356247800,630.1742478027344,-0.2944868206977844,0.706289529800415,-0.22744916379451752
1765793698366257400,630.1842573242187,-0.4836287498474121,0.524330198764801,-0.19153612852096558
1765793698376206300,630.1942062988281,-0.47884035110473633,0.363918662071228,-0.40462008118629456
1765793698386185500,630.204185546875,-0.6607996821403503,0.10773907601833344,-0.47644615173339844
1765793698396164600,630.2141645507812,-0.7254431247711182,-0.1173158809542656,-0.6512228846549988
1765793698426133000,630.2441330566406,-1.8100165128707886,-0.4620809257030487,-1.2856862545013428
1765793698436112100,630.2541120605468,-2.4588451385498047,-0.5937620401382446,-1.5203180313110352
1765793698446091500,630.2640915527344,-3.114856481552124,-0.5937620401382446,-1.7262194156646729
1765793698456101400,630.2741013183594,-3.5697548389434814,-0.3878606855869293,-1.886630892753601
1765793698466111000,630.2841110839844,-4.398148536682129,-0.3471592366695404,-1.6424223184585571
1765793698486100000,630.3040998535156,-5.698200225830078,-1.0462661981582642,-1.8579005002975464
1765793698496079400,630.3140793457031,-5.674258232116699,-0.2346317619085312,-2.2649147510528564
1765793698506119700,630.3241196289063,-5.717353820800781,0.6584054827690125,-2.3726539611816406
1765793698536087800,630.354087890625,-5.736507415771484,0.1412578970193863,-3.380612850189209
1765793698546067200,630.3640671386719,-5.717353820800781,0.5195417404174805,-3.4308910369873047
1765793698556046300,630.3740463867188,-5.827486991882324,0.1604115068912506,-3.6822822093963623
1765793698566056200,630.3840561523438,-5.8203043937683105,-1.414973258972168,-4.027047157287598
1765793698576035300,630.3940354003906,-5.647922039031982,-2.784456491470337,-4.675876140594482
1765793698586014500,630.4040144042968,-5.252878665924072,-2.760514497756958,-4.975151062011719
1765793698595993900,630.4139938964844,-4.941632270812988,-1.6974890232086182,-4.8051629066467285
1765793698605973000,630.4239729003906,-4.81473970413208,-0.8619126081466675,-4.60165548324585
1765793698645920500,630.4639204101562,-3.7660791873931885,-2.4660277366638184,-6.098031520843506
1765793698655900000,630.4738999023438,-3.4548330307006836,-2.6815059185028076,-6.270414352416992
1765793698665879000,630.4838791503906,-3.2130186557769775,-2.5737667083740234,-6.222530364990234
1765793698675858400,630.4938583984375,-3.2561142444610596,-2.38462495803833,-6.224924564361572
1765793698685868000,630.5038679199218,-2.913743495941162,-2.5450363159179688,-6.110002517700195
1765793698695847400,630.5138474121094,-2.5953147411346436,-3.270479440689087,-5.940014362335205
1765793698705857000,630.5238569335937,-2.315192937850952,-3.3207578659057617,-5.793968200683594
1765793698715836400,630.5338364257813,-1.946485996246338,-3.9887399673461914,-5.60722017288208
1765793698735795000,630.553794921875,-1.8363527059555054,-3.1507694721221924,-5.262455463409424
1765793698755784000,630.5737839355469,-1.6112977266311646,-2.1140801906585693,-4.632780075073242
1765793698765793500,630.5837934570312,-1.2976573705673218,-2.609679937362671,-4.639962673187256
1765793698775773000,630.5937729492188,-0.933738648891449,-2.5713725090026855,-4.795586109161377
1765793698785752000,630.603751953125,-0.629675030708313,-2.1763293743133545,-4.776432514190674
1765793698795731500,630.6137314453125,0.14365209639072418,-2.784456491470337,-4.594472885131836
1765793698805710600,630.6237106933594,0.7374141216278076,-5.240907669067383,-4.924872875213623
1765793698815690000,630.6336899414063,0.8786720037460327,-5.784391403198242,-5.272032260894775
1765793698835679000,630.6536789550781,1.3000515699386597,-3.9264907836914062,-4.228160381317139
1765793698855637500,630.6736374511719,1.723825216293335,-3.2776620388031006,-3.6391866207122803
1765793698895554300,630.7135541992187,2.851494312286377,-3.050212860107422,-2.7748796939849854
1765793698905533700,630.7235336914063,2.827552318572998,-3.5697548389434814,-2.3056161403656006
1765793947141261800,878.95926171875,3.184288263320923,-3.773261785507202,-0.6919242739677429
1765793947151271700,878.9692717285157,6.45476770401001,-3.8953661918640137,7.702147006988525
1765793947160951000,878.9789509277343,0.47644615173339844,-2.6144683361053467,1.0797849893569946
1765793947170660600,878.9886606445313,-0.6153098344802856,-5.212177276611328,0.9552865028381348
1765793947200259600,879.0182595214844,0.6392518281936646,-2.669534921646118,-0.7781155705451965
1765793947210238700,879.0282387695313,-0.05985504388809204,-1.2401964664459229,-1.5298948287963867
1765793947240176400,879.0581762695313,0.40222588181495667,2.8155810832977295,-1.1013327836990356
1765793947250155800,879.0681557617188,1.0007762908935547,3.2321722507476807,-1.2856862545013428
1765793947270114300,879.0881142578125,1.2234370708465576,3.1244332790374756,-1.3239935636520386
1765793947290042000,879.1080419921875,0.9888052940368652,2.319981336593628,-0.9576807022094727
1765793947300021500,879.118021484375,0.6200982332229614,1.9752163887023926,-0.44532153010368347
1765793947359988500,879.1779885253907,0.5315127968788147,-0.22026655077934265,0.24899697303771973
1765793947439975200,879.2579750976563,0,0.181959331035614,0.49559974670410156
1765793947449954300,879.2679543457032,-0.33279404044151306,-0.021547814831137657,0.4189853072166443
1765793947469912800,879.2879128417969,-0.26815059781074524,-0.30885201692581177,0.11971008777618408
1765793947539859200,879.3578591308594,0.2992752194404602,-0.8643068075180054,-0.11971008777618408
1765793947549838300,879.3678383789063,0.6727706789970398,-0.2346317619085312,-0.12210428714752197
1765793947559848200,879.3778481445313,0.9002198576927185,-0.021547814831137657,0.12928688526153564
1765793947569827300,879.3878273925782,0.6200982332229614,0.26575639843940735,0.2944868206977844
1765793947589816300,879.40781640625,0.1867477297782898,-0.45010992884635925,0.33279404044151306
1765793947609774800,879.4277749023438,0.6272808313369751,-0.10534487664699554,0.2513911724090576
1765793947659732200,879.4777321777344,-0.15562310814857483,0.6943184733390808,0.22026655077934265
1765793947669741800,879.4877419433594,-0.1867477297782898,-0.7972691655158997,-0.4357447028160095
1765793947699740700,879.5177407226563,0.44771572947502136,-1.3048399686813354,-0.9624691009521484
