time,seconds_elapsed,z,y,x
1765793067383173000,-0.798826904296875,9.947908401489258,-0.44771572947502136,-2.7102363109588623
1765793067403131600,-0.778868408203125,10.022128105163574,0.1604115068912506,-2.4875755310058594
1765793067413110800,-0.76888916015625,10.067618370056152,0.0694318488240242,-2.7293899059295654
1765793067423090200,-0.758909912109375,9.871294021606445,-0.06703764945268631,-2.674323320388794
1765793067433038800,-0.748961181640625,9.768342971801758,-0.22744916379451752,-2.513911724090576
1765793067443079200,-0.7389208984375,9.57441234588623,-0.3471592366695404,-2.4660277366638184
1765793067453119500,-0.728880615234375,9.581595420837402,-0.2753331959247589,-2.255337953567505
1765793067463129000,-0.718870849609375,9.579200744628906,-0.1867477297782898,-2.2673089504241943
1765793067473078000,-0.708921875,9.634267807006836,-0.17717093229293823,-2.2026655673980713
1765793067483118300,-0.698881591796875,9.643844604492188,-0.22026655077934265,-2.1930887699127197
1765793067493128000,-0.6888720703125,9.605537414550781,-0.2849099934101105,-2.2816741466522217
1765793067513117000,-0.668883056640625,9.555258750915527,-0.2753331959247589,-2.365471363067627
1765793067533136600,-0.64886328125,9.744400978088379,-0.4118026793003082,-2.5737667083740234
1765793067543115800,-0.63888427734375,9.746794700622559,-0.3663128614425659,-2.7700912952423096
1765793067553125600,-0.628874267578125,9.746794700622559,-0.2059013396501541,-2.695871114730835
1765793067563135200,-0.61886474609375,9.677363395690918,-0.3974374830722809,-2.669534921646118
1765793067573145000,-0.60885498046875,9.758766174316406,-0.4692635238170624,-2.7317841053009033
1765793067583155000,-0.598844970703125,9.751583099365234,-0.11971008777618408,-2.4803929328918457
1765793067593134000,-0.588865966796875,9.797073364257812,-0.06464344263076782,-2.537853717803955
1765793067613153500,-0.568846435546875,9.619902610778809,-0.23942017555236816,-2.655169725418091
1765793067633142500,-0.548857421875,9.543288230895996,-0.028730420395731926,-2.7437551021575928
1765793067643152400,-0.53884765625,9.581595420837402,-0.06224924325942993,-2.6599581241607666
1765793067653131800,-0.5288681640625,9.591172218322754,-0.14604631066322327,-2.7078421115875244
1765793067663171800,-0.518828125,9.682151794433594,-0.10773907601833344,-2.7078421115875244
1765793067673120800,-0.508879150390625,9.560047149658203,-0.08858546614646912,-2.6647465229034424
1765793067683130400,-0.49886962890625,9.528923034667969,-0.12449848651885986,-2.63362193107605
1765793067693140200,-0.48885986328125,9.495404243469238,-0.1604115068912506,-2.580949544906616
1765793067703119400,-0.478880615234375,9.516951560974121,-0.12210428714752197,-2.5546131134033203
1765793067743097600,-0.43890234375,9.545681953430176,-0.35913026332855225,-2.47560453414917
1765793067753107200,-0.428892822265625,9.552865028381348,-0.304063618183136,-2.4396915435791016
1765793067783197700,-0.39880224609375,9.68694019317627,-0.33279404044151306,-2.3942017555236816
1765793067793207300,-0.388792724609375,9.751583099365234,-0.3734954595565796,-2.4133553504943848
1765793067803217200,-0.378782958984375,9.840168952941895,-0.31842881441116333,-2.3989901542663574
1765793067813196300,-0.3688037109375,9.768342971801758,-0.07900865375995636,-2.3487119674682617
1765793067823206100,-0.3587939453125,9.770736694335938,-0.1364694982767105,-2.4205379486083984
1765793067833216000,-0.348783935546875,9.691728591918945,-0.33997663855552673,-2.449268341064453
1765793067843225600,-0.3387744140625,9.8784761428833,-0.31842881441116333,-2.456450939178467
1765793067853174300,-0.32882568359375,9.763554573059082,-0.2801215946674347,-2.4875755310058594
1765793067863214600,-0.318785400390625,9.703699111938477,-0.24899697303771973,-2.456450939178467
1765793067873194000,-0.308805908203125,9.718064308166504,-0.2825157940387726,-2.4157495498657227
1765793067883234300,-0.298765625,9.691728591918945,-0.2801215946674347,-2.406172752380371
1765793067893213400,-0.28878662109375,9.768342971801758,-0.38546648621559143,-2.3989901542663574
1765793067903192600,-0.278807373046875,9.708487510681152,-0.29209262132644653,-2.4636335372924805
1765793067913202400,-0.268797607421875,9.749189376831055,-0.26575639843940735,-2.38462495803833
1765793067933222000,-0.248778076171875,9.648633003234863,-0.28730419278144836,-2.4684219360351562
1765793067943201300,-0.238798828125,9.569623947143555,-0.23702596127986908,-2.3918075561523438
1765793067953211000,-0.2287890625,9.57441234588623,-0.3471592366695404,-2.5091233253479004
1765793067963220700,-0.218779296875,9.521739959716797,-0.4357447028160095,-2.5665841102600098
1765793067973200100,-0.2087998046875,9.660603523254395,-0.40701428055763245,-2.518700122833252
1765793067983209700,-0.198790283203125,9.63187313079834,-0.3758896589279175,-2.5546131134033203
1765793067993189000,-0.188810791015625,9.63187313079834,-0.3758896589279175,-2.5546131134033203
1765793068003198700,-0.17880126953125,9.66539192199707,-0.24899697303771973,-2.719813108444214
1765793068013178000,-0.16882177734375,9.667786598205566,0.002394201699644327,-2.6886885166168213
1765793068023187700,-0.158812255859375,9.639056205749512,0.10773907601833344,-2.7437551021575928
1765793068033197600,-0.148802490234375,9.646238327026367,-0.2825157940387726,-2.8778305053710938
1765793068053125600,-0.128874267578125,9.41639518737793,-0.27054479718208313,-2.9257144927978516
1765793068063135200,-0.11886474609375,9.41639518737793,-0.15322890877723694,-2.9089550971984863
1765793068073114600,-0.108885498046875,9.339780807495117,0.019153613597154617,-2.9281086921691895
1765793068083124200,-0.098875732421875,9.409213066101074,-0.15083470940589905,-2.7748796939849854
1765793068093073200,-0.0889267578125,9.423578262329102,-0.43335050344467163,-2.5785553455352783
1765793068103113200,-0.07888671875,9.636661529541016,-0.40940847992897034,-2.6168625354766846
1765793068113092600,-0.068907470703125,9.72285270690918,-0.4908113479614258,-2.6144683361053467
1765793068123102500,-0.0588974609375,9.75637149810791,-0.5027823448181152,-2.6599581241607666
1765793068133051100,-0.048948974609375,9.787496566772461,-0.38307225704193115,-2.693476915359497
1765793068143060700,-0.038939208984375,9.768342971801758,-0.2825157940387726,-2.7006595134735107
1765793068153070600,-0.028929443359375,9.84256362915039,-0.31842881441116333,-2.784456491470337
1765793068163080400,-0.01891943359375,9.86650562286377,-0.19871874153614044,-2.8874073028564453
1765793068173090000,-0.008909912109375,9.943120002746582,-0.24899697303771973,-2.7772738933563232
1765793068183039000,0.0010390625,9.93354320526123,-0.1604115068912506,-2.786850690841675
1765793068193079000,0.0110791015625,9.849745750427246,0.040701430290937424,-2.7676970958709717
1765793068203089000,0.0210888671875,9.799467086791992,0.12689268589019775,-2.7461493015289307
1765793068213068300,0.031068359375,9.677363395690918,-0.002394201699644327,-2.7557260990142822
1765793068223078000,0.041077880859375,9.682151794433594,-0.3423708379268646,-2.911349296569824
1765793068233026600,0.051026611328125,9.615114212036133,-0.14844051003456116,-2.8419175148010254
1765793068243067000,0.06106689453125,9.612719535827637,-0.14604631066322327,-2.6671407222747803
1765793068263086600,0.081086669921875,9.459490776062012,-0.5937620401382446,-2.8371291160583496
1765793068273065700,0.091065673828125,9.411606788635254,-0.8092401623725891,-2.896984100341797
1765793068283075600,0.10107568359375,9.583989143371582,-0.9433154463768005,-2.8107926845550537
1765793068293024300,0.111024169921875,9.746794700622559,-0.8643068075180054,-2.5761611461639404
1765793068303003400,0.12100341796875,9.821015357971191,-0.6536170840263367,-2.406172752380371
1765793068312982800,0.130982666015625,9.768342971801758,-0.5051765441894531,-2.365471363067627
1765793068322962000,0.1409619140625,9.718064308166504,-0.42856210470199585,-2.4444799423217773
1765793068332971800,0.1509716796875,9.648633003234863,-0.5099649429321289,-2.365471363067627
1765793068342951000,0.160950927734375,9.59835433959961,-0.5123591423034668,-2.2361843585968018
1765793068352960800,0.170960693359375,9.758766174316406,-0.3926490843296051,-2.3942017555236816
1765793068362940000,0.18093994140625,9.95748519897461,-0.2777273952960968,-2.3798365592956543
1765793068372980200,0.190980224609375,10.113107681274414,-0.3902548849582672,-2.2194249629974365
1765793068382990000,0.200989990234375,10.223240852355957,-0.4357447028160095,-2.513911724090576
1765793068393000000,0.211,10.180145263671875,-0.42616790533065796,-2.5450363159179688
1765793068402979000,0.22097900390625,9.981427192687988,-0.19153612852096558,-2.5019407272338867
1765793068412989000,0.230989013671875,9.825803756713867,-0.026336219161748886,-2.477998733520508
1765793068422998500,0.24099853515625,9.730035781860352,0.1149216815829277,-2.492363929748535
1765793068433008400,0.25100830078125,9.780313491821289,-0.272938996553421,-2.559401512145996
1765793068443018200,0.261018310546875,9.792284965515137,-0.524330198764801,-2.63362193107605
1765793068462976500,0.2809765625,10.041281700134277,-0.26096799969673157,-2.2912509441375732
1765793068492975400,0.310975341796875,9.744400978088379,-0.42377370595932007,-2.451662540435791
1765793068512964400,0.33096435546875,9.514557838439941,-0.3711012601852417,-2.4013843536376953
1765793068522943700,0.34094384765625,9.433155059814453,-0.7110779285430908,-2.5761611461639404
1765793068532984000,0.350984130859375,9.435548782348633,-0.5889736413955688,-2.6647465229034424
1765793068542993700,0.36099365234375,9.406818389892578,-0.22505496442317963,-2.432508945465088
1765793068563013000,0.38101318359375,9.765948295593262,-0.05746084079146385,-2.6408045291900635
1765793068573023000,0.39102294921875,9.651026725769043,0.014365210197865963,-2.557007312774658
1765793068583032800,0.40103271484375,9.457097053527832,0.0454898327589035,-2.607285737991333
1765793068593042400,0.41104248046875,9.174580574035645,0.08858546614646912,-2.609679937362671
1765793068603052300,0.42105224609375,8.942343711853027,0.2346317619085312,-2.513911724090576
1765793068613031700,0.43103173828125,8.916007041931152,0.26336219906806946,-2.6168625354766846
1765793068623041300,0.441041259765625,8.841787338256836,0.038307227194309235,-2.5785553455352783
1765793068633020700,0.451020751953125,8.841787338256836,0.038307227194309235,-2.5785553455352783
1765793068643030300,0.4610302734375,9.090784072875977,-0.1628057211637497,-2.8347349166870117
1765793068653040000,0.4710400390625,9.473855972290039,-0.22026655077934265,-2.693476915359497
1765793068673059600,0.4910595703125,9.830592155456543,0.21787235140800476,-2.8802247047424316
1765793068683069400,0.5010693359375,9.744400978088379,0.586579442024231,-2.8562827110290527
1765793068693018000,0.51101806640625,9.576807022094727,0.6631938815116882,-2.8227639198303223
1765793068702997500,0.52099755859375,9.50737476348877,0.7733271718025208,-3.095702886581421
1765793068713007000,0.531007080078125,9.531316757202148,0.7110779285430908,-3.021482467651367
1765793068723017000,0.541016845703125,9.5408935546875,0.7350199222564697,-3.0166940689086914
1765793068732965600,0.550965576171875,9.727641105651855,0.7829039692878723,-3.1435868740081787
1765793068742944800,0.56094482421875,9.691728591918945,0.6847416758537292,-3.220201253890991
1765793068752954600,0.57095458984375,9.770736694335938,0.7589619159698486,-2.985569477081299
1765793068793024300,0.611024169921875,9.921571731567383,0.047884032130241394,-2.80361008644104
1765793068803034000,0.6210341796875,9.641449928283691,0.0933738648891449,-2.801215887069702
1765793068812982800,0.630982666015625,9.50498104095459,0.06224924325942993,-2.557007312774658
1765793068822962000,0.6409619140625,9.334992408752441,0.07422025501728058,-2.4827871322631836
1765793068832941300,0.65094140625,9.370905876159668,-0.14844051003456116,-2.3774423599243164
1765793068842920400,0.66092041015625,9.409213066101074,-0.1867477297782898,-2.31758713722229
1765793068852960800,0.670960693359375,9.524134635925293,-0.038307227194309235,-2.212242364883423
1765793068872949800,0.69094970703125,9.837775230407715,-0.48602294921875,-2.185906171798706
1765793068882959600,0.700959716796875,9.931148529052734,-0.6057330369949341,-2.4396915435791016
1765793068893000000,0.711,9.904812812805176,-0.6153098344802856,-2.4157495498657227
1765793068902979000,0.72097900390625,9.77791976928711,-0.24660277366638184,-2.2601263523101807
1765793068912989000,0.730989013671875,9.536105155944824,-0.090979665517807,-2.1930887699127197
1765793068922968000,0.740968017578125,9.289502143859863,-0.09816227108240128,-2.229001760482788
1765793068932947200,0.750947265625,9.32302188873291,-0.10295066982507706,-2.2888567447662354
1765793068942987500,0.760987548828125,9.509769439697266,0.08858546614646912,-2.2649147510528564
1765793068952997400,0.770997314453125,9.545681953430176,0.14844051003456116,-2.1547815799713135
1765793068963007200,0.78100732421875,9.567230224609375,-0.035913024097681046,-2.2170307636260986
1765793068973016800,0.791016845703125,9.646238327026367,-0.1867477297782898,-2.4684219360351562
1765793068993036500,0.81103662109375,9.701305389404297,0.1867477297782898,-2.315192937850952
1765793069003046100,0.821046142578125,9.636661529541016,0.2561795711517334,-2.4612393379211426
1765793069013025500,0.831025634765625,9.66539192199707,0.16759411990642548,-2.5689783096313477
1765793069023004700,0.841004638671875,9.658209800720215,-0.08140286058187485,-2.5761611461639404
1765793069033014500,0.8510146484375,9.670180320739746,0.014365210197865963,-2.5737667083740234
1765793069043054800,0.861054931640625,9.765948295593262,0.16998831927776337,-2.4899697303771973
1765793069053064400,0.871064453125,9.658209800720215,0.1867477297782898,-2.6216509342193604
1765793069063043800,0.8810439453125,9.68694019317627,0.3519476354122162,-2.6575639247894287
1765793069073053400,0.891053466796875,9.691728591918945,0.5315127968788147,-2.542642116546631
1765793069082963200,0.900963134765625,9.648633003234863,0.5889736413955688,-2.5761611461639404
1765793069092912000,0.910912109375,9.646238327026367,0.5506663918495178,-2.674323320388794
1765793069102921700,0.920921630859375,9.730035781860352,0.5841852426528931,-2.7485435009002686
1765793069112931600,0.930931640625,9.674968719482422,0.5051765441894531,-2.832340717315674
1765793069122941400,0.94094140625,9.579200744628906,0.45010992884635925,-2.889801502227783
1765793069132951000,0.950950927734375,9.622296333312988,0.5937620401382446,-2.8419175148010254
1765793069142991400,0.960991455078125,9.660603523254395,0.4357447028160095,-2.829946517944336
1765793069163010800,0.9810107421875,9.354146003723145,0.181959331035614,-2.75812029838562
1765793069173020700,0.991020751953125,9.526528358459473,0.47405192255973816,-2.6623523235321045
1765793069183030500,1.001030517578125,9.801861763000488,0.8331822156906128,-2.6623523235321045
1765793069193040100,1.0110400390625,10.093954086303711,0.8188169598579407,-2.6360161304473877
1765793069203019500,1.02101953125,10.122684478759766,0.3256114423274994,-2.6862943172454834
1765793069213029000,1.031029052734375,10.038887977600098,0.1867477297782898,-2.913743495941162
1765793069223039000,1.0410390625,9.794678688049316,0.38546648621559143,-2.8107926845550537
1765793069233048800,1.051048828125,9.617507934570312,0.37828385829925537,-2.734178304672241
1765793069243058400,1.061058349609375,9.373299598693848,0.37828385829925537,-2.8443117141723633
1765793069253007400,1.07100732421875,9.354146003723145,0.3663128614425659,-2.806004285812378
1765793069263017000,1.081016845703125,9.390059471130371,0.5099649429321289,-2.652775526046753
1765793069273057300,1.091057373046875,9.425971984863281,0.40222588181495667,-2.5306711196899414
1765793069283067100,1.101067138671875,9.435548782348633,0.33279404044151306,-2.5043349266052246
1765793069293015800,1.111015869140625,9.435548782348633,0.33279404044151306,-2.5043349266052246
1765793069313035300,1.13103515625,9.591172218322754,0.0694318488240242,-2.6144683361053467
1765793069323045000,1.141045166015625,9.768342971801758,0.28730419278144836,-2.7676970958709717
1765793069333024300,1.151024169921875,9.840168952941895,0.5722141861915588,-2.583343744277954
1765793069343003600,1.161003662109375,9.708487510681152,0.7134721279144287,-2.5761611461639404
1765793069353044000,1.1710439453125,9.57441234588623,0.6967126727104187,-2.6240451335906982
1765793069363053600,1.181053466796875,9.38048267364502,0.608127236366272,-2.676717519760132
1765793069373063400,1.1910634765625,9.29189682006836,0.4189853072166443,-2.6431987285614014
1765793069383042600,1.20104248046875,9.198522567749023,0.42856210470199585,-2.6599581241607666
1765793069393052400,1.211052490234375,9.294290542602539,0.5434837937355042,-2.5929205417633057
1765793069403062300,1.221062255859375,9.404424667358398,0.31842881441116333,-2.4636335372924805
1765793069422990000,1.240989990234375,9.677363395690918,0.38307225704193115,-2.516305923461914
1765793069432969500,1.250969482421875,9.780313491821289,0.28969839215278625,-2.6144683361053467
1765793069443009800,1.261009765625,9.852140426635742,0.23942017555236816,-2.6862943172454834
1765793069453019400,1.271019287109375,9.773131370544434,0.2992752194404602,-2.6431987285614014
1765793069463029200,1.281029296875,9.641449928283691,0.4118026793003082,-2.5761611461639404
1765793069473039000,1.2910390625,9.50498104095459,0.5506663918495178,-2.607285737991333
1765793069483048700,1.301048583984375,9.375694274902344,0.569819986820221,-2.6791117191314697
1765793069493058600,1.31105859375,9.32302188873291,0.6991068720817566,-2.695871114730835
1765793069503068200,1.321068115234375,9.50498104095459,0.6033388376235962,-2.7078421115875244
1765793069523088000,1.341087890625,9.68694019317627,0.3758896589279175,-2.741360902786255
1765793069533067000,1.35106689453125,9.751583099365234,0.47405192255973816,-2.719813108444214
1765793069543107300,1.361107421875,9.758766174316406,0.3878606855869293,-2.7772738933563232
1765793069553117200,1.3711171875,9.670180320739746,0.40701428055763245,-2.719813108444214
1765793069563126800,1.381126708984375,9.715670585632324,0.3687070608139038,-2.691082715988159
1765793069573106200,1.391106201171875,9.658209800720215,0.44771572947502136,-2.7509377002716064
1765793069583115800,1.40111572265625,9.68694019317627,0.5554547905921936,-2.6647465229034424
1765793069593125600,1.411125732421875,9.550470352172852,0.524330198764801,-2.6001031398773193
1765793069603135500,1.421135498046875,9.533711433410645,0.4668693244457245,-2.671929121017456
1765793069613114600,1.431114501953125,9.579200744628906,0.4644751250743866,-2.691082715988159
1765793069633134000,1.451134033203125,9.636661529541016,0.31842881441116333,-2.6623523235321045
1765793069643144000,1.46114404296875,9.615114212036133,0.3734954595565796,-2.7293899059295654
1765793069653153800,1.47115380859375,9.581595420837402,0.29209262132644653,-2.5713725090026855
1765793069663133000,1.4811328125,9.62947940826416,0.3256114423274994,-2.583343744277954
1765793069673142800,1.491142822265625,9.708487510681152,0.40222588181495667,-2.6192567348480225
1765793069683122000,1.501121826171875,9.749189376831055,0.45250412821769714,-2.609679937362671
1765793069693070600,1.511070556640625,9.782708168029785,0.4812345504760742,-2.585737943649292
1765793069703080400,1.52108056640625,9.674968719482422,0.3878606855869293,-2.6168625354766846
1765793069713029000,1.531029052734375,9.653421401977539,0.4189853072166443,-2.6575639247894287
1765793069723069400,1.5410693359375,9.682151794433594,0.3471592366695404,-2.7030537128448486
1765793069743028000,1.561028076171875,9.68694019317627,0.49799394607543945,-2.7222073078155518
1765793069753007400,1.57100732421875,9.627084732055664,0.6512228846549988,-2.5977089405059814
1765793069763047400,1.58104736328125,9.59835433959961,0.6320692300796509,-2.6001031398773193
1765793069773057300,1.591057373046875,9.710882186889648,0.6009446382522583,-2.607285737991333
1765793069783067100,1.601067138671875,9.603142738342285,0.6129156351089478,-2.6839001178741455
1765793069793076700,1.61107666015625,9.63187313079834,0.6991068720817566,-2.63362193107605
1765793069803056000,1.62105615234375,9.605537414550781,0.5793967843055725,-2.5929205417633057
1765793069813065700,1.631065673828125,9.57201862335205,0.3711012601852417,-2.695871114730835
1765793069823075600,1.64107568359375,9.567230224609375,0.31124621629714966,-2.604891538619995
1765793069833054700,1.6510546875,9.619902610778809,0.2059013396501541,-2.5234885215759277
1765793069853013200,1.67101318359375,9.677363395690918,0.4165911078453064,-2.6024973392486572
1765793069863053600,1.681053466796875,9.730035781860352,0.4836287498474121,-2.5115175247192383
1765793069873063400,1.6910634765625,9.643844604492188,0.5386953949928284,-2.5761611461639404
1765793069883073300,1.7010732421875,9.50737476348877,0.6320692300796509,-2.612074136734009
1765793069893052400,1.711052490234375,9.512163162231445,0.6344634294509888,-2.499546527862549
1765793069903062300,1.721062255859375,9.5624418258667,0.44532153010368347,-2.6408045291900635
1765793069913071900,1.73107177734375,9.591172218322754,0.3280056416988373,-2.6839001178741455
1765793069923081700,1.741081787109375,9.727641105651855,0.2801215946674347,-2.6455929279327393
1765793069933091600,1.751091552734375,9.718064308166504,0.24420857429504395,-2.7030537128448486
1765793069963090200,1.781090087890625,9.59835433959961,0.5315127968788147,-2.674323320388794
1765793069973069600,1.791069580078125,9.516951560974121,0.6560112833976746,-2.6839001178741455
1765793069983048700,1.801048583984375,9.552865028381348,0.6847416758537292,-2.626439332962036
1765793069993089000,1.811089111328125,9.442731857299805,0.5961562395095825,-2.612074136734009
1765793070003068200,1.821068115234375,9.531316757202148,0.4429273009300232,-2.631227731704712
1765793070013047600,1.831047607421875,9.514557838439941,0.30885201692581177,-2.734178304672241
1765793070023057400,1.841057373046875,9.600749015808105,0.3734954595565796,-2.7078421115875244
1765793070033006000,1.851006103515625,9.59596061706543,0.7254431247711182,-2.6192567348480225
1765793070062943700,1.88094384765625,9.294290542602539,0.22266076505184174,-2.6024973392486572
1765793070072892400,1.890892333984375,9.440337181091309,0.1604115068912506,-2.5330653190612793
1765793070082902300,1.90090234375,9.59835433959961,0.0933738648891449,-2.6455929279327393
1765793070092912000,1.910912109375,9.794678688049316,0.14365209639072418,-2.655169725418091
1765793070102891300,1.920891357421875,9.799467086791992,0.3064578175544739,-2.63362193107605
1765793070112901000,1.930901123046875,9.81143856048584,0.5051765441894531,-2.6862943172454834
1765793070122910700,1.94091064453125,9.615114212036133,0.5722141861915588,-2.5522189140319824
1765793070132920600,1.950920654296875,9.615114212036133,0.4644751250743866,-2.6791117191314697
1765793070142899700,1.960899658203125,9.66299819946289,0.40222588181495667,-2.715024709701538
1765793070152848600,1.9708486328125,9.708487510681152,0.4381389021873474,-2.7940332889556885
1765793070172807200,1.99080712890625,9.718064308166504,0.4405331015586853,-2.8778305053710938
1765793070182816800,2.000816650390625,9.749189376831055,0.608127236366272,-2.7461493015289307
1765793070192826600,2.01082666015625,9.655815124511719,0.4692635238170624,-2.647987127304077
1765793070202836200,2.020836181640625,9.579200744628906,0.3016694188117981,-2.7988216876983643
1765793070212815600,2.030815673828125,9.600749015808105,0.38067805767059326,-2.7557260990142822
1765793070232835000,2.0508349609375,9.641449928283691,0.4405331015586853,-2.719813108444214
1765793070242845000,2.060844970703125,9.619902610778809,0.44771572947502136,-2.676717519760132
1765793070252854500,2.0708544921875,9.622296333312988,0.47644615173339844,-2.6599581241607666
1765793070272874200,2.090874267578125,9.5624418258667,0.48602294921875,-2.5665841102600098
1765793070282853400,2.100853271484375,9.59596061706543,0.47165772318840027,-2.4396915435791016
1765793070292893700,2.110893798828125,9.59596061706543,0.4141969084739685,-2.5258827209472656
1765793070302903600,2.120903564453125,9.59596061706543,0.44532153010368347,-2.6024973392486572
1765793070312913200,2.1309130859375,9.703699111938477,0.42856210470199585,-2.607285737991333
1765793070322892500,2.140892578125,9.708487510681152,0.3495534360408783,-2.5689783096313477
1765793070332871700,2.15087158203125,9.68694019317627,0.272938996553421,-2.607285737991333
1765793070342881500,2.160881591796875,9.679757118225098,0.2777273952960968,-2.6192567348480225
1765793070352891400,2.170891357421875,9.646238327026367,0.4189853072166443,-2.674323320388794
1765793070372941300,2.19094140625,9.459490776062012,0.47405192255973816,-2.7030537128448486
1765793070382890000,2.200889892578125,9.399636268615723,0.2968810200691223,-2.674323320388794
1765793070392869400,2.210869384765625,9.48343276977539,0.4165911078453064,-2.676717519760132
1765793070402909700,2.22090966796875,9.59596061706543,0.21787235140800476,-2.5905263423919678
1765793070412919300,2.230919189453125,9.610325813293457,0.040701430290937424,-2.650381326675415
1765793070422929200,2.24092919921875,9.497797966003418,-0.05027823522686958,-2.6408045291900635
1765793070432939000,2.25093896484375,9.605537414550781,0.033518824726343155,-2.626439332962036
1765793070442948600,2.260948486328125,9.758766174316406,0.21547815203666687,-2.607285737991333
1765793070452928000,2.270927978515625,9.825803756713867,0.3902548849582672,-2.5665841102600098
1765793070472947500,2.290947509765625,9.660603523254395,0.5770025849342346,-2.6455929279327393
1765793070482957300,2.300957275390625,9.708487510681152,0.5674257874488831,-2.698265314102173
1765793070492936400,2.3109365234375,9.634267807006836,0.3280056416988373,-2.7724854946136475
1765793070502885000,2.320885009765625,9.588777542114258,0.19393034279346466,-2.779668092727661
1765793070512925400,2.330925537109375,9.567230224609375,0.26575639843940735,-2.8227639198303223
1765793070522935300,2.340935302734375,9.564835548400879,0.40222588181495667,-2.7317841053009033
1765793070532914400,2.35091455078125,9.552865028381348,0.363918662071228,-2.7317841053009033
1765793070542924300,2.36092431640625,9.612719535827637,0.31603461503982544,-2.779668092727661
1765793070552934000,2.370933837890625,9.701305389404297,0.3208230137825012,-2.736572504043579
1765793070582902300,2.40090234375,9.761159896850586,0.05267243832349777,-2.7126305103302
1765793070592912100,2.410912109375,9.68933391571045,0.2298433631658554,-2.786850690841675
1765793070602921700,2.420921630859375,9.679757118225098,0.3519476354122162,-2.674323320388794
1765793070612931600,2.430931640625,9.646238327026367,0.3519476354122162,-2.719813108444214
1765793070622910700,2.44091064453125,9.531316757202148,0.3519476354122162,-2.7461493015289307
1765793070642899700,2.460899658203125,9.497797966003418,0.608127236366272,-2.738966703414917
1765793070652940000,2.47093994140625,9.816226959228516,0.6560112833976746,-2.6671407222747803
1765793070682908400,2.500908447265625,9.828198432922363,0.27054479718208313,-2.889801502227783
1765793070692948700,2.51094873046875,9.5408935546875,0.27054479718208313,-2.784456491470337
1765793070702958300,2.520958251953125,9.634267807006836,0.07422025501728058,-2.851494312286377
1765793070712968200,2.53096826171875,9.653421401977539,0.07900865375995636,-2.7748796939849854
1765793070722978000,2.54097802734375,9.742006301879883,0.1604115068912506,-2.6886885166168213
1765793070732987600,2.550987548828125,9.830592155456543,0.1867477297782898,-2.5665841102600098
1765793070742997500,2.56099755859375,9.816226959228516,0.24660277366638184,-2.5785553455352783
1765793070752976600,2.5709765625,9.713275909423828,0.22744916379451752,-2.4684219360351562
1765793070792985300,2.6109853515625,9.648633003234863,0.10295066982507706,-2.5019407272338867
1765793070803025700,2.621025634765625,9.622296333312988,0.05027823522686958,-2.5067291259765625
1765793070813004800,2.6310048828125,9.50737476348877,0.1149216815829277,-2.477998733520508
1765793070823014700,2.6410146484375,9.390059471130371,0.33997663855552673,-2.410961151123047
1765793070833024300,2.651024169921875,9.294290542602539,0.2585737705230713,-2.4612393379211426
1765793070843003600,2.661003662109375,9.255983352661133,0.06703764945268631,-2.456450939178467
1765793070853013200,2.67101318359375,9.332598686218262,0.07422025501728058,-2.3942017555236816
1765793070863023000,2.681023193359375,9.370905876159668,0.1173158809542656,-2.4899697303771973
1765793070873033000,2.691032958984375,9.437943458557129,0.08619125932455063,-2.513911724090576
1765793070883042600,2.70104248046875,9.488221168518066,0.12689268589019775,-2.3989901542663574
1765793070893022000,2.71102197265625,9.478644371032715,0.18914192914962769,-2.4133553504943848
1765793070903001000,2.7210009765625,9.488221168518066,0.33997663855552673,-2.449268341064453
1765793070923020500,2.7410205078125,9.591172218322754,0.40940847992897034,-2.557007312774658
1765793070932969500,2.750969482421875,9.564835548400879,0.26096799969673157,-2.6168625354766846
1765793070942979000,2.76097900390625,9.440337181091309,-0.031124621629714966,-2.7293899059295654
1765793070952958500,2.77095849609375,9.397241592407227,-0.11971008777618408,-2.827552318572998
1765793070962968000,2.780968017578125,9.502586364746094,0.14365209639072418,-2.913743495941162
1765793070972947500,2.790947509765625,9.605537414550781,0.29209262132644653,-2.786850690841675
1765793070982896000,2.800896240234375,9.708487510681152,0.40940847992897034,-2.8203697204589844
1765793071002885000,2.820885009765625,9.806650161743164,0.2561795711517334,-2.846705913543701
1765793071012864500,2.830864501953125,9.816226959228516,0.3423708379268646,-2.8826189041137695
1765793071022874000,2.8408740234375,9.931148529052734,0.24899697303771973,-2.9233202934265137
1765793071032823000,2.850822998046875,9.955090522766113,0.0454898327589035,-2.9257144927978516
1765793071042832600,2.86083251953125,9.955090522766113,0.16998831927776337,-2.9328970909118652
1765793071052873000,2.870873046875,9.888052940368652,0.1843535304069519,-2.7892448902130127
1765793071062882800,2.8808828125,9.84256362915039,0.2561795711517334,-2.6623523235321045
1765793071072862000,2.890862060546875,9.773131370544434,0.26336219906806946,-2.736572504043579
1765793071082871800,2.900871826171875,9.744400978088379,0.22026655077934265,-2.6647465229034424
1765793071102891300,2.920891357421875,9.821015357971191,0.16998831927776337,-2.5953147411346436
1765793071112901000,2.930901123046875,9.703699111938477,0.12210428714752197,-2.6815059185028076
1765793071122880300,2.94088037109375,9.66539192199707,0.20111294090747833,-2.58813214302063
1765793071132920600,2.950920654296875,9.68694019317627,0.10534487664699554,-2.6168625354766846
1765793071142930400,2.960930419921875,9.63187313079834,0.023942016065120697,-2.7317841053009033
1765793071152940000,2.97093994140625,9.627084732055664,-0.038307227194309235,-2.8155810832977295
1765793071162950000,2.980949951171875,9.50737476348877,0.08140286058187485,-2.671929121017456
1765793071172959700,2.990959716796875,9.519346237182617,0.08140286058187485,-2.585737943649292
1765793071182969300,3.00096923828125,9.536105155944824,0.033518824726343155,-2.6216509342193604
1765793071192979200,3.010979248046875,9.516951560974121,0.023942016065120697,-2.7222073078155518
1765793071212937700,3.030937744140625,9.445125579833984,0.07422025501728058,-2.628833532333374
1765793071222947300,3.040947265625,9.493009567260742,-0.0071826050989329815,-2.7269957065582275
1765793071232896300,3.050896240234375,9.493009567260742,-0.0071826050989329815,-2.7269957065582275
1765793071242936300,3.060936279296875,9.555258750915527,-0.24420857429504395,-2.6791117191314697
1765793071252915700,3.070915771484375,9.593565940856934,-0.3016694188117981,-2.7964274883270264
1765793071262925600,3.080925537109375,9.636661529541016,-0.2082955539226532,-2.913743495941162
1765793071272935200,3.09093505859375,9.600749015808105,-0.1628057211637497,-2.8419175148010254
1765793071282914600,3.10091455078125,9.521739959716797,0.038307227194309235,-2.8850131034851074
1765793071292924200,3.110924072265625,9.440337181091309,0.05027823522686958,-2.832340717315674
1765793071302964500,3.120964599609375,9.464279174804688,0.031124621629714966,-2.779668092727661
1765793071312974300,3.130974365234375,9.344569206237793,-0.3064578175544739,-2.580949544906616
1765793071322984000,3.14098388671875,9.605537414550781,-0.49559974670410156,-2.585737943649292
1765793071332993800,3.150993896484375,9.713275909423828,-0.5937620401382446,-2.6599581241607666
1765793071343003600,3.161003662109375,9.641449928283691,-0.586579442024231,-2.5977089405059814
1765793071353013200,3.17101318359375,9.643844604492188,-0.507570743560791,-2.497152328491211
1765793071363023000,3.181023193359375,9.715670585632324,-0.6320692300796509,-2.6240451335906982
1765793071372971800,3.1909716796875,9.835380554199219,-0.4644751250743866,-2.6001031398773193
1765793071382981600,3.200981689453125,9.988609313964844,-0.18914192914962769,-2.628833532333374
1765793071403001000,3.2210009765625,9.998186111450195,-0.15801730751991272,-2.52109432220459
1765793071412949800,3.23094970703125,10.019734382629395,-0.26815059781074524,-2.674323320388794
1765793071422990000,3.240989990234375,9.876082420349121,-0.6631938815116882,-2.5498247146606445
1765793071433000000,3.251,9.80904483795166,-0.8978256583213806,-2.6024973392486572
1765793071443009800,3.261009765625,9.734824180603027,-0.8259995579719543,-2.4229321479797363
1765793071453019400,3.271019287109375,9.823410034179688,-0.4572925269603729,-2.3582887649536133
1765793071462968000,3.280968017578125,9.794678688049316,-0.2346317619085312,-2.2816741466522217
1765793071473008400,3.29100830078125,9.775525093078613,-0.08858546614646912,-2.33913516998291
1765793071483018200,3.301018310546875,9.785101890563965,0.033518824726343155,-2.456450939178467
1765793071493028000,3.311028076171875,9.737217903137207,0.24181437492370605,-2.4875755310058594
1765793071503037700,3.32103759765625,9.725247383117676,0.2585737705230713,-2.3965959548950195
1765793071513047600,3.331047607421875,9.641449928283691,0.2082955539226532,-2.365471363067627
1765793071523026700,3.341026611328125,9.430760383605957,0.10773907601833344,-2.43011474609375
1765793071563035400,3.381035400390625,9.399636268615723,0.363918662071228,-2.6240451335906982
1765793071593003500,3.41100341796875,9.469067573547363,0.36152446269989014,-2.87064790725708
1765793071603013400,3.421013427734375,9.581595420837402,0.1843535304069519,-2.892195701599121
1765793071613023200,3.431023193359375,9.646238327026367,0.05267243832349777,-2.7940332889556885
1765793071623032800,3.44103271484375,9.732429504394531,-0.272938996553421,-2.8371291160583496
1765793071633012200,3.45101220703125,9.80904483795166,-0.23942017555236816,-2.875436305999756
1765793071643021800,3.461021728515625,9.84256362915039,0.1364694982767105,-2.75812029838562
1765793071663041500,3.48104150390625,9.821015357971191,0.05027823522686958,-2.736572504043579
1765793071673020700,3.491020751953125,9.775525093078613,-0.12689268589019775,-2.6671407222747803
1765793071683061000,3.50106103515625,9.80904483795166,-0.2513911724090576,-2.612074136734009
1765793071693070600,3.511070556640625,9.880870819091797,-0.26096799969673157,-2.671929121017456
1765793071703080400,3.52108056640625,9.959878921508789,-0.17477671802043915,-2.671929121017456
1765793071713059800,3.531059814453125,9.938331604003906,0.021547814831137657,-2.47560453414917
1765793071723069400,3.5410693359375,9.806650161743164,0.038307227194309235,-2.3942017555236816
1765793071733079300,3.551079345703125,9.600749015808105,-0.27054479718208313,-2.382230758666992
1765793071743089200,3.561089111328125,9.516951560974121,-0.3734954595565796,-2.4420857429504395
1765793071773026800,3.59102685546875,9.50498104095459,-0.3280056416988373,-2.432508945465088
1765793071782975500,3.6009755859375,9.536105155944824,-0.08619125932455063,-2.3942017555236816
1765793071792954600,3.61095458984375,9.643844604492188,0.004788403399288654,-2.518700122833252
1765793071802964500,3.620964599609375,9.605537414550781,-0.05506663769483566,-2.6192567348480225
1765793071812974300,3.630974365234375,9.718064308166504,-0.1628057211637497,-2.650381326675415
1765793071822984000,3.64098388671875,9.672574996948242,-0.07182604819536209,-2.5761611461639404
1765793071832993800,3.650993896484375,9.643844604492188,-0.304063618183136,-2.6647465229034424
1765793071843003600,3.661003662109375,9.68933391571045,-0.3878606855869293,-2.6455929279327393
1765793071853013200,3.67101318359375,9.684545516967773,-0.30885201692581177,-2.7533318996429443
1765793071873033000,3.691032958984375,9.818621635437012,-0.5171475410461426,-2.6024973392486572
1765793071883042600,3.70104248046875,9.847352027893066,-0.6584054827690125,-2.669534921646118
1765793071892991500,3.710991455078125,9.847352027893066,-0.6584054827690125,-2.669534921646118
1765793071903031600,3.721031494140625,9.904812812805176,-0.6200982332229614,-2.6192567348480225
1765793071913041400,3.73104150390625,9.742006301879883,-0.45489832758903503,-2.652775526046753
1765793071923051300,3.74105126953125,9.68694019317627,-0.2825157940387726,-2.6240451335906982
1765793071933060900,3.751060791015625,9.512163162231445,-0.3064578175544739,-2.583343744277954
1765793071943040300,3.761040283203125,9.425971984863281,-0.3974374830722809,-2.5905263423919678
1765793071953019400,3.771019287109375,9.3828763961792,-0.586579442024231,-2.4827871322631836
1765793071973069600,3.791069580078125,9.394847869873047,-0.40222588181495667,-2.3104045391082764
1765793071983079200,3.8010791015625,9.457097053527832,-0.23702596127986908,-2.2912509441375732
1765793071993089000,3.811089111328125,9.560047149658203,-0.09576806426048279,-2.4420857429504395
1765793072003099000,3.821098876953125,9.703699111938477,-0.05506663769483566,-2.427720546722412
1765793072013078000,3.831078125,9.890447616577148,-0.06224924325942993,-2.561795711517334
1765793072023118300,3.841118408203125,10.007762908935547,-0.090979665517807,-2.650381326675415
1765793072033097500,3.851097412109375,10.067618370056152,-0.14844051003456116,-2.58813214302063
1765793072043137800,3.8611376953125,9.873687744140625,-0.304063618183136,-2.7246015071868896
1765793072053117200,3.8711171875,9.818621635437012,-0.3878606855869293,-2.7222073078155518
1765793072083146500,3.901146484375,9.512163162231445,-0.45010992884635925,-2.691082715988159
1765793072093156000,3.911156005859375,9.536105155944824,-0.40701428055763245,-2.652775526046753
1765793072103166000,3.921166015625,9.430760383605957,-0.3232172429561615,-2.5546131134033203
1765793072113145000,3.93114501953125,9.409213066101074,-0.05506663769483566,-2.492363929748535
1765793072123185400,3.941185302734375,9.454702377319336,-0.002394201699644327,-2.542642116546631
1765793072133164800,3.951164794921875,9.478644371032715,-0.05746084079146385,-2.4660277366638184
1765793072143174400,3.96117431640625,9.600749015808105,-0.2753331959247589,-2.58813214302063
1765793072153184300,3.971184326171875,9.627084732055664,-0.36152446269989014,-2.626439332962036
1765793072163194000,3.981194091796875,9.691728591918945,-0.3423708379268646,-2.58813214302063
1765793072183122000,4.001121826171875,9.586383819580078,-0.47405192255973816,-2.6384103298187256
1765793072203141600,4.0211416015625,9.607931137084961,-0.10295066982507706,-2.6192567348480225
1765793072213120800,4.031120849609375,9.59596061706543,-0.2298433631658554,-2.5761611461639404
1765793072223100000,4.041099853515625,9.670180320739746,-0.2106897532939911,-2.6575639247894287
1765793072233079300,4.051079345703125,9.727641105651855,-0.2322375625371933,-2.6839001178741455
1765793072243089200,4.061089111328125,9.758766174316406,-0.08379705995321274,-2.6599581241607666
1765793072253098800,4.0710986328125,9.75637149810791,-0.272938996553421,-2.561795711517334
1765793072263108600,4.081108642578125,9.775525093078613,-0.45489832758903503,-2.609679937362671
1765793072273087700,4.091087646484375,9.818621635437012,-0.19871874153614044,-2.609679937362671
1765793072283128000,4.101128173828125,9.823410034179688,-0.18914192914962769,-2.676717519760132
1765793072303086600,4.121086669921875,9.679757118225098,-0.35913026332855225,-2.674323320388794
1765793072313096400,4.131096435546875,9.651026725769043,-0.21547815203666687,-2.719813108444214
1765793072323106000,4.14110595703125,9.624691009521484,-0.17477671802043915,-2.5977089405059814
1765793072333054700,4.1510546875,9.612719535827637,-0.12210428714752197,-2.5306711196899414
1765793072343003600,4.161003662109375,9.600749015808105,-0.17956513166427612,-2.5905263423919678
1765793072353013200,4.17101318359375,9.639056205749512,-0.2059013396501541,-2.609679937362671
1765793072363023000,4.181023193359375,9.607931137084961,-0.20350714027881622,-2.564189910888672
1765793072403031600,4.221031494140625,9.670180320739746,-0.40222588181495667,-2.607285737991333
1765793072413041400,4.23104150390625,9.655815124511719,-0.4405331015586853,-2.537853717803955
1765793072423020500,4.2410205078125,9.619902610778809,-0.4213795065879822,-2.5330653190612793
1765793072433030400,4.251030517578125,9.588777542114258,-0.2968810200691223,-2.561795711517334
1765793072443040300,4.261040283203125,9.555258750915527,-0.181959331035614,-2.5091233253479004
1765793072452989000,4.270989013671875,9.512163162231445,-0.026336219161748886,-2.5282769203186035
1765793072462998800,4.280998779296875,9.500192642211914,0.1604115068912506,-2.5665841102600098
1765793072472978000,4.29097802734375,9.514557838439941,0.3064578175544739,-2.559401512145996
1765793072483018200,4.301018310546875,9.509769439697266,0.11971008777618408,-2.492363929748535
1765793072503037700,4.32103759765625,9.569623947143555,-0.047884032130241394,-2.5665841102600098
1765793072513047600,4.331047607421875,9.44752025604248,-0.33279404044151306,-2.516305923461914
1765793072523026700,4.341026611328125,9.519346237182617,-0.12449848651885986,-2.5977089405059814
1765793072533036500,4.35103662109375,9.354146003723145,-0.019153613597154617,-2.4827871322631836
1765793072543046400,4.36104638671875,9.354146003723145,-0.019153613597154617,-2.4827871322631836
1765793072553056000,4.371055908203125,9.38048267364502,0.22744916379451752,-2.4660277366638184
1765793072563065900,4.38106591796875,9.409213066101074,0.16519992053508759,-2.518700122833252
1765793072573075700,4.39107568359375,9.411606788635254,0.22266076505184174,-2.5953147411346436
1765793072593095200,4.41109521484375,9.928754806518555,0.5961562395095825,-2.9951462745666504
1765793072603104800,4.421104736328125,9.99339771270752,0.7182605266571045,-2.9903578758239746
1765793072613053700,4.4310537109375,9.971850395202637,-0.5482721924781799,-2.9305028915405273
1765793072623032800,4.44103271484375,9.813833236694336,-1.4484920501708984,-3.0765492916107178
1765793072633042700,4.451042724609375,9.859322547912598,-1.4532804489135742,-3.0095114707946777
1765793072643052300,4.46105224609375,9.81143856048584,-1.0319008827209473,-2.7222073078155518
1765793072653001200,4.471001220703125,9.804255485534668,-0.47405192255973816,-2.561795711517334
1765793072663010800,4.4810107421875,9.481039047241211,-0.40462008118629456,-2.427720546722412
1765793072673020700,4.491020751953125,9.131484985351562,-0.6368576288223267,-2.346317768096924
1765793072693009700,4.511009765625,8.954314231872559,-0.9672574996948242,-2.5258827209472656
1765793072702989000,4.520989013671875,8.980650901794434,-1.6974890232086182,-2.3582887649536133
1765793072712998700,4.53099853515625,8.769960403442383,-2.6384103298187256,-2.2242133617401123
1765793072723008500,4.541008544921875,8.583212852478027,-2.8443117141723633,-2.030282974243164
1765793072733018000,4.55101806640625,8.796297073364258,-2.7078421115875244,-1.8986018896102905
1765793072743028000,4.561028076171875,8.983044624328613,-2.868253707885742,-1.8387469053268433
1765793072753068300,4.571068359375,8.916007041931152,-2.9544448852539062,-1.9776105880737305
1765793072763078100,4.581078125,9.038111686706543,-2.8586769104003906,-1.8124107122421265
1765793072772996400,4.590996337890625,9.090784072875977,-2.4396915435791016,-1.723825216293335
1765793072783036400,4.601036376953125,9.117119789123535,-1.764526605606079,-1.7357962131500244
1765793072803025700,4.621025634765625,9.11233139038086,-1.5131354331970215,-1.7741034030914307
1765793072813004800,4.6310048828125,9.452308654785156,-1.9560627937316895,-1.889025092124939
1765793072823014700,4.6410146484375,9.581595420837402,-2.3367409706115723,-2.22660756111145
1765793072833024300,4.651024169921875,9.856928825378418,-1.946485996246338,-2.63362193107605
1765793072843034000,4.6610341796875,10.050858497619629,-1.2665326595306396,-2.6024973392486572
1765793072853044000,4.6710439453125,10.462661743164062,-0.8331822156906128,-2.7317841053009033
1765793072863053600,4.681053466796875,10.687716484069824,-0.6512228846549988,-3.0310592651367188
1765793072873002200,4.691002197265625,10.560823440551758,-0.45250412821769714,-3.1052796840667725
1765793072903031600,4.721031494140625,10.453084945678711,0.15801730751991272,-3.2154128551483154
1765793072913041400,4.73104150390625,9.871294021606445,-0.7613561153411865,-3.026270866394043
1765793072923051300,4.74105126953125,9.543288230895996,-1.8124107122421265,-2.9544448852539062
1765793072932969500,4.750969482421875,9.279925346374512,-2.319981336593628,-3.021482467651367
1765793072942948600,4.760948486328125,9.272743225097656,-2.2146365642547607,-2.9257144927978516
1765793072952928000,4.770927978515625,9.464279174804688,-1.845929503440857,-2.612074136734009
1765793072962937600,4.7809375,9.545681953430176,-1.4891934394836426,-2.8658595085144043
1765793072972947500,4.790947509765625,9.617507934570312,-1.3431471586227417,-2.9927520751953125
1765793072982957300,4.800957275390625,9.605537414550781,-1.1300631761550903,-3.00711727142334
1765793073012956000,4.830955810546875,9.694122314453125,-1.05105459690094,-3.0142998695373535
1765793073022996200,4.840996337890625,9.454702377319336,-0.9720458984375,-3.1699230670928955
1765793073032945000,4.85094482421875,9.555258750915527,-0.912190854549408,-3.339911460876465
1765793073042985200,4.860985107421875,9.423578262329102,-0.6847416758537292,-3.1244332790374756
1765793073052995000,4.8709951171875,9.114726066589355,-0.6799532771110535,-2.80361008644104
1765793073063004700,4.881004638671875,9.35654067993164,-0.6560112833976746,-2.9305028915405273
1765793073072984000,4.890984130859375,9.452308654785156,-1.2066776752471924,-2.9735984802246094
1765793073082994000,4.900993896484375,9.246406555175781,-2.0638017654418945,-2.9161376953125
1765793073093003500,4.91100341796875,9.294290542602539,-2.2002713680267334,-2.9161376953125
1765793073132981500,4.9509814453125,9.246406555175781,-1.3742717504501343,-2.6001031398773193
1765793073142991400,4.960991455078125,9.20091724395752,-1.173158884048462,-2.695871114730835
1765793073153001200,4.971001220703125,9.220070838928223,-1.2449848651885986,-2.7676970958709717
1765793073162980400,4.98098046875,9.248801231384277,-1.37906014919281,-2.765302896499634
1765793073172990200,4.990990234375,9.296685218811035,-1.3694833517074585,-2.741360902786255
1765793073182999800,5.000999755859375,9.399636268615723,-1.1324573755264282,-2.6408045291900635
1765793073192979200,5.010979248046875,9.399636268615723,-1.1324573755264282,-2.6408045291900635
1765793073213029000,5.031029052734375,9.564835548400879,-1.0103530883789062,-2.9065608978271484
1765793073233048800,5.051048828125,9.734824180603027,-0.6512228846549988,-3.064578056335449
1765793073243058400,5.061058349609375,9.770736694335938,-0.6440402865409851,-3.134010076522827
1765793073253068300,5.071068359375,9.730035781860352,-0.7206547260284424,-3.066972494125366
1765793073263078100,5.081078125,9.691728591918945,-0.6607996821403503,-3.071760892868042
1765793073273087700,5.091087646484375,9.519346237182617,-0.790086567401886,-2.9951462745666504
1765793073283097600,5.10109765625,9.32541561126709,-1.3239935636520386,-2.7988216876983643
1765793073293107500,5.111107421875,9.263166427612305,-1.5442601442337036,-2.765302896499634
1765793073303117000,5.121116943359375,9.533711433410645,-1.259350061416626,-2.7437551021575928
1765793073323136500,5.141136474609375,9.720458984375,-1.161187767982483,-2.734178304672241
1765793073333085400,5.15108544921875,9.86889934539795,-1.1563993692398071,-2.7964274883270264
1765793073343034000,5.1610341796875,9.77791976928711,-1.522712230682373,-2.6886885166168213
1765793073353074400,5.171074462890625,9.818621635437012,-1.6208745241165161,-2.832340717315674
1765793073363084000,5.181083984375,9.832986831665039,-1.5682021379470825,-2.7078421115875244
1765793073373033000,5.191032958984375,9.787496566772461,-1.625662922859192,-2.6216509342193604
1765793073383012000,5.20101220703125,9.823410034179688,-1.7357962131500244,-2.6240451335906982
1765793073393022000,5.21102197265625,9.739612579345703,-1.6831238269805908,-2.5330653190612793
1765793073403031600,5.221031494140625,9.888052940368652,-1.6927006244659424,-2.4851813316345215
1765793073423020500,5.2410205078125,10.005369186401367,-1.0797849893569946,-2.4827871322631836
1765793073433060900,5.251060791015625,9.93354320526123,-1.072602391242981,-2.604891538619995
1765793073453019400,5.271019287109375,10.08198356628418,-1.158793568611145,-2.956839084625244
1765793073463059700,5.281059814453125,9.770736694335938,-1.1827356815338135,-2.9017724990844727
1765793073473069600,5.291069580078125,9.600749015808105,-1.403002142906189,-2.892195701599121
1765793073483079200,5.3010791015625,9.349357604980469,-1.4700398445129395,-2.940079689025879
1765793073493028000,5.311028076171875,9.138668060302734,-1.5538369417190552,-2.985569477081299
1765793073503007200,5.32100732421875,9.040505409240723,-1.5849615335464478,-2.999934673309326
1765793073532975600,5.3509755859375,9.14585018157959,-1.280897855758667,-3.1052796840667725
1765793073543015700,5.361015625,9.251194953918457,-1.3215993642807007,-3.023876667022705
1765793073553025500,5.371025634765625,9.299078941345215,-1.5131354331970215,-3.0550012588500977
1765793073563035400,5.381035400390625,9.366117477416992,-1.53707754611969,-3.0597896575927734
1765793073573045000,5.391044921875,9.555258750915527,-1.2832920551300049,-3.1292216777801514
1765793073583054800,5.401054931640625,9.8784761428833,-1.05105459690094,-3.043030261993408
1765793073593034000,5.411033935546875,9.93593692779541,-0.9624691009521484,-3.050212860107422
1765793073603043800,5.4210439453125,9.962273597717285,-1.1061211824417114,-3.0142998695373535
1765793073612992500,5.430992431640625,9.876082420349121,-1.2952631711959839,-2.96162748336792
1765793073633042700,5.451042724609375,9.615114212036133,-1.2521674633026123,-2.8874073028564453
1765793073643052300,5.46105224609375,9.63187313079834,-1.1803414821624756,-3.0550012588500977
1765793073653062100,5.471062255859375,9.59596061706543,-0.9672574996948242,-2.985569477081299
1765793073663072000,5.481072021484375,9.603142738342285,-1.1276689767837524,-3.0095114707946777
1765793073673081600,5.49108154296875,9.454702377319336,-1.2330138683319092,-3.181894063949585
1765793073683091500,5.501091552734375,9.442731857299805,-1.2545616626739502,-3.026270866394043
1765793073693070600,5.511070556640625,9.567230224609375,-1.4748282432556152,-3.0119056701660156
1765793073703080400,5.52108056640625,9.564835548400879,-1.577778935432434,-3.0885202884674072
1765793073713090300,5.53109033203125,9.90241813659668,-1.2066776752471924,-3.1076738834381104
1765793073743119600,5.56111962890625,9.30386734008789,-0.7709329724311829,-3.339911460876465
1765793073753160000,5.571159912109375,9.188945770263672,-0.7781155705451965,-3.2106244564056396
1765793073763169500,5.58116943359375,9.30386734008789,-1.0223240852355957,-3.332728862762451
1765793073773179400,5.591179443359375,9.576807022094727,-1.0223240852355957,-3.292027235031128
1765793073783189200,5.601189208984375,9.5408935546875,-1.1228805780410767,-2.980781078338623
1765793073793168400,5.61116845703125,9.531316757202148,-1.3838485479354858,-2.9328970909118652
1765793073803178200,5.62117822265625,9.397241592407227,-1.3718775510787964,-2.9927520751953125
1765793073833116000,5.651115966796875,9.509769439697266,-1.091755986213684,-2.7940332889556885
1765793073843125800,5.661125732421875,9.457097053527832,-1.2066776752471924,-2.9281086921691895
1765793073853074400,5.671074462890625,9.457097053527832,-1.2066776752471924,-2.9281086921691895
1765793073863053600,5.681053466796875,9.346963882446289,-1.1300631761550903,-2.913743495941162
1765793073873094000,5.691093994140625,9.313444137573242,-0.993593692779541,-2.9161376953125
1765793073883103700,5.701103759765625,9.35893440246582,-1.0007762908935547,-2.9089550971984863
1765793073893113300,5.71111328125,9.531316757202148,-1.0630255937576294,-3.002328872680664
1765793073903092700,5.7210927734375,9.646238327026367,-0.8427590131759644,-2.96162748336792
1765793073923112200,5.7411123046875,9.545681953430176,-0.9696516990661621,-2.851494312286377
1765793073933122000,5.7511220703125,9.437943458557129,-1.0223240852355957,-2.7892448902130127
1765793073943131600,5.761131591796875,9.461885452270508,-1.2042834758758545,-2.7246015071868896
1765793073953111000,5.771111083984375,9.576807022094727,-1.436521053314209,-2.738966703414917
1765793073963120600,5.78112060546875,9.603142738342285,-1.3623007535934448,-2.7006595134735107
1765793073973039000,5.7910390625,9.66539192199707,-1.5418659448623657,-2.6886885166168213
1765793073983079200,5.8010791015625,9.727641105651855,-1.4245500564575195,-2.7940332889556885
1765793073993089000,5.811089111328125,9.57441234588623,-1.1683704853057861,-2.7964274883270264
1765793074003099000,5.821098876953125,9.634267807006836,-0.9528923034667969,-2.896984100341797
1765793074013108500,5.8311083984375,9.639056205749512,-0.8882488012313843,-2.734178304672241
1765793074023118300,5.841118408203125,9.545681953430176,-1.1899182796478271,-2.827552318572998
1765793074043137800,5.8611376953125,9.586383819580078,-1.216254472732544,-2.7772738933563232
1765793074053117200,5.8711171875,9.32541561126709,-1.3263877630233765,-2.655169725418091
1765793074063157500,5.881157470703125,9.636661529541016,-1.3072341680526733,-2.7988216876983643
1765793074073136600,5.89113671875,9.593565940856934,-1.173158884048462,-2.875436305999756
1765793074083146500,5.901146484375,9.655815124511719,-0.8595184087753296,-2.7916390895843506
1765793074093156000,5.911156005859375,9.68933391571045,-0.6799532771110535,-2.849100112915039
1765793074113175800,5.93117578125,9.363722801208496,-1.4413094520568848,-2.7772738933563232
1765793074123216000,5.9412158203125,9.418789863586426,-1.3910311460494995,-2.894589900970459
1765793074143174400,5.96117431640625,9.818621635437012,-1.3407529592514038,-2.8610711097717285
1765793074163224600,5.981224609375,9.770736694335938,-1.2856862545013428,-2.80361008644104
1765793074173234200,5.991234130859375,9.591172218322754,-1.1635819673538208,-2.784456491470337
1765793074183213600,6.001213623046875,9.59835433959961,-0.912190854549408,-2.806004285812378
1765793074193192700,6.011192626953125,9.605537414550781,-0.6248866319656372,-2.7461493015289307
1765793074203202600,6.02120263671875,9.497797966003418,-0.8236053586006165,-2.8562827110290527
1765793074213151200,6.031151123046875,9.59596061706543,-1.0103530883789062,-2.849100112915039
1765793074223161000,6.0411611328125,9.41639518737793,-1.194706678390503,-2.8371291160583496
1765793074233140200,6.05114013671875,9.29189682006836,-1.501164436340332,-2.559401512145996
1765793074263108600,6.081108642578125,9.306262016296387,-1.41257905960083,-2.427720546722412
1765793074273118200,6.0911181640625,9.346963882446289,-1.4413094520568848,-2.5019407272338867
1765793074283128000,6.101128173828125,9.275136947631836,-1.381454348564148,-2.583343744277954
1765793074293138000,6.111137939453125,9.337387084960938,-1.5322890281677246,-2.5474305152893066
1765793074303147500,6.1211474609375,9.387664794921875,-1.6328455209732056,-2.647987127304077
1765793074313127000,6.131126953125,9.366117477416992,-1.4724340438842773,-2.671929121017456
1765793074323167200,6.141167236328125,9.512163162231445,-1.194706678390503,-2.580949544906616
1765793074333176800,6.1511767578125,9.481039047241211,-1.2186486721038818,-2.6671407222747803
1765793074343186700,6.161186767578125,9.440337181091309,-1.2018892765045166,-2.652775526046753
1765793074363206100,6.1812060546875,9.44752025604248,-1.3287819623947144,-2.5450363159179688
1765793074373154800,6.19115478515625,9.622296333312988,-1.3982137441635132,-2.6216509342193604
1765793074383164700,6.20116455078125,9.684545516967773,-1.5083470344543457,-2.6815059185028076
1765793074393174500,6.211174560546875,9.639056205749512,-1.5083470344543457,-2.7485435009002686
1765793074403184000,6.22118408203125,9.636661529541016,-1.3215993642807007,-2.6431987285614014
1765793074413163500,6.23116357421875,9.751583099365234,-0.9720458984375,-2.80361008644104
1765793074423173400,6.24117333984375,9.66539192199707,-0.8427590131759644,-2.647987127304077
1765793074433183000,6.251182861328125,9.583989143371582,-0.9792284965515137,-2.7676970958709717
1765793074443192800,6.26119287109375,9.516951560974121,-1.0773907899856567,-2.741360902786255
1765793074463181800,6.281181884765625,9.6989107131958,-1.1037269830703735,-2.609679937362671
1765793074473222100,6.29122216796875,9.567230224609375,-1.3646949529647827,-2.691082715988159
1765793074483231700,6.301231689453125,9.627084732055664,-1.3910311460494995,-2.741360902786255
1765793074493211100,6.311211181640625,9.57441234588623,-1.3239935636520386,-2.669534921646118
1765793074503251500,6.32125146484375,9.564835548400879,-1.235408067703247,-2.5929205417633057
1765793074513261000,6.331260986328125,9.564835548400879,-1.235408067703247,-2.5929205417633057
1765793074523271000,6.34127099609375,9.550470352172852,-1.1755530834197998,-2.580949544906616
1765793074533219600,6.351219482421875,9.536105155944824,-1.0271124839782715,-2.674323320388794
1765793074543260000,6.361260009765625,9.478644371032715,-1.0462661981582642,-2.715024709701538
1765793074553269800,6.371269775390625,9.435548782348633,-1.2210428714752197,-2.7102363109588623
1765793074573289200,6.391289306640625,9.493009567260742,-1.1994950771331787,-2.801215887069702
1765793074583268400,6.401268310546875,9.512163162231445,-0.993593692779541,-2.8395233154296875
1765793074593278200,6.4112783203125,9.459490776062012,-0.9409212470054626,-2.8227639198303223
1765793074603288000,6.4212880859375,9.481039047241211,-0.8762778043746948,-2.9041666984558105
1765793074613297700,6.431297607421875,9.509769439697266,-0.9289502501487732,-2.9161376953125
1765793074623307500,6.4413076171875,9.461885452270508,-1.137245774269104,-2.8993782997131348
1765793074633256200,6.451256103515625,9.524134635925293,-1.3646949529647827,-2.980781078338623
1765793074643296500,6.461296630859375,9.653421401977539,-1.501164436340332,-2.956839084625244
1765793074653306400,6.471306396484375,9.749189376831055,-1.3982137441635132,-2.851494312286377
1765793074683305200,6.50130517578125,9.6989107131958,-1.400607943534851,-2.9161376953125
1765793074693254000,6.51125390625,9.516951560974121,-1.4939818382263184,-2.920926094055176
1765793074703263500,6.521263427734375,9.646238327026367,-1.5203180313110352,-2.918531894683838
1765793074713273300,6.5312734375,9.454702377319336,-1.678335428237915,-2.6815059185028076
1765793074723283200,6.541283203125,9.57201862335205,-1.577778935432434,-2.583343744277954
1765793074733292800,6.551292724609375,9.555258750915527,-1.4891934394836426,-2.5953147411346436
1765793074743302700,6.561302734375,9.48343276977539,-1.414973258972168,-2.6431987285614014
1765793074753343000,6.571343017578125,9.375694274902344,-1.4748282432556152,-2.5689783096313477
1765793074763352600,6.5813525390625,9.378087997436523,-1.3192051649093628,-2.434903144836426
1765793074793321000,6.611321044921875,9.435548782348633,-1.3910311460494995,-2.494758129119873
1765793074803361300,6.621361328125,9.38048267364502,-1.6735470294952393,-2.492363929748535
1765793074813371100,6.63137109375,9.418789863586426,-1.7334020137786865,-2.5091233253479004
1765793074823319800,6.64131982421875,9.47146224975586,-1.7501614093780518,-2.497152328491211
1765793074833360100,6.651360107421875,9.569623947143555,-1.5825673341751099,-2.513911724090576
1765793074843369700,6.66136962890625,9.641449928283691,-1.3766659498214722,-2.6168625354766846
1765793074853318400,6.671318359375,9.639056205749512,-1.3024457693099976,-2.513911724090576
1765793074863358700,6.681358642578125,9.528923034667969,-1.2066776752471924,-2.6144683361053467
1765793074873368600,6.69136865234375,9.497797966003418,-1.357512354850769,-2.674323320388794
1765793074883378400,6.70137841796875,9.521739959716797,-1.4437036514282227,-2.760514497756958
1765793074893388000,6.711387939453125,9.646238327026367,-1.403002142906189,-2.806004285812378
1765793074903367400,6.721367431640625,9.780313491821289,-1.1635819673538208,-2.8179752826690674
1765793074913316000,6.731316162109375,9.81143856048584,-1.1276689767837524,-2.765302896499634
1765793074923326000,6.741325927734375,9.718064308166504,-1.1037269830703735,-2.8179752826690674
1765793074933305000,6.75130517578125,9.641449928283691,-1.1827356815338135,-2.8802247047424316
1765793074943284200,6.7612841796875,9.5408935546875,-1.4197616577148438,-2.82515811920166
1765793074953324500,6.771324462890625,9.495404243469238,-1.3096283674240112,-2.8610711097717285
1765793074963334400,6.78133447265625,9.560047149658203,-1.316810965538025,-2.782062292098999
1765793074973313500,6.7913134765625,9.667786598205566,-1.139639973640442,-2.8371291160583496
1765793074983293000,6.80129296875,9.732429504394531,-1.2066776752471924,-2.8443117141723633
1765793074993272000,6.81127197265625,9.674968719482422,-1.4987702369689941,-2.7676970958709717
1765793075003282000,6.821281982421875,9.643844604492188,-1.1851298809051514,-2.7054479122161865
1765793075013261000,6.831260986328125,9.646238327026367,-1.2282254695892334,-2.650381326675415
1765793075023271000,6.84127099609375,9.528923034667969,-1.2641384601593018,-2.612074136734009
1765793075033250000,6.85125,9.564835548400879,-1.1085153818130493,-2.6384103298187256
1765793075043260000,6.861260009765625,9.48343276977539,-1.1851298809051514,-2.6144683361053467
1765793075053269800,6.871269775390625,9.452308654785156,-1.0199298858642578,-2.698265314102173
1765793075063279400,6.881279296875,9.521739959716797,-1.0247182846069336,-2.6216509342193604
1765793075073258800,6.8912587890625,9.564835548400879,-1.0103530883789062,-2.671929121017456
1765793075103288000,6.9212880859375,9.81143856048584,-0.6991068720817566,-2.674323320388794
1765793075113267200,6.93126708984375,9.775525093078613,-0.7948749661445618,-2.801215887069702
1765793075123277000,6.941277099609375,9.543288230895996,-1.1013327836990356,-2.8993782997131348
1765793075133286700,6.95128662109375,9.425971984863281,-1.137245774269104,-2.9065608978271484
1765793075143296500,6.961296630859375,9.35893440246582,-0.9600749015808105,-2.873042106628418
1765793075153245200,6.9712451171875,9.373299598693848,-0.8978256583213806,-2.779668092727661
1765793075163255000,6.981255126953125,9.373299598693848,-0.8978256583213806,-2.779668092727661
1765793075173265000,6.991264892578125,9.32541561126709,-0.790086567401886,-2.8802247047424316
1765793075213303800,7.0313037109375,9.50498104095459,-0.7876923680305481,-2.9544448852539062
1765793075223313700,7.041313720703125,9.531316757202148,-0.8547300100326538,-3.021482467651367
1765793075233262300,7.051262451171875,9.473855972290039,-0.9217676520347595,-2.999934673309326
1765793075243272200,7.061272216796875,9.370905876159668,-0.7829039692878723,-3.069366693496704
1765793075253251300,7.071251220703125,9.220070838928223,-0.6847416758537292,-2.9712042808532715
1765793075263230700,7.081230712890625,9.184157371520996,-0.6200982332229614,-3.023876667022705
1765793075273240300,7.091240234375,9.251194953918457,-1.0007762908935547,-2.9903578758239746
1765793075303269600,7.12126953125,9.57201862335205,-1.0534487962722778,-3.0765492916107178
1765793075313249000,7.1312490234375,9.823410034179688,-1.0893617868423462,-3.2345664501190186
1765793075323258600,7.141258544921875,10.06043529510498,-0.8331822156906128,-3.2297780513763428
1765793075333238000,7.151238037109375,10.089165687561035,-0.5099649429321289,-3.1052796840667725
1765793075343247600,7.16124755859375,9.880870819091797,-0.21547815203666687,-3.1100680828094482
1765793075353257500,7.171257568359375,9.684545516967773,-0.17238251864910126,-2.937685489654541
1765793075363267300,7.181267333984375,9.442731857299805,-0.047884032130241394,-2.8826189041137695
1765793075373277000,7.19127685546875,9.375694274902344,-0.2968810200691223,-2.7772738933563232
1765793075403306200,7.22130615234375,9.188945770263672,-0.7134721279144287,-2.719813108444214
1765793075413316000,7.231316162109375,9.026140213012695,-0.8164227604866028,-2.779668092727661
1765793075423326000,7.241325927734375,9.066842079162598,-0.7182605266571045,-2.7054479122161865
1765793075433335600,7.25133544921875,9.066842079162598,-0.6607996821403503,-2.6360161304473877
1765793075443345400,7.261345458984375,9.227252960205078,-0.7086837291717529,-2.7054479122161865
1765793075453294000,7.271294189453125,9.363722801208496,-0.6871358752250671,-2.7006595134735107
1765793075463273500,7.2812734375,9.406818389892578,-0.6943184733390808,-2.698265314102173
1765793075473283000,7.291282958984375,9.418789863586426,-0.6727706789970398,-2.75812029838562
1765793075483293000,7.30129296875,9.433155059814453,-0.5219359993934631,-2.765302896499634
1765793075513291800,7.331291748046875,9.308655738830566,-1.115697979927063,-2.983175277709961
1765793075523301400,7.34130126953125,9.57441234588623,-0.9002198576927185,-3.004723072052002
1765793075533280800,7.35128076171875,9.3828763961792,-0.8236053586006165,-2.9089550971984863
1765793075543290400,7.361290283203125,9.385271072387695,-0.8571242094039917,-2.918531894683838
1765793075553300200,7.37130029296875,9.473855972290039,-0.8212111592292786,-3.0526070594787598
1765793075563310000,7.38131005859375,9.440337181091309,-0.7733271718025208,-3.1196448802948
1765793075573319700,7.391319580078125,9.313444137573242,-0.7757213711738586,-2.9951462745666504
1765793075583299000,7.401299072265625,9.306262016296387,-1.0749965906143188,-2.935291290283203
1765793075593278200,7.4112783203125,9.452308654785156,-1.0079588890075684,-3.07415509223938
1765793075613297700,7.431297607421875,9.639056205749512,-0.4668693244457245,-2.7772738933563232
1765793075623277000,7.441277099609375,9.607931137084961,-0.5937620401382446,-2.80361008644104
1765793075633256200,7.451256103515625,9.591172218322754,-0.8140285611152649,-2.695871114730835
1765793075643266000,7.46126611328125,9.583989143371582,-1.2641384601593018,-2.765302896499634
1765793075653214700,7.471214599609375,9.765948295593262,-1.2952631711959839,-2.851494312286377
1765793075663255000,7.481255126953125,9.86889934539795,-1.0654197931289673,-2.7102363109588623
1765793075673234200,7.491234130859375,10.002974510192871,-0.828393816947937,-2.674323320388794
1765793075683274500,7.5012744140625,9.959878921508789,-0.8834604024887085,-2.7078421115875244
1765793075693284400,7.511284423828125,9.897629737854004,-0.9792284965515137,-2.7748796939849854
1765793075703294200,7.521294189453125,9.706093788146973,-1.0749965906143188,-2.7940332889556885
1765793075723283200,7.541283203125,9.368511199951172,-1.091755986213684,-2.736572504043579
1765793075733292800,7.551292724609375,9.327810287475586,-1.1899182796478271,-2.7916390895843506
1765793075743302700,7.561302734375,9.454702377319336,-1.0342950820922852,-2.846705913543701
1765793075753343000,7.571343017578125,9.59596061706543,-0.8140285611152649,-2.671929121017456
1765793075763352600,7.5813525390625,9.560047149658203,-0.7398083209991455,-2.762908697128296
1765793075773332000,7.59133203125,9.555258750915527,-0.7781155705451965,-2.8658595085144043
1765793075783311000,7.60131103515625,9.464279174804688,-1.0007762908935547,-2.913743495941162
1765793075793321000,7.611321044921875,9.368511199951172,-1.3766659498214722,-3.00711727142334
1765793075803330800,7.621330810546875,9.366117477416992,-1.6328455209732056,-3.098097085952759
1765793075833360100,7.651360107421875,9.41400146484375,-1.3862427473068237,-3.114856481552124
1765793075843369700,7.66136962890625,9.421183586120605,-1.039083480834961,-2.9472622871398926
1765793075853318400,7.671318359375,9.361329078674316,-0.7230489253997803,-2.8993782997131348
1765793075863328300,7.681328369140625,9.346963882446289,-0.5386953949928284,-2.9735984802246094
1765793075873307600,7.6913076171875,9.184157371520996,-0.6799532771110535,-2.942473888397217
1765793075883347700,7.70134765625,9.217676162719727,-1.4221558570861816,-2.7006595134735107
1765793075893327000,7.7113271484375,9.32541561126709,-1.8363527059555054,-2.8562827110290527
1765793075903306200,7.72130615234375,9.363722801208496,-1.8052281141281128,-2.75812029838562
1765793075913316000,7.731316162109375,9.684545516967773,-1.525106430053711,-2.535459518432617
1765793075933274600,7.751274658203125,9.823410034179688,-1.2856862545013428,-2.3965959548950195
1765793075943284200,7.7612841796875,9.821015357971191,-1.316810965538025,-2.3487119674682617
1765793075953263600,7.771263671875,9.921571731567383,-1.766920804977417,-2.27209734916687
1765793075963304000,7.781303955078125,9.859322547912598,-1.9967641830444336,-2.3511061668395996
1765793075973313500,7.7913134765625,10.007762908935547,-2.0039467811584473,-2.252943754196167
1765793075993302500,7.811302490234375,10.08198356628418,-1.7932571172714233,-2.248155355453491
1765793076003342800,7.8213427734375,10.122684478759766,-1.6112977266311646,-2.183511972427368
1765793076013291800,7.831291748046875,10.08198356628418,-1.6184803247451782,-2.2433669567108154
1765793076033311200,7.851311279296875,9.9000244140625,-1.8195933103561401,-2.2697031497955322
1765793076043320800,7.86132080078125,9.75637149810791,-1.8794482946395874,-2.389413356781006
1765793076053330700,7.87133056640625,9.651026725769043,-1.8052281141281128,-2.4013843536376953
1765793076063340500,7.881340576171875,9.691728591918945,-1.625662922859192,-2.293645143508911
1765793076073350100,7.89135009765625,9.670180320739746,-1.50355863571167,-2.3104045391082764
1765793076083360000,7.901360107421875,9.653421401977539,-1.4437036514282227,-2.33913516998291
1765793076093339400,7.91133935546875,9.639056205749512,-1.501164436340332,-2.248155355453491
1765793076103349000,7.921348876953125,9.588777542114258,-1.8100165128707886,-2.2888567447662354
1765793076113358800,7.93135888671875,9.442731857299805,-1.7525556087493896,-2.274491548538208
1765793076163316000,7.98131591796875,9.435548782348633,-1.6735470294952393,-2.1499931812286377
1765793076173325800,7.991325927734375,9.363722801208496,-1.7693150043487549,-2.1763293743133545
1765793076183305200,8.00130517578125,9.368511199951172,-2.0925323963165283,-2.188300371170044
1765793076193314800,8.011314697265625,9.473855972290039,-2.0661959648132324,-2.279279947280884
1765793076203324700,8.02132470703125,9.461885452270508,-1.8387469053268433,-2.3319525718688965
1765793076213334300,8.031334228515625,9.617507934570312,-1.723825216293335,-2.3032219409942627
1765793076223344000,8.04134423828125,9.670180320739746,-1.678335428237915,-2.3535003662109375
1765793076253312500,8.0713125,9.469067573547363,-1.3838485479354858,-2.2457611560821533
1765793076263322000,8.081322021484375,9.433155059814453,-1.3287819623947144,-2.410961151123047
1765793076273301500,8.091301513671874,9.617507934570312,-1.2018892765045166,-2.38462495803833
1765793076283341800,8.101341796875,9.658209800720215,-1.292868971824646,-2.2912509441375732
1765793076293351400,8.111351318359375,9.813833236694336,-1.4532804489135742,-2.38462495803833
1765793076303361300,8.121361328125,9.703699111938477,-1.721431016921997,-2.2864625453948975
1765793076313340400,8.13134033203125,9.696516990661621,-1.6831238269805908,-2.233790159225464
1765793076323380700,8.141380615234375,9.607931137084961,-1.680729627609253,-2.1787235736846924
1765793076333390600,8.151390625,9.976638793945312,-1.7549498081207275,-2.27209734916687
1765793076353379600,8.171379638671874,10.113107681274414,-1.8195933103561401,-2.3080103397369385
1765793076363389400,8.181389404296874,10.007762908935547,-1.6424223184585571,-2.252943754196167
1765793076373338000,8.191338134765624,9.761159896850586,-1.3958195447921753,-2.078166961669922
1765793076383378400,8.20137841796875,9.691728591918945,-1.436521053314209,-2.205059766769409
1765793076393388000,8.211387939453125,9.548076629638672,-1.5203180313110352,-2.209848165512085
1765793076403398000,8.22139794921875,9.672574996948242,-1.460463047027588,-2.2840683460235596
1765793076413346600,8.2313466796875,9.627084732055664,-1.5538369417190552,-2.1332337856292725
1765793076423356400,8.2413564453125,9.605537414550781,-1.742978811264038,-2.1164743900299072
1765793076433305000,8.25130517578125,9.526528358459473,-1.6112977266311646,-2.097320795059204
1765793076443315000,8.26131494140625,9.531316757202148,-1.5634137392044067,-2.121262788772583
1765793076483353900,8.301353759765625,9.524134635925293,-1.5634137392044067,-2.054224967956543
1765793076493363700,8.31136376953125,9.555258750915527,-1.5897499322891235,-2.0470423698425293
1765793076503373600,8.32137353515625,9.543288230895996,-1.7501614093780518,-2.099714994430542
1765793076513322200,8.331322265625,9.603142738342285,-1.941697597503662,-2.1763293743133545
1765793076523331800,8.341331787109375,9.674968719482422,-1.9728221893310547,-2.2457611560821533
1765793076533311200,8.351311279296874,9.715670585632324,-1.723825216293335,-2.1380221843719482
1765793076543351600,8.3613515625,9.706093788146973,-1.460463047027588,-1.9800047874450684
1765793076553361200,8.371361083984375,9.639056205749512,-1.5514427423477173,-2.0590133666992188
1765793076583390500,8.401390380859375,9.797073364257812,-1.7956513166427612,-2.166752576828003
1765793076603410200,8.42141015625,9.84495735168457,-1.460463047027588,-2.0470423698425293
1765793076613419800,8.431419677734375,9.854534149169922,-1.647210717201233,-2.185906171798706
1765793076623429600,8.4414296875,9.806650161743164,-1.6112977266311646,-2.1978771686553955
1765793076633439500,8.451439453125,9.785101890563965,-1.53707754611969,-2.142810583114624
1765793076643449000,8.461448974609375,9.715670585632324,-1.6831238269805908,-2.0805611610412598
1765793076653459000,8.471458984375,9.763554573059082,-1.8195933103561401,-2.1811177730560303
1765793076663438000,8.48143798828125,9.739612579345703,-1.7932571172714233,-2.1356279850006104
1765793076703416000,8.521416015625,9.90241813659668,-1.625662922859192,-2.185906171798706
1765793076713426000,8.531426025390624,9.80904483795166,-1.6711528301239014,-2.0805611610412598
1765793076723435800,8.541435791015624,9.715670585632324,-1.5897499322891235,-2.030282974243164
1765793076733384400,8.551384521484374,9.646238327026367,-1.6280571222305298,-2.006340980529785
1765793076743394300,8.561394287109374,9.677363395690918,-1.5682021379470825,-1.9608511924743652
1765793076753434400,8.571434326171875,9.768342971801758,-1.4437036514282227,-1.8962076902389526
1765793076763444200,8.5814443359375,9.775525093078613,-1.4772224426269531,-1.8579005002975464
1765793076783463700,8.601463623046875,9.6989107131958,-1.6065093278884888,-2.030282974243164
1765793076793473500,8.6114736328125,9.615114212036133,-1.845929503440857,-1.9967641830444336
1765793076803483400,8.6214833984375,9.57441234588623,-1.843535304069519,-1.9297266006469727
1765793076813493000,8.631492919921875,9.617507934570312,-1.7118542194366455,-1.9393033981323242
1765793076823502800,8.6415029296875,9.701305389404297,-1.4772224426269531,-1.944091796875
1765793076833512700,8.6515126953125,9.548076629638672,-1.4437036514282227,-1.9273324012756348
1765793076843522300,8.661522216796875,9.62947940826416,-1.6376339197158813,-1.8914192914962769
1765793076853471200,8.67147119140625,9.617507934570312,-1.5275006294250488,-1.941697597503662
1765793076883500300,8.701500244140625,9.437943458557129,-1.4484920501708984,-1.889025092124939
1765793076893479700,8.711479736328124,9.524134635925293,-1.5131354331970215,-1.9800047874450684
1765793076903489500,8.721489501953124,9.531316757202148,-1.6352397203445435,-2.049436569213867
1765793076913499100,8.7314990234375,9.583989143371582,-1.7812861204147339,-2.03507137298584
1765793076923509000,8.741509033203124,9.476250648498535,-1.8746598958969116,-2.0925323963165283
1765793076933518600,8.7515185546875,9.363722801208496,-1.7932571172714233,-2.1308395862579346
1765793076943498000,8.761498046875,9.282320022583008,-1.778891921043396,-2.03507137298584
1765793076953507800,8.7715078125,9.327810287475586,-1.6855180263519287,-2.070984363555908
1765793076963517400,8.781517333984375,9.442731857299805,-1.577778935432434,-1.9823989868164062
1765793077013474800,8.831474853515624,9.473855972290039,-1.400607943534851,-2.03507137298584
1765793077023454000,8.841453857421875,9.457097053527832,-1.3838485479354858,-2.056619167327881
1765793077033463800,8.8514638671875,9.583989143371582,-1.3000515699386597,-2.0374655723571777
1765793077043473700,8.8614736328125,9.648633003234863,-1.235408067703247,-1.8842366933822632
1765793077053483300,8.871483154296875,9.696516990661621,-1.3886369466781616,-1.9728221893310547
1765793077063493000,8.8814931640625,9.758766174316406,-1.4437036514282227,-2.1140801906585693
1765793077073502700,8.891502685546875,9.971850395202637,-1.37906014919281,-2.030282974243164
1765793077083512600,8.9015126953125,10.007762908935547,-1.5466543436050415,-2.0877439975738525
1765793077103532000,8.921531982421875,9.81143856048584,-2.049436569213867,-2.078166961669922
1765793077113511400,8.931511474609374,9.849745750427246,-2.126051187515259,-2.1499931812286377
1765793077123521300,8.941521240234374,9.947908401489258,-1.8746598958969116,-2.0590133666992188
1765793077133531000,8.95153076171875,9.947908401489258,-1.8746598958969116,-2.0590133666992188
1765793077143510300,8.96151025390625,10.002974510192871,-1.625662922859192,-2.0614075660705566
1765793077153519900,8.971519775390625,10.089165687561035,-1.558625340461731,-2.094926595687866
1765793077163529700,8.98152978515625,9.995792388916016,-1.6041151285171509,-2.296039342880249
1765793077173478400,8.991478515625,9.782708168029785,-1.5394717454910278,-2.300827741622925
1765793077183427000,9.001427001953125,9.77791976928711,-1.5490485429763794,-2.212242364883423
1765793077203477200,9.021477294921874,9.53849983215332,-1.599326729774475,-2.296039342880249
1765793077223496700,9.04149658203125,9.579200744628906,-1.3646949529647827,-2.212242364883423
1765793077233506600,9.051506591796874,9.670180320739746,-1.3503297567367554,-2.145204782485962
1765793077243516200,9.06151611328125,9.583989143371582,-1.6711528301239014,-2.183511972427368
1765793077253526000,9.071526123046874,9.670180320739746,-1.6543933153152466,-2.274491548538208
1765793077263535900,9.081535888671874,9.744400978088379,-1.4293384552001953,-2.341529369354248
1765793077273545500,9.09154541015625,9.830592155456543,-1.4269442558288574,-2.207453966140747
1765793077283555300,9.101555419921874,9.68694019317627,-1.3742717504501343,-2.22660756111145
1765793077293504000,9.11150390625,9.600749015808105,-1.290474772453308,-2.3247697353363037
1765793077313523700,9.131523681640624,9.674968719482422,-1.3479355573654175,-2.293645143508911
1765793077323533300,9.141533203125,9.603142738342285,-1.522712230682373,-2.3032219409942627
1765793077333543200,9.151543212890624,9.63187313079834,-1.45806884765625,-2.363077163696289
1765793077343552800,9.161552734375,9.651026725769043,-1.37906014919281,-2.387019157409668
1765793077353562600,9.171562744140624,9.684545516967773,-1.4053963422775269,-2.3535003662109375
1765793077363542000,9.1815419921875,9.639056205749512,-1.5083470344543457,-2.382230758666992
1765793077373551600,9.191551513671875,9.619902610778809,-1.577778935432434,-2.5043349266052246
1765793077383561500,9.2015615234375,9.612719535827637,-1.436521053314209,-2.427720546722412
1765793077393540600,9.21154052734375,9.600749015808105,-1.359906554222107,-2.276885747909546
1765793077423570000,9.24156982421875,9.627084732055664,-1.4437036514282227,-2.4875755310058594
1765793077433610200,9.2516103515625,9.610325813293457,-1.280897855758667,-2.451662540435791
1765793077443620000,9.2616201171875,9.612719535827637,-1.2449848651885986,-2.473210334777832
1765793077453629700,9.271629638671875,9.737217903137207,-1.015141487121582,-2.4468741416931152
1765793077463639600,9.2816396484375,9.892841339111328,-0.9768342971801758,-2.4468741416931152
1765793077473649400,9.2916494140625,9.873687744140625,-1.0845733880996704,-2.5330653190612793
1765793077483659000,9.301658935546875,9.856928825378418,-1.170764684677124,-2.456450939178467
1765793077493638400,9.311638427734374,10.046070098876953,-1.2330138683319092,-2.2697031497955322
1765793077503617500,9.321617431640625,10.04846477508545,-1.292868971824646,-2.2601263523101807
1765793077523606500,9.3416064453125,9.962273597717285,-0.8643068075180054,-2.1763293743133545
1765793077543626200,9.361626220703124,9.856928825378418,-0.8212111592292786,-2.233790159225464
1765793077553635800,9.3716357421875,9.856928825378418,-0.790086567401886,-2.2649147510528564
1765793077563645700,9.381645751953124,9.84495735168457,-0.7565677165985107,-2.1715409755706787
1765793077573594400,9.391594482421874,9.758766174316406,-0.9528923034667969,-2.075772762298584
1765793077583634700,9.401634765625,9.660603523254395,-1.1228805780410767,-2.118868589401245
1765793077593644500,9.41164453125,9.646238327026367,-1.0342950820922852,-1.9488801956176758
1765793077603654100,9.421654052734375,9.593565940856934,-1.2641384601593018,-1.946485996246338
1765793077633683500,9.451683349609375,9.928754806518555,-1.1204863786697388,-1.764526605606079
1765793077643693300,9.461693359375,9.931148529052734,-0.9528923034667969,-1.7190368175506592
1765793077653703200,9.471703125,9.995792388916016,-0.8906430602073669,-1.8555063009262085
1765793077663712800,9.481712646484375,9.720458984375,-0.9193734526634216,-1.8507179021835327
1765793077673722600,9.49172265625,9.457097053527832,-1.0295066833496094,-1.9033904075622559
1765793077683732200,9.501732177734375,9.275136947631836,-1.1803414821624756,-2.1164743900299072
1765793077693742000,9.5117421875,9.334992408752441,-0.9050082564353943,-2.1284453868865967
1765793077703721500,9.521721435546874,9.466673851013184,-0.6703764796257019,-2.075772762298584
1765793077713761500,9.531761474609375,9.579200744628906,-0.6344634294509888,-2.094926595687866
1765793077733720000,9.551719970703125,9.634267807006836,-0.6560112833976746,-1.946485996246338
1765793077743730000,9.56172998046875,9.639056205749512,-0.7876923680305481,-1.9321208000183105
1765793077753709000,9.571708984375,9.658209800720215,-1.0630255937576294,-1.9584569931030273
1765793077763719000,9.581718994140624,9.519346237182617,-1.237802267074585,-1.8483237028121948
1765793077773728800,9.591728759765624,9.550470352172852,-1.479616641998291,-1.800439715385437
1765793077783738400,9.60173828125,9.591172218322754,-1.3718775510787964,-1.843535304069519
1765793077793748200,9.611748291015624,9.660603523254395,-1.0630255937576294,-1.723825216293335
1765793077803758000,9.621758056640624,9.660603523254395,-1.0630255937576294,-1.723825216293335
1765793077813767700,9.631767578125,9.57441234588623,-0.9361328482627869,-1.501164436340332
1765793077823777500,9.641777587890624,9.435548782348633,-0.9864110946655273,-1.4317326545715332
1765793077833787400,9.651787353515624,9.397241592407227,-1.0989385843276978,-1.359906554222107
1765793077843797000,9.661796875,9.461885452270508,-1.3311761617660522,-1.314416766166687
1765793077853806800,9.671806884765624,9.593565940856934,-1.4245500564575195,-1.37906014919281
1765793077863786000,9.681785888671875,9.641449928283691,-1.3551181554794312,-1.357512354850769
1765793077873795800,9.6917958984375,9.658209800720215,-1.1540051698684692,-1.3239935636520386
1765793077883805700,9.7018056640625,9.655815124511719,-1.235408067703247,-1.2880805730819702
1765793077893815300,9.711815185546875,9.706093788146973,-1.3838485479354858,-1.3192051649093628
1765793077903825200,9.7218251953125,9.583989143371582,-1.6424223184585571,-1.2066776752471924
1765793077913834800,9.731834716796875,9.497797966003418,-1.6112977266311646,-1.3215993642807007
1765793077923875000,9.741875,9.476250648498535,-1.5322890281677246,-1.4101848602294922
1765793077943864000,9.761864013671875,9.390059471130371,-1.6759412288665771,-1.5298948287963867
1765793077953843500,9.771843505859374,9.162610054016113,-1.7070658206939697,-1.5849615335464478
1765793077983811600,9.8018115234375,8.956708908081055,-1.9129672050476074,-1.6112977266311646
1765793078003831300,9.821831298828124,8.999804496765137,-1.9728221893310547,-1.5179238319396973
1765793078013841000,9.8318408203125,9.033323287963867,-2.1068975925445557,-1.525106430053711
1765793078023850800,9.841850830078124,9.131484985351562,-2.209848165512085,-1.680729627609253
1765793078033860600,9.851860595703124,9.014169692993164,-2.279279947280884,-1.6160861253738403
1765793078053910500,9.87191064453125,8.846575736999512,-3.0621838569641113,-1.7286136150360107
1765793078063920400,9.88192041015625,8.868123054504395,-3.442862033843994,-1.742978811264038
1765793078073930000,9.891929931640625,9.0859956741333,-4.086902141571045,-1.5873557329177856
1765793078083939800,9.90193994140625,9.097966194152832,-4.474762916564941,-1.558625340461731
1765793078093949700,9.91194970703125,9.284713745117188,-4.213795185089111,-1.4915876388549805
1765793078103928800,9.9219287109375,9.385271072387695,-3.88818359375,-1.3982137441635132
1765793078113938700,9.931938720703124,9.428366661071777,-3.5625722408294678,-1.3024457693099976
1765793078123948300,9.9419482421875,9.196128845214844,-3.3710360527038574,-1.216254472732544
1765793078133897200,9.951897216796874,8.908824920654297,-3.6104562282562256,-1.192312479019165
1765793078143937500,9.9619375,8.520963668823242,-3.9671921730041504,-1.1324573755264282
1765793078153947100,9.971947021484375,8.29590892791748,-4.462791919708252,-1.0749965906143188
1765793078163957000,9.98195703125,8.094796180725098,-4.8051629066467285,-1.0869675874710083
1765793078173966600,9.991966552734375,7.955932140350342,-4.932055473327637,-1.01753568649292
1765793078183946000,10.001946044921874,8.04930591583252,-4.867412090301514,-0.9600749015808105
1765793078193955800,10.011955810546874,8.14028549194336,-4.941632270812988,-1.0582371950149536
1765793078203935000,10.02193505859375,8.015787124633789,-4.766855716705322,-1.1228805780410767
1765793078213944800,10.03194482421875,7.905653953552246,-4.72376012802124,-1.1492167711257935
1765793078223924000,10.041924072265624,7.620744228363037,-4.8051629066467285,-1.0989385843276978
1765793078233933800,10.051933837890624,7.287950038909912,-4.6950297355651855,-1.0247182846069336
1765793078243943400,10.061943359375,7.0772600173950195,-5.173870086669922,-1.0558429956436157
1765793078263963100,10.081963134765624,7.048529624938965,-6.229712963104248,-1.237802267074585
1765793078273942300,10.0919423828125,7.390900611877441,-5.904101371765137,-1.1444283723831177
1765793078283982600,10.101982666015624,7.632715225219727,-5.525817394256592,-0.849941611289978
1765793078293992400,10.111992431640624,7.625532627105713,-5.298368453979492,-0.7781155705451965
1765793078303941000,10.121941162109374,7.29034423828125,-5.372588634490967,-0.6655880808830261
1765793078313981400,10.1319814453125,6.900089263916016,-5.664681434631348,-0.667982280254364
1765793078323991000,10.141990966796875,6.282385349273682,-6.2632317543029785,-0.5506663918495178
1765793078334001000,10.1520009765625,5.906495571136475,-6.722918510437012,-0.3998316824436188
1765793078344010800,10.1620107421875,5.779603004455566,-7.084442615509033,-0.3423708379268646
1765793078364030200,10.1820302734375,5.846640586853027,-6.92881965637207,-0.24660277366638184
1765793078373979000,10.191978759765625,5.686229228973389,-7.271190643310547,-0.15083470940589905
1765793078383988700,10.20198876953125,5.530605792999268,-7.876923561096191,-0.038307227194309235
1765793078393967900,10.2119677734375,5.260061264038086,-8.271966934204102,-0.0454898327589035
1765793078403977700,10.221977783203124,5.080495834350586,-8.339004516601562,-0.019153613597154617
1765793078413956900,10.231956787109375,5.097255229949951,-8.33182144165039,0.1412578970193863
1765793078423966700,10.241966796875,5.430049419403076,-8.250418663024902,0.1364694982767105
1765793078433976600,10.2519765625,5.509057998657227,-7.996633529663086,0.09576806426048279
1765793078443955700,10.261955810546874,5.351040840148926,-8.133103370666504,0.028730420395731926
1765793078453934800,10.271934814453125,5.142745018005371,-8.42040729522705,0.181959331035614
1765793078483964200,10.301964111328125,4.738125324249268,-9.320627212524414,0.586579442024231
1765793078493974000,10.31197412109375,4.60165548324585,-9.519346237182617,0.6320692300796509
1765793078503983900,10.32198388671875,4.3861775398254395,-10.15141487121582,0.5410895943641663
1765793078513993500,10.331993408203125,4.446032524108887,-10.793061256408691,0.5339069962501526
1765793078524003300,10.34200341796875,4.1156325340271,-11.046846389770508,0.6775590777397156
1765793078533952000,10.351951904296875,4.048594951629639,-11.14500904083252,0.8906430602073669
1765793078543961900,10.3619619140625,4.113238334655762,-10.759542465209961,0.8547300100326538
1765793078573960700,10.391960693359374,4.077325344085693,-10.520122528076172,0.706289529800415
1765793078593949700,10.41194970703125,3.6511576175689697,-9.86650562286377,0.6607996821403503
1765793078613908200,10.431908203125,3.6511576175689697,-9.775525093078613,0.5171475410461426
1765793078623917800,10.441917724609375,3.883395195007324,-10.17296314239502,0.45489832758903503
1765793078633927700,10.451927734375,4.1395745277404785,-10.232817649841309,0.2825157940387726
1765793078643937500,10.4619375,4.299986362457275,-10.103530883789062,0.2059013396501541
1765793223117605000,154.93560522460936,8.358158111572266,2.868253707885742,-2.7988216876983643
1765793223137594000,154.95559399414063,8.576030731201172,3.2824504375457764,-2.5282769203186035
1765793223167262500,154.98526245117188,8.418013572692871,3.507505416870117,-1.8171991109848022
1765793223177072000,154.99507202148436,8.379706382751465,3.4955344200134277,-1.8339585065841675
1765793223186921000,155.0049208984375,8.226476669311523,3.7852327823638916,-1.7597382068634033
1765793223196930600,155.0149306640625,8.133103370666504,3.823540210723877,-1.7046716213226318
1765793223206940400,155.0249404296875,7.927201747894287,3.8714241981506348,-1.745373010635376
1765793223216919600,155.03491943359376,7.706935405731201,4.060565948486328,-1.6424223184585571
1765793223226899000,155.04489892578124,7.603984832763672,4.180276393890381,-1.580173134803772
1765793223236908500,155.05490844726563,7.333439826965332,4.398148536682129,-1.558625340461731
1765793223246888000,155.06488793945311,7.15387487411499,4.67827033996582,-1.4676456451416016
1765793223256867000,155.0748671875,6.868964672088623,4.831499099731445,-1.2689268589019775
1765793223286835500,155.10483544921874,6.959944248199463,3.794809579849243,-1.2521674633026123
1765793223296814600,155.11481469726561,7.572859764099121,3.399766445159912,-1.4293384552001953
1765793223306794000,155.1247939453125,8.453926086425781,2.3702597618103027,-1.3670891523361206
1765793223316773000,155.13477319335936,9.277531623840332,1.7477672100067139,-1.764526605606079
1765793223326783000,155.14478295898436,9.962273597717285,1.1252747774124146,-2.205059766769409
1765793223346741500,155.16474145507811,10.319009780883789,1.4053963422775269,-2.2816741466522217
1765793223356781800,155.17478173828124,10.232817649841309,1.2761094570159912,-2.1068975925445557
1765793223416718300,155.23471826171874,10.251971244812012,0.6799532771110535,-2.456450939178467
1765793223496704800,155.31470483398436,9.569623947143555,0.8259995579719543,-2.6599581241607666
1765793223506684200,155.32468408203124,9.655815124511719,0.8188169598579407,-1.98958158493042
1765793223526703600,155.34470361328124,10.280701637268066,0.22505496442317963,-1.9776105880737305
1765793223546662100,155.364662109375,11.801020622253418,-1.4676456451416016,-2.3582887649536133
1765793223576630300,155.39463037109374,12.066776275634766,0.3016694188117981,-1.9919757843017578
1765793223676544800,155.49454467773438,11.166556358337402,1.0821791887283325,-1.9632453918457031
1765793223686554600,155.5045546875,11.080365180969238,1.0797849893569946,-2.0901381969451904
1765793223696564500,155.514564453125,10.802638053894043,1.173158884048462,-2.250549554824829
1765793223776520400,155.5945205078125,10.067618370056152,0.6488286852836609,-1.968033790588379
1765793223786499800,155.60449975585936,10.086771965026855,0.5434837937355042,-1.9369091987609863
1765793223796509400,155.61450952148436,10.055646896362305,0.49799394607543945,-2.0422539710998535
1765793223806519300,155.62451928710936,10.017339706420898,0.5482721924781799,-1.9153614044189453
1765793223816498400,155.63449853515624,9.983820915222168,0.43095630407333374,-1.7621324062347412
1765793223826508300,155.64450830078124,9.93593692779541,0.4141969084739685,-1.7764976024627686
1765793223836487400,155.6544873046875,9.816226959228516,0.6105214357376099,-1.7477672100067139
1765793223846497300,155.66449731445311,9.780313491821289,0.828393816947937,-1.3958195447921753
1765793223856476400,155.67447631835938,9.576807022094727,0.7110779285430908,-1.400607943534851
1765793223866486300,155.684486328125,9.47146224975586,0.7733271718025208,-1.3287819623947144
1765793223876465700,155.69446557617186,9.363722801208496,0.7445967197418213,-1.237802267074585
1765793223886444800,155.70444482421874,9.404424667358398,0.727837324142456,-1.1444283723831177
1765793223896454700,155.71445458984374,9.600749015808105,0.6033388376235962,-1.2018892765045166
1765793223906433800,155.72443383789061,9.744400978088379,0.3998316824436188,-1.1851298809051514
1765793223916443600,155.73444360351561,9.911994934082031,0.31364041566848755,-1.1420341730117798
1765793223926422800,155.7444228515625,10.055646896362305,0.3447650372982025,-1.1563993692398071
1765793223936432600,155.7544326171875,9.988609313964844,0.33279404044151306,-1.2713210582733154
1765793223946442200,155.76444213867188,10.010157585144043,0.7781155705451965,-1.278503656387329
1765793223956421600,155.77442163085936,9.828198432922363,1.1635819673538208,-1.2210428714752197
1765793223966400800,155.78440087890624,9.610325813293457,1.3958195447921753,-1.1492167711257935
1765793223986389800,155.8043896484375,9.227252960205078,1.137245774269104,-0.8571242094039917
1765793223996369200,155.814369140625,9.232041358947754,0.768538773059845,-0.7493851184844971
1765793224006348300,155.82434838867186,9.404424667358398,0.9050082564353943,-0.7589619159698486
1765793224016327700,155.83432763671874,9.552865028381348,1.158793568611145,-0.47644615173339844
1765793224026306800,155.84430688476561,9.593565940856934,1.192312479019165,-0.40701428055763245
1765793224036316700,155.85431665039061,9.627084732055664,1.3287819623947144,-0.4381389021873474
1765793224046326300,155.864326171875,9.639056205749512,1.1540051698684692,-0.5339069962501526
1765793224056305700,155.8743056640625,9.639056205749512,1.1540051698684692,-0.5339069962501526
1765793224066223900,155.88422387695311,9.648633003234863,0.8834604024887085,-0.6440402865409851
1765793224096253200,155.91425317382811,9.38048267364502,0.38546648621559143,-0.8523358106613159
1765793224106262800,155.9242626953125,9.198522567749023,0.4189853072166443,-0.950498104095459
1765793224116242200,155.9342421875,9.050082206726074,0.40222588181495667,-0.9457096457481384
1765793224126282500,155.94428247070311,8.87291145324707,0.42856210470199585,-1.0199298858642578
1765793224136292000,155.9542919921875,8.729259490966797,0.21547815203666687,-1.1803414821624756
1765793224146271500,155.964271484375,8.712499618530273,-0.181959331035614,-1.4460978507995605
1765793224156281300,155.97428125,8.959102630615234,-0.2298433631658554,-1.7381904125213623
1765793224166291000,155.984291015625,9.301473617553711,0.07661445438861847,-2.1571757793426514
1765793224176270300,155.99427026367186,9.342175483703613,0.4118026793003082,-2.5019407272338867
1765793224196259300,156.01425927734374,8.789113998413086,1.41257905960083,-2.609679937362671
1765793224206238500,156.02423852539061,8.339004516601562,1.6759412288665771,-2.695871114730835
1765793224216217900,156.0342177734375,7.951143741607666,1.7477672100067139,-2.612074136734009
1765793224226197000,156.04419702148436,7.773972988128662,1.4676456451416016,-2.4660277366638184
1765793224236206800,156.05420678710936,7.424419403076172,0.9768342971801758,-2.585737943649292
1765793224246247000,156.06424682617188,7.206547260284424,-0.026336219161748886,-2.609679937362671
1765793224256226300,156.07422631835936,7.144298076629639,-1.1779472827911377,-2.5929205417633057
1765793224266205400,156.08420532226563,7.024587631225586,-2.5091233253479004,-2.655169725418091
1765793224276184800,156.09418481445311,6.967126846313477,-3.5697548389434814,-2.580949544906616
1765793224286164000,156.1041640625,6.722918510437012,-4.367023944854736,-2.3798365592956543
1765793224336121300,156.15412133789061,6.88332986831665,-6.689399719238281,0.6655880808830261
1765793224346100500,156.1641005859375,7.132327079772949,-7.196970462799072,1.1228805780410767
1765793224356079900,156.17407983398436,7.266402244567871,-7.910442352294922,1.6950948238372803
1765793224366059000,156.18405908203124,6.562506675720215,-8.973467826843262,2.2385785579681396
1765793224376068900,156.19406884765624,5.655104637145996,-10.105925559997559,2.628833532333374
1765793224386048000,156.20404809570311,4.726154327392578,-10.776301383972168,2.9257144927978516
1765793224406037000,156.224037109375,3.3303346633911133,-11.075576782226562,3.4811692237854004
1765793224416046800,156.234046875,3.1004912853240967,-12.040440559387207,3.8067808151245117
1765793224426026000,156.24402587890626,3.287238836288452,-12.54801082611084,4.158728122711182
1765793224436005400,156.25400537109374,3.5434184074401855,-12.7946138381958,4.553771495819092
1765793224445984500,156.26398461914061,3.687070608139038,-12.464214324951172,4.551377296447754
1765793224455994400,156.27399438476561,4.513070106506348,-11.475408554077148,4.10366153717041
1765793224466004200,156.28400415039061,5.195417881011963,-10.716446876525879,3.77565598487854
1765793224475983400,156.2939833984375,5.2696380615234375,-11.08994197845459,3.514688014984131
1765793224486023700,156.30402368164061,5.336675643920898,-11.154585838317871,3.3686418533325195
1765793224526032100,156.3440322265625,5.738901615142822,-11.343728065490723,3.160346269607544
1765793224536011500,156.35401147460936,5.298368453979492,-11.075576782226562,2.980781078338623
1765793224545990700,156.36399072265624,5.331887245178223,-9.576807022094727,2.4468741416931152
1765793224556000500,156.37400048828124,5.78678560256958,-9.605537414550781,2.190694570541382
1765793224566010000,156.38401000976563,5.169081687927246,-8.841787338256836,2.585737943649292
1765793224576020000,156.39402001953124,5.671864032745361,-7.158663272857666,2.049436569213867
1765793224585968600,156.40396875,6.117185115814209,-6.358999729156494,1.647210717201233
1765793224595948000,156.41394799804686,5.683835029602051,-6.672640323638916,1.1779472827911377
1765793224615937000,156.43393701171874,4.764461517333984,-9.117119789123535,0.9744400978088379
1765793224655945500,156.47394555664061,5.329493045806885,-4.955997467041016,0.19871874153614044
1765793224665924900,156.4839248046875,6.385335922241211,-5.8657941818237305,-1.2473790645599365
1765793224675965000,156.49396484375,9.169792175292969,-5.135562419891357,-1.8842366933822632
1765793224685974800,156.50397485351561,9.655815124511719,-6.098031520843506,-2.760514497756958
1765793224695954200,156.5139541015625,9.655815124511719,-6.098031520843506,-2.760514497756958
1765793224705933300,156.52393334960936,7.448361396789551,-8.719682693481445,-2.315192937850952
1765793224715912400,156.53391235351563,4.290409564971924,-11.599906921386719,-1.3623007535934448
1765793695120275500,626.938275390625,10.266336441040039,-1.0678139925003052,-1.5729905366897583
1765793695130254800,626.9482548828125,10.362105369567871,-1.1300631761550903,-1.7501614093780518
1765793695140234000,626.9582338867187,10.309432983398438,-1.2641384601593018,-1.7741034030914307
1765793695169802200,626.9878022460938,10.919954299926758,-1.5107412338256836,-2.1978771686553955
1765793695199601000,627.0176008300781,10.72841739654541,-1.3192051649093628,-2.4684219360351562
1765793695209610800,627.0276108398438,10.520122528076172,-0.8619126081466675,-2.382230758666992
1765793695219620600,627.0376206054688,10.560823440551758,-0.45250412821769714,-2.38462495803833
1765793695249527800,627.0675278320313,10.1753568649292,-0.07900865375995636,-2.1380221843719482
1765793695279526700,627.0975266113281,9.435548782348633,-0.28969839215278625,-2.2026655673980713
1765793695349472800,627.16747265625,8.681375503540039,-1.8698714971542358,-2.3798365592956543
1765793695369400800,627.1874008789063,8.525752067565918,-2.4636335372924805,-2.5306711196899414
1765793695389389800,627.2073898925781,8.489839553833008,-2.205059766769409,-2.4420857429504395
1765793695419388700,627.237388671875,9.153033256530762,-1.680729627609253,-2.456450939178467
1765793695489304300,627.3073041992187,8.705317497253418,-0.11013327538967133,-2.7030537128448486
1765793695539109000,627.3571091308594,8.389283180236816,-0.06703764945268631,-3.270479440689087
1765793695609024800,627.4270246582031,8.944737434387207,0.5003881454467773,-3.0334534645080566
1765793695649002800,627.4670026855468,9.90241813659668,0.1628057211637497,-2.7916390895843506
1765793695658951700,627.4769516601563,10.139444351196289,0.20350714027881622,-2.894589900970459
1765793695699021000,627.5170209960937,10.441113471984863,0.1867477297782898,-2.806004285812378
1765793695798996700,627.6169968261719,11.441889762878418,0.2298433631658554,-2.6862943172454834
1765793695818924800,627.6369248046875,11.489773750305176,0,-2.719813108444214
1765793695828965000,627.6469650878906,11.03248119354248,-0.2106897532939911,-2.4684219360351562
1765793695878891800,627.6968918457031,10.469843864440918,0.011971008032560349,-1.1085153818130493
1765793695938828300,627.7568283691406,10.232817649841309,-0.038307227194309235,0.3495534360408783
1765793696008744200,627.826744140625,10.402806282043457,-1.2306196689605713,0.2298433631658554
1765793696018692900,627.8366928710938,10.532093048095703,-1.1468225717544556,0.2346317619085312
1765793696028702500,627.8467023925781,10.460267066955566,-0.912190854549408,0.2753331959247589
1765793696038681900,627.8566818847656,10.139444351196289,-0.9624691009521484,0.3495534360408783
1765793696048722200,627.8667221679688,9.962273597717285,-1.0055646896362305,0.47165772318840027
1765793696058731800,627.8767316894531,9.706093788146973,-0.8690952062606812,0.7852981686592102
1765793696068741600,627.8867416992188,9.651026725769043,-0.6991068720817566,0.8379706144332886
1765793696118607400,627.936607421875,9.133879661560059,0.26815059781074524,0.9888052940368652
1765793696128617200,627.9466171875,8.863334655761719,0.507570743560791,1.1109095811843872
1765793696138566000,627.9565659179688,8.573636054992676,0.507570743560791,1.1204863786697388
1765793696148606200,627.9666062011719,8.367734909057617,0.5793967843055725,1.1492167711257935
1765793696158615800,627.9766157226562,8.461109161376953,0.7661445140838623,1.280897855758667
1765793696168625700,627.9866257324219,8.59997272491455,0.7398083209991455,1.2761094570159912
1765793696178604800,627.9966047363281,8.772355079650879,0.6727706789970398,1.1827356815338135
1765793696188553700,628.0065537109375,8.913613319396973,0.6823474764823914,1.3024457693099976
1765793696198532900,628.0165329589844,9.107542991638184,0.5817909836769104,1.3263877630233765
1765793696208481500,628.0264814453125,9.346963882446289,0.2825157940387726,1.2306196689605713
1765793696218430500,628.0364304199219,9.387664794921875,0.11971008777618408,1.192312479019165
1765793696228440000,628.0464401855469,9.461885452270508,0.12928688526153564,1.0678139925003052
1765793696238388700,628.056388671875,9.50498104095459,0.2346317619085312,1.0079588890075684
1765793696248368000,628.0663681640625,9.406818389892578,0.11971008777618408,1.048660397529602
1765793696258316800,628.0763168945313,9.38048267364502,0.06703764945268631,1.0869675874710083
1765793696268326700,628.0863266601563,9.366117477416992,0.15322890877723694,1.0055646896362305
1765793696278305800,628.0963059082031,9.44991397857666,0.08140286058187485,0.912190854549408
1765793696308335000,628.1263352050781,9.57201862335205,0.22026655077934265,0.849941611289978
1765793696318345000,628.1363449707031,9.59835433959961,0.3902548849582672,0.9528923034667969
1765793696328354600,628.1463544921875,9.50498104095459,0.4620809257030487,0.9720458984375
1765793696338334000,628.156333984375,9.430760383605957,0.6320692300796509,0.9672574996948242
1765793696348374300,628.1663742675781,9.557653427124023,0.7086837291717529,1.0654197931289673
1765793696358383900,628.1763837890625,9.409213066101074,0.8259995579719543,1.1252747774124146
1765793696368393700,628.1863937988281,9.536105155944824,1.0558429956436157,1.0989385843276978
1765793696378403600,628.1964035644531,9.646238327026367,1.0103530883789062,1.113303780555725
1765793696408371700,628.2263718261719,9.57201862335205,1.290474772453308,1.137245774269104
1765793696418381600,628.2363815917969,9.653421401977539,1.525106430053711,1.292868971824646
1765793696428360700,628.2463605957031,9.672574996948242,1.6759412288665771,1.3718775510787964
1765793696438340000,628.2563400878906,9.62947940826416,1.7070658206939697,1.5059528350830078
1765793696448349700,628.266349609375,9.581595420837402,1.7836803197860718,1.4389152526855469
1765793696458329000,628.2763291015625,9.569623947143555,1.678335428237915,1.522712230682373
1765793696468338700,628.2863386230468,9.39245319366455,1.5873557329177856,1.4532804489135742
1765793696478318000,628.2963181152344,9.370905876159668,1.5179238319396973,1.4987702369689941
1765793696488328000,628.3063278808594,9.306262016296387,1.1013327836990356,1.4413094520568848
1765793696508317000,628.3263168945313,9.47146224975586,1.05105459690094,1.2617442607879639
1765793696518296000,628.3362961425781,9.461885452270508,1.1994950771331787,1.280897855758667
1765793696528306000,628.3463059082031,9.29189682006836,1.072602391242981,1.2114660739898682
1765793696538285000,628.35628515625,9.246406555175781,0.933738648891449,1.2210428714752197
1765793696548325400,628.3663254394531,9.294290542602539,0.9169792532920837,1.194706678390503
1765793696558304500,628.3763044433593,9.318233489990234,0.8834604024887085,1.2449848651885986
1765793696568314400,628.386314453125,9.399636268615723,0.7086837291717529,1.1252747774124146
1765793696578293800,628.3962937011719,9.48343276977539,0.7015010714530945,0.9768342971801758
1765793696588303400,628.4063034667969,9.402029991149902,0.6655880808830261,0.9768342971801758
1765793696608262000,628.4262619628906,9.605537414550781,1.173158884048462,0.545877993106842
1765793696618241000,628.4362409667968,9.84495735168457,1.53707754611969,0.4644751250743866
1765793696628220400,628.4462204589844,9.780313491821289,1.678335428237915,0.2346317619085312
1765793696638199600,628.4561994628906,9.713275909423828,1.845929503440857,0.24181437492370605
1765793696648209400,628.4662094726563,9.555258750915527,2.032677173614502,0.26096799969673157
1765793696658188500,628.4761884765625,9.423578262329102,2.1739351749420166,0.35673606395721436
1765793696668198400,628.4861984863281,9.433155059814453,2.1739351749420166,0.19871874153614044
1765793696678208300,628.4962082519531,9.622296333312988,2.248155355453491,0.16519992053508759
1765793696688217900,628.5062177734375,9.86889934539795,2.5330653190612793,0.21787235140800476
1765793696698197200,628.516197265625,9.950302124023438,2.9065608978271484,0.17238251864910126
1765793696728165400,628.5461652832031,9.80904483795166,2.691082715988159,0.11013327538967133
1765793696738114300,628.5561142578125,9.943120002746582,2.693476915359497,0.17477671802043915
1765793696748124000,628.5661240234375,9.967061996459961,2.6839001178741455,0.22266076505184174
1765793696758103300,628.5761032714844,9.931148529052734,2.7078421115875244,0.17956513166427612
1765793696768082400,628.5860825195313,9.856928825378418,2.760514497756958,0.2801215946674347
1765793696778061800,628.5960617675781,9.816226959228516,2.276885747909546,0.2849099934101105
1765793696788102000,628.6061018066406,9.950302124023438,1.644816517829895,0.05746084079146385
1765793696798111700,628.6161118164063,10.043676376342773,1.237802267074585,-0.3232172429561615
1765793696828049400,628.6460493164062,9.342175483703613,-0.48602294921875,-0.1173158809542656
1765793696838059300,628.6560593261719,9.423578262329102,-1.01753568649292,0.08140286058187485
1765793696857987300,628.6759873046875,10.211270332336426,-0.3663128614425659,0.28730419278144836
1765793696867966500,628.6859665527344,10.5344877243042,-0.6631938815116882,-0.12449848651885986
1765793696887955500,628.7059555664063,10.896012306213379,-0.9576807022094727,-1.1300631761550903
1765793696897873700,628.7158737792969,10.975020408630371,-0.706289529800415,-1.2689268589019775
1765793696917862700,628.7358625488281,11.08994197845459,-0.23942017555236816,-1.314416766166687
1765793696927842000,628.7458420410156,11.204863548278809,0.07900865375995636,-1.5059528350830078
1765793696937821200,628.7558212890625,11.305420875549316,0.15083470940589905,-1.4963760375976562
1765793696947861500,628.7658615722656,11.30063247680664,0.569819986820221,-1.6831238269805908
1765793696957840600,628.7758405761718,11.118672370910645,1.0893617868423462,-1.4891934394836426
1765793696967850500,628.7858505859375,10.886435508728027,1.2090718746185303,-1.2832920551300049
1765793696977830000,628.7958298339844,10.505757331848145,1.0965443849563599,-1.1540051698684692
1765793696987809000,628.8058090820313,10.101137161254883,0.6847416758537292,-1.0582371950149536
1765793696997788200,628.8157880859375,10.089165687561035,0.395043283700943,-1.0271124839782715
1765793697007767600,628.825767578125,10.086771965026855,0.09816227108240128,-1.1492167711257935
1765793697037735700,628.8557355957031,10.141838073730469,-0.5530605912208557,-1.5203180313110352
1765793697047715000,628.8657150878906,10.000580787658691,-0.5722141861915588,-1.8507179021835327
1765793697057694200,628.8756940917968,9.856928825378418,-0.45489832758903503,-1.9776105880737305
1765793697067734500,628.8857346191406,9.86650562286377,-0.6440402865409851,-2.121262788772583
1765793697077714000,628.8957138671875,9.674968719482422,-0.6799532771110535,-2.456450939178467
1765793697087693000,628.9056931152344,9.41400146484375,-0.5530605912208557,-2.537853717803955
1765793697097672200,628.9156721191406,9.114726066589355,-0.44771572947502136,-2.3295583724975586
1765793697107682000,628.9256821289063,8.83939266204834,-0.12210428714752197,-2.319981336593628
1765793697147599000,628.9655991210938,8.619126319885254,1.139639973640442,-2.341529369354248
1765793697157578200,628.975578125,8.5903959274292,1.4413094520568848,-2.2577321529388428
1765793697167557600,628.9855576171875,8.604761123657227,1.0654197931289673,-2.1739351749420166
1765793697177506300,628.9955063476563,8.710105895996094,1.1755530834197998,-2.212242364883423
1765793697187516200,629.0055161132813,8.971074104309082,1.2641384601593018,-2.070984363555908
1765793697197495300,629.0154953613281,9.030928611755371,1.3192051649093628,-2.1092917919158936
1765793697207505200,629.0255051269531,9.035717010498047,1.4460978507995605,-2.1715409755706787
1765793697217514800,629.0355146484375,9.057265281677246,1.3096283674240112,-2.2218191623687744
1765793697227524600,629.0455246582031,9.14345645904541,1.0127472877502441,-2.188300371170044
1765793697267441700,629.0854416503906,9.962273597717285,0.5315127968788147,-2.315192937850952
1765793697277420800,629.0954208984375,10.041281700134277,0.33279404044151306,-2.427720546722412
1765793697287400200,629.1054001464844,10.129867553710938,0.19393034279346466,-2.454056739807129
1765793697297379300,629.1153793945313,10.031704902648926,0.06464344263076782,-2.557007312774658
1765793697307389200,629.1253891601563,9.895236015319824,0.33518823981285095,-2.473210334777832
1765793697317398800,629.1353986816406,9.895236015319824,0.33518823981285095,-2.473210334777832
1765793697327408600,629.1454086914063,9.761159896850586,0.30885201692581177,-2.3726539611816406
1765793697357346300,629.1753461914062,10.127472877502441,0.4836287498474121,-2.499546527862549
1765793697367325700,629.1853256835938,10.04846477508545,0.40701428055763245,-2.387019157409668
1765793697377366000,629.1953659667969,9.952696800231934,0.6488286852836609,-2.1715409755706787
1765793697387284200,629.2052841796875,9.883264541625977,0.7709329724311829,-2.056619167327881
1765793697397233000,629.2152329101563,9.749189376831055,0.7613561153411865,-1.9776105880737305
1765793697407212000,629.2252119140625,9.708487510681152,0.6751648783683777,-1.8698714971542358
1765793697417191400,629.23519140625,9.799467086791992,0.6105214357376099,-1.8148049116134644
1765793697427140000,629.2451401367188,9.86650562286377,0.3974374830722809,-1.6974890232086182
1765793697437119200,629.255119140625,9.998186111450195,0.16759411990642548,-1.8100165128707886
1765793697467087600,629.2850876464844,10.091560363769531,0,-1.6304513216018677
1765793697487046100,629.3050461425781,10.062829971313477,0.090979665517807,-1.4963760375976562
1765793697497025300,629.315025390625,10.235212326049805,0.009576806798577309,-1.3862427473068237
1765793697507035100,629.32503515625,10.366893768310547,0.06224924325942993,-1.5107412338256836
1765793697517014300,629.3350141601562,10.563218116760254,0.22505496442317963,-1.534683346748352
1765793697527024000,629.3450241699219,10.84094524383545,0.5650315880775452,-1.601720929145813
1765793697537003300,629.3550031738281,11.1474027633667,1.01753568649292,-1.6759412288665771
1765793697547013000,629.3650131835938,11.185709953308105,1.4293384552001953,-1.6160861253738403
1765793697556992300,629.3749921875,11.185709953308105,1.556231141090393,-1.7908629179000854
1765793697567002000,629.3850021972656,10.891223907470703,1.3718775510787964,-1.6974890232086182
1765793697577012000,629.3950119628906,10.548852920532227,0.9792284965515137,-1.5131354331970215
1765793697586991000,629.4049912109375,10.484209060668945,0.8188169598579407,-1.3407529592514038
1765793697597001000,629.4150009765625,10.405200958251953,0.9169792532920837,-1.1899182796478271
1765793697607010600,629.4250104980468,10.493785858154297,1.0749965906143188,-1.0199298858642578
1765793697617020400,629.4350205078125,10.60152530670166,1.039083480834961,-0.7565677165985107
1765793697626999800,629.4449997558594,10.587160110473633,0.9217676520347595,-0.8882488012313843
1765793697636979000,629.4549790039063,10.436325073242188,1.1061211824417114,-0.8810662031173706
1765793697646958000,629.4649580078125,10.129867553710938,1.2689268589019775,-0.6871358752250671
1765793697656937500,629.4749375,9.830592155456543,1.278503656387329,-0.45489832758903503
1765793697676896000,629.4948959960938,9.349357604980469,1.115697979927063,-0.2968810200691223
1765793697696854500,629.5148544921875,9.3828763961792,1.4939818382263184,0.1149216815829277
1765793697706864000,629.5248640136718,9.38048267364502,1.7836803197860718,0.3663128614425659
1765793697716843500,629.5348435058594,9.490615844726562,1.9345149993896484,0.7661445140838623
1765793697726853000,629.5448530273437,9.44752025604248,2.032677173614502,1.1013327836990356
1765793697736832500,629.5548325195313,9.406818389892578,1.9632453918457031,1.3742717504501343
1765793697746811600,629.5648117675781,9.193734169006348,1.965639591217041,1.5394717454910278
1765793697756791000,629.574791015625,9.272743225097656,1.7142484188079834,1.766920804977417
1765793697766770200,629.5847702636719,9.308655738830566,1.3215993642807007,1.764526605606079
1765793697776749600,629.5947495117188,9.521739959716797,1.1803414821624756,1.6112977266311646
1765793697786728700,629.6047287597656,9.497797966003418,1.072602391242981,1.644816517829895
1765793697796707800,629.6147077636718,9.519346237182617,1.0271124839782715,1.5394717454910278
1765793697806687200,629.6246872558594,9.50498104095459,0.8236053586006165,1.4245500564575195
1765793697816666400,629.6346662597656,9.59835433959961,0.5195417404174805,1.3862427473068237
1765793697826645800,629.6446457519531,9.634267807006836,0.5219359993934631,1.1971008777618408
1765793697836625000,629.654625,9.684545516967773,0.5123591423034668,1.1683704853057861
1765793697846604300,629.6646042480469,9.454702377319336,0.363918662071228,1.1683704853057861
1765793697856614000,629.6746137695312,9.378087997436523,0.7206547260284424,1.237802267074585
1765793697866623700,629.6846237792969,9.38048267364502,1.256955862045288,1.4532804489135742
1765793697876603000,629.6946027832031,9.253589630126953,1.6663644313812256,1.4317326545715332
1765793697896592000,629.714591796875,9.17936897277832,2.169146776199341,1.5921441316604614
1765793697906601700,629.7246018066406,9.169792175292969,2.3271639347076416,1.6615760326385498
1765793697916611600,629.7346115722656,9.169792175292969,2.3271639347076416,1.6615760326385498
1765793697926590700,629.7445908203125,9.301473617553711,2.5953147411346436,1.7286136150360107
1765793697936570000,629.7545700683594,9.188945770263672,2.382230758666992,1.6759412288665771
1765793697946579700,629.7645798339844,9.20091724395752,2.3774423599243164,1.482010841369629
1765793697956559000,629.7745590820313,9.370905876159668,2.2577321529388428,1.5921441316604614
1765793697966568700,629.7845686035156,9.564835548400879,2.032677173614502,1.381454348564148
1765793697986557700,629.8045576171875,9.871294021606445,2.0015525817871094,1.139639973640442
1765793698006546700,629.8245466308593,9.816226959228516,1.6759412288665771,0.8212111592292786
1765793698016526000,629.8345261230469,9.751583099365234,1.4508862495422363,0.7230489253997803
1765793698026505200,629.8445051269531,9.727641105651855,1.3455413579940796,0.5841852426528931
1765793698036484600,629.8544846191406,9.806650161743164,1.4197616577148438,0.5171475410461426
1765793698046463700,629.8644636230468,9.691728591918945,1.4867992401123047,0.6224924325942993
1765793698056443100,629.8744431152344,9.66539192199707,1.4867992401123047,0.8619126081466675
1765793698066483500,629.8844833984375,9.713275909423828,1.647210717201233,0.9385270476341248
1765793698076493000,629.8944931640625,9.588777542114258,1.7525556087493896,0.9433154463768005
1765793698086441700,629.9044416503906,9.581595420837402,1.7621324062347412,0.8882488012313843
1765793698106461400,629.9244614257813,9.342175483703613,2.027888774871826,0.828393816947937
1765793698116440600,629.9344406738281,9.334992408752441,2.097320795059204,0.9552865028381348
1765793698126420000,629.944419921875,9.334992408752441,2.0925323963165283,0.7924807667732239
1765793698136399000,629.9543991699219,9.320627212524414,2.075772762298584,0.7350199222564697
1765793698146378200,629.9643781738281,9.41400146484375,2.0901381969451904,0.8355764150619507
1765793698156357600,629.9743576660156,9.397241592407227,1.886630892753601,0.6512228846549988
1765793698166398000,629.9843979492188,9.394847869873047,1.7070658206939697,0.6153098344802856
1765793698176377000,629.9943771972656,9.47146224975586,1.659181833267212,0.6272808313369751
1765793698186387000,630.0043869628906,9.5624418258667,1.6519991159439087,0.45250412821769714
1765793698206376000,630.0243759765625,9.725247383117676,1.4939818382263184,0.17477671802043915
1765793698216355000,630.0343549804687,9.600749015808105,1.2737152576446533,0.08379705995321274
1765793698226334500,630.0443344726563,9.651026725769043,1.3886369466781616,0.1149216815829277
1765793698236313600,630.0543137207031,9.718064308166504,1.7693150043487549,0.05267243832349777
