time,seconds_elapsed,z,y,x
1765793067373163500,-0.80883642578125,0.09896016865968704,0.024434609338641167,-0.1820378452539444
1765793067403131600,-0.778868408203125,0.08796459436416626,-0.009773843921720982,-0.00733038317412138
1765793067413110800,-0.76888916015625,0.09407325088977814,-0.02687807008624077,-0.02687807008624077
1765793067423090200,-0.758909912109375,0.08796459436416626,-0.04398229718208313,-0.06230825558304787
1765793067433038800,-0.748961181640625,0.08552113175392151,-0.06475171446800232,-0.08429940044879913
1765793067443079200,-0.7389208984375,0.08429940044879913,-0.07330382615327835,-0.08552113175392151
1765793067453119500,-0.728880615234375,0.07819075137376785,-0.06841690838336945,-0.06719517707824707
1765793067463129000,-0.718870849609375,0.0757472887635231,-0.059864792972803116,-0.036651913076639175
1765793067473078000,-0.708921875,0.06963863968849182,-0.042760565876960754,-0.02076941914856434
1765793067483118300,-0.698881591796875,0.06230825558304787,-0.025656340643763542,-0.00855211354792118
1765793067513117000,-0.668883056640625,0.03420845419168472,0.0024434609804302454,0.02687807008624077
1765793067533136600,-0.64886328125,0.021991148591041565,0.0024434609804302454,0.0354301854968071
1765793067543115800,-0.63888427734375,0.015882495790719986,-0.00733038317412138,0.028099801391363144
1765793067553125600,-0.628874267578125,0.012217304669320583,-0.025656340643763542,0.02321287989616394
1765793067563135200,-0.61886474609375,0.006108652334660292,-0.042760565876960754,0.00733038317412138
1765793067573145000,-0.60885498046875,0,-0.05009094998240471,0
1765793067583155000,-0.598844970703125,-0.0012217304902151227,-0.06108652427792549,0.00855211354792118
1765793067593134000,-0.588865966796875,0.006108652334660292,-0.06963863968849182,0.006108652334660292
1765793067613153500,-0.568846435546875,0.018325956538319588,-0.06719517707824707,-0.019547687843441963
1765793067633142500,-0.548857421875,0.018325956538319588,-0.05742133408784866,0.01466076634824276
1765793067643152400,-0.53884765625,0.021991148591041565,-0.051312681287527084,0.018325956538319588
1765793067653131800,-0.5288681640625,0.02687807008624077,-0.04642575979232788,0.013439035043120384
1765793067663171800,-0.518828125,0.03176499158143997,-0.042760565876960754,0.00855211354792118
1765793067673120800,-0.508879150390625,0.03787364438176155,-0.04153883829712868,0.0024434609804302454
1765793067683130400,-0.49886962890625,0.04398229718208313,-0.03420845419168472,-0.004886921960860491
1765793067693140200,-0.48885986328125,0.04642575979232788,-0.028099801391363144,-0.006108652334660292
1765793067743097600,-0.43890234375,0.036651913076639175,0.012217304669320583,-0.018325956538319588
1765793067753107200,-0.428892822265625,0.03298672288656235,0.025656340643763542,-0.010995574295520782
1765793067773187800,-0.408812255859375,0.02932153269648552,0.03787364438176155,-0.021991148591041565
1765793067783197700,-0.39880224609375,0.028099801391363144,0.045204028487205505,-0.03298672288656235
1765793067793207300,-0.388792724609375,0.02076941914856434,0.05009094998240471,-0.02076941914856434
1765793067803217200,-0.378782958984375,0.01466076634824276,0.04764748737215996,-0.00733038317412138
1765793067813196300,-0.3688037109375,0.009773843921720982,0.0403171069920063,-0.012217304669320583
1765793067833216000,-0.348783935546875,-0.0012217304902151227,0.03298672288656235,-0.0354301854968071
1765793067843225600,-0.3387744140625,-0.00733038317412138,0.03176499158143997,-0.02687807008624077
1765793067853174300,-0.32882568359375,-0.010995574295520782,0.021991148591041565,-0.015882495790719986
1765793067863214600,-0.318785400390625,-0.013439035043120384,0.015882495790719986,-0.015882495790719986
1765793067873194000,-0.308805908203125,-0.01710422709584236,0.009773843921720982,-0.01710422709584236
1765793067883234300,-0.298765625,-0.018325956538319588,0.006108652334660292,-0.013439035043120384
1765793067893213400,-0.28878662109375,-0.021991148591041565,0.004886921960860491,-0.013439035043120384
1765793067903192600,-0.278807373046875,-0.030543262138962746,0.006108652334660292,-0.013439035043120384
1765793067933222000,-0.248778076171875,-0.05375614017248154,0.00733038317412138,-0.00733038317412138
1765793067943201300,-0.238798828125,-0.05864306539297104,0.006108652334660292,-0.006108652334660292
1765793067953211000,-0.2287890625,-0.06352998316287994,0.00855211354792118,-0.013439035043120384
1765793067963220700,-0.218779296875,-0.06841690838336945,0.01466076634824276,-0.010995574295520782
1765793067973200100,-0.2087998046875,-0.07452555745840073,0.01710422709584236,0.00366519158706069
1765793067983209700,-0.198790283203125,-0.0757472887635231,0.02076941914856434,0.015882495790719986
1765793067993189000,-0.188810791015625,-0.0757472887635231,0.02076941914856434,0.015882495790719986
1765793068003198700,-0.17880126953125,-0.07696902006864548,0.024434609338641167,0.013439035043120384
1765793068013178000,-0.16882177734375,-0.07452555745840073,0.019547687843441963,0.010995574295520782
1765793068033197600,-0.148802490234375,-0.05742133408784866,0,-0.05375614017248154
1765793068053125600,-0.128874267578125,-0.0403171069920063,-0.013439035043120384,-0.06230825558304787
1765793068063135200,-0.11886474609375,-0.024434609338641167,-0.018325956538319588,-0.045204028487205505
1765793068073114600,-0.108885498046875,-0.010995574295520782,-0.012217304669320583,-0.04886921867728233
1765793068083124200,-0.098875732421875,0.0012217304902151227,-0.006108652334660292,-0.06108652427792549
1765793068093073200,-0.0889267578125,0.012217304669320583,0.0012217304902151227,-0.06841690838336945
1765793068103113200,-0.07888671875,0.02076941914856434,0.015882495790719986,-0.05619960278272629
1765793068113092600,-0.068907470703125,0.0354301854968071,0.025656340643763542,-0.03787364438176155
1765793068123102500,-0.0588974609375,0.04153883829712868,0.030543262138962746,-0.039095375686883926
1765793068143060700,-0.038939208984375,0.05253441259264946,0.02932153269648552,-0.05009094998240471
1765793068153070600,-0.028929443359375,0.05375614017248154,0.025656340643763542,-0.05375614017248154
1765793068163080400,-0.01891943359375,0.05742133408784866,0.018325956538319588,-0.05864306539297104
1765793068173090000,-0.008909912109375,0.06475171446800232,0.0024434609804302454,-0.06352998316287994
1765793068183039000,0.0010390625,0.0757472887635231,-0.009773843921720982,-0.059864792972803116
1765793068193079000,0.0110791015625,0.08674286305904388,-0.02076941914856434,-0.06352998316287994
1765793068203089000,0.0210888671875,0.10262536257505417,-0.03176499158143997,-0.0757472887635231
1765793068213068300,0.031068359375,0.12950342893600464,-0.039095375686883926,-0.09896016865968704
1765793068223078000,0.041077880859375,0.14782938361167908,-0.036651913076639175,-0.11362093687057495
1765793068243067000,0.06106689453125,0.18448130786418915,-0.042760565876960754,-0.0708603709936142
1765793068263086600,0.081086669921875,0.2223549485206604,-0.03176499158143997,-0.10506882518529892
1765793068273065700,0.091065673828125,0.2174680233001709,-0.018325956538319588,-0.10384709388017654
1765793068283075600,0.10107568359375,0.21624629199504852,-0.025656340643763542,-0.0806342139840126
1765793068293024300,0.111024169921875,0.20891591906547546,-0.03420845419168472,-0.05864306539297104
1765793068303003400,0.12100341796875,0.2015855312347412,-0.04398229718208313,-0.03787364438176155
1765793068312982800,0.130982666015625,0.2076941877603531,-0.04398229718208313,-0.02321287989616394
1765793068322962000,0.1409619140625,0.21502456068992615,-0.0354301854968071,-0.018325956538319588
1765793068332971800,0.1509716796875,0.21380282938480377,-0.025656340643763542,-0.01710422709584236
1765793068352960800,0.170960693359375,0.20036379992961884,0.004886921960860491,-0.0024434609804302454
1765793068362940000,0.18093994140625,0.19303341209888458,0.019547687843441963,0.019547687843441963
1765793068372980200,0.190980224609375,0.1918116807937622,0.02687807008624077,0.03787364438176155
1765793068382990000,0.200989990234375,0.18936823308467865,0.04398229718208313,0.051312681287527084
1765793068393000000,0.211,0.18448130786418915,0.05009094998240471,0.06841690838336945
1765793068402979000,0.22097900390625,0.17348572611808777,0.0354301854968071,0.08552113175392151
1765793068412989000,0.230989013671875,0.16737708449363708,0.03420845419168472,0.10262536257505417
1765793068422998500,0.24099853515625,0.1661553531885147,0.03787364438176155,0.11484266817569733
1765793068433008400,0.25100830078125,0.17470745742321014,0.045204028487205505,0.12461651116609573
1765793068443018200,0.261018310546875,0.17348572611808777,0.05742133408784866,0.1466076523065567
1765793068462976500,0.2809765625,0.18081611394882202,0.04886921867728233,0.20036379992961884
1765793068492975400,0.310975341796875,0.16493362188339233,0.03176499158143997,0.14294247329235077
1765793068512964400,0.33096435546875,0.1612684279680252,0.021991148591041565,0.16371189057826996
1765793068522943700,0.34094384765625,0.14905111491680145,0.030543262138962746,0.16493362188339233
1765793068532984000,0.350984130859375,0.12950342893600464,0.03176499158143997,0.18448130786418915
1765793068563013000,0.38101318359375,0.11362093687057495,0,0.1466076523065567
1765793068573023000,0.39102294921875,0.10506882518529892,-0.015882495790719986,0.09773843735456467
1765793068583032800,0.40103271484375,0.10262536257505417,-0.030543262138962746,0.06719517707824707
1765793068593042400,0.41104248046875,0.10506882518529892,-0.03787364438176155,0.05009094998240471
1765793068603052300,0.42105224609375,0.10384709388017654,-0.0354301854968071,0.03420845419168472
1765793068613031700,0.43103173828125,0.11239920556545258,-0.018325956538319588,0.0354301854968071
1765793068623041300,0.441041259765625,0.11972958594560623,0.006108652334660292,0.03420845419168472
1765793068633020700,0.451020751953125,0.1270599663257599,0.03298672288656235,0.04642575979232788
1765793068643030300,0.4610302734375,0.1270599663257599,0.03298672288656235,0.04642575979232788
1765793068673059600,0.4910595703125,0.12217304855585098,0.04153883829712868,0.1111774742603302
1765793068683069400,0.5010693359375,0.12950342893600464,0.02076941914856434,0.08674286305904388
1765793068693018000,0.51101806640625,0.14905111491680145,0.00733038317412138,0.04153883829712868
1765793068702997500,0.52099755859375,0.1722639948129654,0.004886921960860491,0.015882495790719986
1765793068713007000,0.531007080078125,0.19792033731937408,0.00366519158706069,0.030543262138962746
1765793068723017000,0.541016845703125,0.2272418737411499,0.00855211354792118,0.06108652427792549
1765793068732965600,0.550965576171875,0.2626720666885376,0.013439035043120384,0.08796459436416626
1765793068742944800,0.56094482421875,0.2968805134296417,0.009773843921720982,0.09407325088977814
1765793068773004800,0.5910048828125,0.3640756905078888,-0.01466076634824276,0.06719517707824707
1765793068793024300,0.611024169921875,0.3604104816913605,-0.051312681287527084,0.025656340643763542
1765793068803034000,0.6210341796875,0.3604104816913605,-0.06230825558304787,-0.0024434609804302454
1765793068812982800,0.630982666015625,0.35674530267715454,-0.06841690838336945,-0.01710422709584236
1765793068822962000,0.6409619140625,0.34697145223617554,-0.06352998316287994,-0.015882495790719986
1765793068832941300,0.65094140625,0.33475416898727417,-0.042760565876960754,0.00366519158706069
1765793068842920400,0.66092041015625,0.3176499307155609,-0.018325956538319588,0.028099801391363144
1765793068872949800,0.69094970703125,0.28466320037841797,0.024434609338641167,0.05375614017248154
1765793068882959600,0.700959716796875,0.24678955972194672,0.04764748737215996,0.0403171069920063
1765793068893000000,0.711,0.2076941877603531,0.051312681287527084,0.06841690838336945
1765793068902979000,0.72097900390625,0.1612684279680252,0.0403171069920063,0.08552113175392151
1765793068912989000,0.730989013671875,0.1319468915462494,0.030543262138962746,0.06352998316287994
1765793068922968000,0.740968017578125,0.1014036312699318,0.03420845419168472,0.01466076634824276
1765793068932947200,0.750947265625,0.0757472887635231,0.045204028487205505,-0.004886921960860491
1765793068942987500,0.760987548828125,0.05375614017248154,0.05497787147760391,0.006108652334660292
1765793068952997400,0.770997314453125,0.03298672288656235,0.05864306539297104,0.0024434609804302454
1765793068973016800,0.791016845703125,0.009773843921720982,0.08307767659425735,0.012217304669320583
1765793068993036500,0.81103662109375,-0.006108652334660292,0.0708603709936142,0.07330382615327835
1765793069003046100,0.821046142578125,-0.018325956538319588,0.0659734457731247,0.06475171446800232
1765793069013025500,0.831025634765625,-0.028099801391363144,0.06719517707824707,0.045204028487205505
1765793069023004700,0.841004638671875,-0.04642575979232788,0.06230825558304787,0.036651913076639175
1765793069033014500,0.8510146484375,-0.06352998316287994,0.05742133408784866,0.04886921867728233
1765793069043054800,0.861054931640625,-0.06352998316287994,0.04642575979232788,0.0708603709936142
1765793069053064400,0.871064453125,-0.0708603709936142,0.0403171069920063,0.0659734457731247
1765793069063043800,0.8810439453125,-0.07208210229873657,0.030543262138962746,0.05864306539297104
1765793069082963200,0.900963134765625,-0.0757472887635231,0.010995574295520782,0.0403171069920063
1765793069092912000,0.910912109375,-0.06841690838336945,0.00733038317412138,0.03420845419168472
1765793069102921700,0.920921630859375,-0.05619960278272629,0.00366519158706069,0.02932153269648552
1765793069112931600,0.930931640625,-0.04886921867728233,0,0.024434609338641167
1765793069122941400,0.94094140625,-0.04153883829712868,-0.00366519158706069,0.03176499158143997
1765793069132951000,0.950950927734375,-0.0354301854968071,-0.00733038317412138,0.04764748737215996
1765793069142991400,0.960991455078125,-0.02321287989616394,-0.015882495790719986,0.04398229718208313
1765793069163010800,0.9810107421875,-0.01466076634824276,-0.030543262138962746,0.01466076634824276
1765793069173020700,0.991020751953125,-0.012217304669320583,-0.03298672288656235,0.036651913076639175
1765793069193040100,1.0110400390625,0.01466076634824276,-0.039095375686883926,0.07941248267889023
1765793069203019500,1.02101953125,0.013439035043120384,-0.04153883829712868,0.019547687843441963
1765793069213029000,1.031029052734375,0.01466076634824276,-0.04398229718208313,0.010995574295520782
1765793069223039000,1.0410390625,0.01710422709584236,-0.06108652427792549,0.042760565876960754
1765793069233048800,1.051048828125,0.015882495790719986,-0.0757472887635231,0.0403171069920063
1765793069243058400,1.061058349609375,0.006108652334660292,-0.07696902006864548,0.015882495790719986
1765793069253007400,1.07100732421875,0.0012217304902151227,-0.06841690838336945,0.01466076634824276
1765793069263017000,1.081016845703125,0.0012217304902151227,-0.06108652427792549,0.024434609338641167
1765793069273057300,1.091057373046875,0.0024434609804302454,-0.05009094998240471,0.025656340643763542
1765793069283067100,1.101067138671875,0,-0.0403171069920063,0.019547687843441963
1765793069303025700,1.121025634765625,-0.004886921960860491,-0.02932153269648552,0.01466076634824276
1765793069313035300,1.13103515625,-0.010995574295520782,-0.015882495790719986,0.042760565876960754
1765793069323045000,1.141045166015625,-0.018325956538319588,-0.004886921960860491,0.09162978827953339
1765793069333024300,1.151024169921875,-0.02076941914856434,-0.006108652334660292,0.11850785464048386
1765793069343003600,1.161003662109375,-0.024434609338641167,-0.013439035043120384,0.09651670604944229
1765793069353044000,1.1710439453125,-0.024434609338641167,-0.015882495790719986,0.045204028487205505
1765793069363053600,1.181053466796875,-0.02076941914856434,-0.013439035043120384,0.0012217304902151227
1765793069373063400,1.1910634765625,-0.018325956538319588,-0.00855211354792118,-0.02076941914856434
1765793069383042600,1.20104248046875,-0.018325956538319588,0,-0.013439035043120384
1765793069393052400,1.211052490234375,-0.012217304669320583,0.00733038317412138,0.004886921960860491
1765793069413011000,1.231010986328125,-0.009773843921720982,0.024434609338641167,0.02076941914856434
1765793069422990000,1.240989990234375,0.0024434609804302454,0.024434609338641167,0.0403171069920063
1765793069432969500,1.250969482421875,0.004886921960860491,0.02321287989616394,0.042760565876960754
1765793069443009800,1.261009765625,0,0.024434609338641167,0.02321287989616394
1765793069453019400,1.271019287109375,-0.00855211354792118,0.015882495790719986,0.006108652334660292
1765793069463029200,1.281029296875,-0.013439035043120384,0.0012217304902151227,0.00366519158706069
1765793069473039000,1.2910390625,-0.012217304669320583,-0.0024434609804302454,-0.0012217304902151227
1765793069483048700,1.301048583984375,-0.010995574295520782,-0.00366519158706069,-0.010995574295520782
1765793069493058600,1.31105859375,-0.009773843921720982,0,-0.009773843921720982
1765793069523088000,1.341087890625,0.0012217304902151227,0.015882495790719986,0.0012217304902151227
1765793069533067000,1.35106689453125,0.0024434609804302454,0.009773843921720982,0.009773843921720982
1765793069543107300,1.361107421875,0.0012217304902151227,0.00366519158706069,0.004886921960860491
1765793069553117200,1.3711171875,0,0.0012217304902151227,-0.00855211354792118
1765793069563126800,1.381126708984375,0.0012217304902151227,0.00366519158706069,-0.00733038317412138
1765793069573106200,1.391106201171875,-0.0012217304902151227,0.004886921960860491,0.00366519158706069
1765793069583115800,1.40111572265625,0.0024434609804302454,0.00366519158706069,0.00855211354792118
1765793069593125600,1.411125732421875,0.006108652334660292,0.0024434609804302454,-0.004886921960860491
1765793069603135500,1.421135498046875,0.004886921960860491,0.00733038317412138,-0.028099801391363144
1765793069623124500,1.44112451171875,0.009773843921720982,0.012217304669320583,-0.02932153269648552
1765793069633134000,1.451134033203125,0.006108652334660292,0.01710422709584236,-0.021991148591041565
1765793069643144000,1.46114404296875,0.00366519158706069,0.019547687843441963,-0.00855211354792118
1765793069653153800,1.47115380859375,0,0.015882495790719986,0.0012217304902151227
1765793069663133000,1.4811328125,-0.0024434609804302454,0.013439035043120384,0.00733038317412138
1765793069673142800,1.491142822265625,-0.0024434609804302454,0.010995574295520782,0.00855211354792118
1765793069683122000,1.501121826171875,-0.0024434609804302454,0.006108652334660292,0.004886921960860491
1765793069693070600,1.511070556640625,0.0012217304902151227,0,-0.0012217304902151227
1765793069703080400,1.52108056640625,0.0024434609804302454,-0.00366519158706069,-0.009773843921720982
1765793069713029000,1.531029052734375,0,-0.004886921960860491,-0.012217304669320583
1765793069743028000,1.561028076171875,-0.0024434609804302454,-0.0024434609804302454,0.03420845419168472
1765793069753007400,1.57100732421875,-0.0012217304902151227,-0.00733038317412138,0.039095375686883926
1765793069763047400,1.58104736328125,-0.0012217304902151227,-0.010995574295520782,0.021991148591041565
1765793069773057300,1.591057373046875,0.00366519158706069,-0.012217304669320583,0.0012217304902151227
1765793069783067100,1.601067138671875,0.010995574295520782,-0.013439035043120384,-0.01466076634824276
1765793069793076700,1.61107666015625,0.01710422709584236,-0.009773843921720982,-0.019547687843441963
1765793069803056000,1.62105615234375,0.025656340643763542,-0.00733038317412138,-0.01466076634824276
1765793069813065700,1.631065673828125,0.024434609338641167,-0.00366519158706069,-0.009773843921720982
1765793069823075600,1.64107568359375,0.019547687843441963,-0.0024434609804302454,-0.0012217304902151227
1765793069853013200,1.67101318359375,0.00366519158706069,0,0.019547687843441963
1765793069863053600,1.681053466796875,-0.00366519158706069,-0.0024434609804302454,0.021991148591041565
1765793069873063400,1.6910634765625,-0.009773843921720982,-0.0012217304902151227,0.012217304669320583
1765793069883073300,1.7010732421875,-0.010995574295520782,0.0012217304902151227,0.004886921960860491
1765793069893052400,1.711052490234375,-0.00855211354792118,0.00366519158706069,0.00366519158706069
1765793069903062300,1.721062255859375,-0.006108652334660292,0.00733038317412138,0.0012217304902151227
1765793069913071900,1.73107177734375,-0.00855211354792118,0.010995574295520782,-0.0024434609804302454
1765793069923081700,1.741081787109375,-0.006108652334660292,0.00733038317412138,0.004886921960860491
1765793069963090200,1.781090087890625,-0.021991148591041565,-0.013439035043120384,0.025656340643763542
1765793069973069600,1.791069580078125,-0.021991148591041565,-0.018325956538319588,0.00855211354792118
1765793069983048700,1.801048583984375,-0.01710422709584236,-0.021991148591041565,-0.013439035043120384
1765793069993089000,1.811089111328125,-0.010995574295520782,-0.02076941914856434,-0.036651913076639175
1765793070003068200,1.821068115234375,-0.006108652334660292,-0.01466076634824276,-0.05009094998240471
1765793070013047600,1.831047607421875,-0.006108652334660292,-0.006108652334660292,-0.045204028487205505
1765793070023057400,1.841057373046875,-0.013439035043120384,-0.0024434609804302454,-0.021991148591041565
1765793070033006000,1.851006103515625,-0.012217304669320583,-0.004886921960860491,0.006108652334660292
1765793070062943700,1.88094384765625,0.00366519158706069,0.00366519158706069,-0.07696902006864548
1765793070072892400,1.890892333984375,0.00366519158706069,0.012217304669320583,-0.06352998316287994
1765793070082902300,1.90090234375,-0.0024434609804302454,0.024434609338641167,-0.03176499158143997
1765793070092912000,1.910912109375,-0.010995574295520782,0.025656340643763542,-0.006108652334660292
1765793070102891300,1.920891357421875,-0.021991148591041565,0.021991148591041565,-0.0012217304902151227
1765793070112901000,1.930901123046875,-0.02687807008624077,0.018325956538319588,-0.00366519158706069
1765793070122910700,1.94091064453125,-0.024434609338641167,0.01466076634824276,-0.012217304669320583
1765793070132920600,1.950920654296875,-0.024434609338641167,0.01466076634824276,-0.021991148591041565
1765793070152848600,1.9708486328125,-0.013439035043120384,0.01710422709584236,-0.01710422709584236
1765793070172807200,1.99080712890625,-0.00855211354792118,0.00855211354792118,0.00366519158706069
1765793070182816800,2.000816650390625,-0.004886921960860491,0.0012217304902151227,0.009773843921720982
1765793070192826600,2.01082666015625,-0.00366519158706069,-0.00733038317412138,-0.006108652334660292
1765793070202836200,2.020836181640625,-0.0012217304902151227,-0.006108652334660292,-0.025656340643763542
1765793070212815600,2.030815673828125,0.0024434609804302454,-0.00733038317412138,-0.018325956538319588
1765793070232835000,2.0508349609375,0.006108652334660292,-0.00733038317412138,-0.0012217304902151227
1765793070252854500,2.0708544921875,0.006108652334660292,-0.00733038317412138,-0.015882495790719986
1765793070272874200,2.090874267578125,0.00733038317412138,-0.006108652334660292,-0.036651913076639175
1765793070282853400,2.100853271484375,0.013439035043120384,-0.004886921960860491,-0.036651913076639175
1765793070292893700,2.110893798828125,0.018325956538319588,-0.0012217304902151227,-0.03298672288656235
1765793070302903600,2.120903564453125,0.02687807008624077,0,-0.025656340643763542
1765793070312913200,2.1309130859375,0.028099801391363144,-0.0024434609804302454,-0.01466076634824276
1765793070322892500,2.140892578125,0.02321287989616394,-0.00733038317412138,-0.015882495790719986
1765793070332871700,2.15087158203125,0.015882495790719986,-0.00733038317412138,-0.02687807008624077
1765793070342881500,2.160881591796875,0.009773843921720982,-0.006108652334660292,-0.02932153269648552
1765793070372941300,2.19094140625,0.00855211354792118,0.0012217304902151227,-0.028099801391363144
1765793070382890000,2.200889892578125,0.00733038317412138,0.00855211354792118,-0.0354301854968071
1765793070392869400,2.210869384765625,0.004886921960860491,0.01710422709584236,-0.04642575979232788
1765793070402909700,2.22090966796875,0.00855211354792118,0.015882495790719986,-0.06352998316287994
1765793070412919300,2.230919189453125,0.004886921960860491,0.013439035043120384,-0.08674286305904388
1765793070422929200,2.24092919921875,-0.0024434609804302454,0.018325956538319588,-0.08307767659425735
1765793070432939000,2.25093896484375,-0.009773843921720982,0.024434609338641167,-0.03787364438176155
1765793070442948600,2.260948486328125,-0.015882495790719986,0.024434609338641167,0.006108652334660292
1765793070452928000,2.270927978515625,-0.021991148591041565,0.021991148591041565,0.009773843921720982
1765793070472947500,2.290947509765625,-0.02932153269648552,0.019547687843441963,-0.03298672288656235
1765793070482957300,2.300957275390625,-0.02321287989616394,0.01710422709584236,-0.05497787147760391
1765793070492936400,2.3109365234375,-0.021991148591041565,0.018325956538319588,-0.07452555745840073
1765793070502885000,2.320885009765625,-0.024434609338641167,0.02321287989616394,-0.06719517707824707
1765793070512925400,2.330925537109375,-0.02321287989616394,0.02687807008624077,-0.025656340643763542
1765793070522935300,2.340935302734375,-0.021991148591041565,0.021991148591041565,0.004886921960860491
1765793070532914400,2.35091455078125,-0.024434609338641167,0.019547687843441963,0
1765793070542924300,2.36092431640625,-0.028099801391363144,0.018325956538319588,-0.010995574295520782
1765793070552934000,2.370933837890625,-0.03176499158143997,0.013439035043120384,-0.010995574295520782
1765793070582902300,2.40090234375,-0.03298672288656235,0.00366519158706069,-0.019547687843441963
1765793070592912100,2.410912109375,-0.03298672288656235,0.004886921960860491,-0.013439035043120384
1765793070602921700,2.420921630859375,-0.03298672288656235,-0.0012217304902151227,-0.00733038317412138
1765793070612931600,2.430931640625,-0.039095375686883926,-0.0024434609804302454,-0.018325956538319588
1765793070622910700,2.44091064453125,-0.04886921867728233,0,-0.0403171069920063
1765793070642899700,2.460899658203125,-0.03420845419168472,0.012217304669320583,0.004886921960860491
1765793070682908400,2.500908447265625,0.009773843921720982,0.00366519158706069,-0.02076941914856434
1765793070692948700,2.51094873046875,0.01710422709584236,0,-0.0354301854968071
1765793070702958300,2.520958251953125,0.015882495790719986,-0.0024434609804302454,-0.03787364438176155
1765793070712968200,2.53096826171875,0.00855211354792118,-0.006108652334660292,-0.03298672288656235
1765793070722978000,2.54097802734375,-0.00366519158706069,-0.018325956538319588,-0.03176499158143997
1765793070732987600,2.550987548828125,-0.00733038317412138,-0.03176499158143997,-0.02076941914856434
1765793070742997500,2.56099755859375,-0.010995574295520782,-0.039095375686883926,-0.006108652334660292
1765793070752976600,2.5709765625,-0.019547687843441963,-0.04642575979232788,-0.00366519158706069
1765793070792985300,2.6109853515625,-0.05742133408784866,-0.051312681287527084,0.006108652334660292
1765793070803025700,2.621025634765625,-0.06108652427792549,-0.05375614017248154,0
1765793070813004800,2.6310048828125,-0.06963863968849182,-0.05253441259264946,-0.00855211354792118
1765793070823014700,2.6410146484375,-0.0708603709936142,-0.05375614017248154,-0.004886921960860491
1765793070833024300,2.651024169921875,-0.06841690838336945,-0.04642575979232788,-0.010995574295520782
1765793070843003600,2.661003662109375,-0.07452555745840073,-0.036651913076639175,-0.03420845419168472
1765793070853013200,2.67101318359375,-0.0806342139840126,-0.02687807008624077,-0.042760565876960754
1765793070863023000,2.681023193359375,-0.07696902006864548,-0.018325956538319588,-0.02687807008624077
1765793070883042600,2.70104248046875,-0.08185594528913498,-0.00366519158706069,-0.03298672288656235
1765793070893022000,2.71102197265625,-0.08307767659425735,0.0012217304902151227,-0.039095375686883926
1765793070903001000,2.7210009765625,-0.08185594528913498,0.00366519158706069,-0.0354301854968071
1765793070923020500,2.7410205078125,-0.06841690838336945,0.004886921960860491,-0.06841690838336945
1765793070932969500,2.750969482421875,-0.06841690838336945,0.004886921960860491,-0.09529497474431992
1765793070942979000,2.76097900390625,-0.06963863968849182,0.00733038317412138,-0.1062905490398407
1765793070952958500,2.77095849609375,-0.07452555745840073,0.00855211354792118,-0.09285151958465576
1765793070962968000,2.780968017578125,-0.07330382615327835,0.01466076634824276,-0.06230825558304787
1765793070972947500,2.790947509765625,-0.06841690838336945,0.01466076634824276,-0.04764748737215996
1765793071002885000,2.820885009765625,-0.05253441259264946,0.013439035043120384,-0.07696902006864548
1765793071012864500,2.830864501953125,-0.04764748737215996,0.010995574295520782,-0.08185594528913498
1765793071022874000,2.8408740234375,-0.03787364438176155,0.009773843921720982,-0.07696902006864548
1765793071032823000,2.850822998046875,-0.03420845419168472,0.00733038317412138,-0.07696902006864548
1765793071042832600,2.86083251953125,-0.03420845419168472,0.004886921960860491,-0.07819075137376785
1765793071052873000,2.870873046875,-0.028099801391363144,-0.006108652334660292,-0.06841690838336945
1765793071062882800,2.8808828125,-0.025656340643763542,-0.01466076634824276,-0.0708603709936142
1765793071072862000,2.890862060546875,-0.018325956538319588,-0.015882495790719986,-0.0757472887635231
1765793071092881400,2.91088134765625,-0.0012217304902151227,-0.01710422709584236,-0.06108652427792549
1765793071102891300,2.920891357421875,0.00733038317412138,-0.018325956538319588,-0.05253441259264946
1765793071112901000,2.930901123046875,0.010995574295520782,-0.013439035043120384,-0.0354301854968071
1765793071122880300,2.94088037109375,0.01710422709584236,-0.00855211354792118,-0.00855211354792118
1765793071132920600,2.950920654296875,0.02321287989616394,-0.00366519158706069,0.004886921960860491
1765793071142930400,2.960930419921875,0.01710422709584236,0.00733038317412138,-0.00366519158706069
1765793071152940000,2.97093994140625,0.018325956538319588,0.012217304669320583,-0.0024434609804302454
1765793071162950000,2.980949951171875,0.013439035043120384,0.00733038317412138,0.0012217304902151227
1765793071172959700,2.990959716796875,0.013439035043120384,0.00855211354792118,-0.009773843921720982
1765793071182969300,3.00096923828125,0.013439035043120384,0.013439035043120384,-0.028099801391363144
1765793071212937700,3.030937744140625,0.01710422709584236,0.02321287989616394,-0.024434609338641167
1765793071222947300,3.040947265625,0.019547687843441963,0.03420845419168472,-0.021991148591041565
1765793071232896300,3.050896240234375,0.02321287989616394,0.039095375686883926,-0.00855211354792118
1765793071242936300,3.060936279296875,0.02321287989616394,0.039095375686883926,-0.00855211354792118
1765793071252915700,3.070915771484375,0.02076941914856434,0.04153883829712868,0.006108652334660292
1765793071262925600,3.080925537109375,0.01710422709584236,0.039095375686883926,0.018325956538319588
1765793071272935200,3.09093505859375,0.012217304669320583,0.030543262138962746,0.02321287989616394
1765793071282914600,3.10091455078125,0.0012217304902151227,0.021991148591041565,0.010995574295520782
1765793071292924200,3.110924072265625,-0.009773843921720982,0.01710422709584236,-0.01466076634824276
1765793071312974300,3.130974365234375,-0.03420845419168472,0.024434609338641167,-0.0806342139840126
1765793071322984000,3.14098388671875,-0.04398229718208313,0.0403171069920063,-0.09529497474431992
1765793071332993800,3.150993896484375,-0.05375614017248154,0.04398229718208313,-0.09162978827953339
1765793071343003600,3.161003662109375,-0.07941248267889023,0.0403171069920063,-0.09285151958465576
1765793071353013200,3.17101318359375,-0.09529497474431992,0.0354301854968071,-0.07696902006864548
1765793071363023000,3.181023193359375,-0.10873401165008545,0.030543262138962746,-0.05497787147760391
1765793071372971800,3.1909716796875,-0.12828169763088226,0.02076941914856434,-0.024434609338641167
1765793071382981600,3.200981689453125,-0.13316862285137177,0.00366519158706069,0.028099801391363144
1765793071403001000,3.2210009765625,-0.16737708449363708,-0.045204028487205505,-0.025656340643763542
1765793071422990000,3.240989990234375,-0.17959438264369965,-0.08918632566928864,-0.08307767659425735
1765793071433000000,3.251,-0.20891591906547546,-0.10262536257505417,-0.09529497474431992
1765793071443009800,3.261009765625,-0.22602014243602753,-0.1160643994808197,-0.06352998316287994
1765793071453019400,3.271019287109375,-0.22602014243602753,-0.12828169763088226,-0.028099801391363144
1765793071462968000,3.280968017578125,-0.2223549485206604,-0.13927727937698364,-0.02076941914856434
1765793071473008400,3.29100830078125,-0.2223549485206604,-0.13805554807186127,-0.03298672288656235
1765793071483018200,3.301018310546875,-0.2174680233001709,-0.13316862285137177,-0.028099801391363144
1765793071493028000,3.311028076171875,-0.21624629199504852,-0.13561208546161652,-0.028099801391363144
1765793071503037700,3.32103759765625,-0.21013765037059784,-0.13927727937698364,-0.04764748737215996
1765793071513047600,3.331047607421875,-0.20402899384498596,-0.1417207419872284,-0.08796459436416626
1765793071553025500,3.371025634765625,-0.14905111491680145,-0.06841690838336945,-0.04886921867728233
1765793071593003500,3.41100341796875,-0.0354301854968071,0.024434609338641167,-0.01466076634824276
1765793071603013400,3.421013427734375,-0.01710422709584236,0.039095375686883926,-0.030543262138962746
1765793071613023200,3.431023193359375,-0.00733038317412138,0.042760565876960754,-0.02687807008624077
1765793071623032800,3.44103271484375,-0.0012217304902151227,0.04886921867728233,-0.03787364438176155
1765793071633012200,3.45101220703125,0.006108652334660292,0.05375614017248154,-0.0403171069920063
1765793071663041500,3.48104150390625,0.05375614017248154,0.039095375686883926,-0.021991148591041565
1765793071673020700,3.491020751953125,0.05742133408784866,0.039095375686883926,-0.030543262138962746
1765793071683061000,3.50106103515625,0.06230825558304787,0.030543262138962746,-0.01466076634824276
1765793071693070600,3.511070556640625,0.06963863968849182,0.021991148591041565,-0.0024434609804302454
1765793071703080400,3.52108056640625,0.07452555745840073,0.01466076634824276,-0.00366519158706069
1765793071713059800,3.531059814453125,0.08552113175392151,0.0012217304902151227,-0.0024434609804302454
1765793071723069400,3.5410693359375,0.09285151958465576,-0.00855211354792118,0
1765793071733079300,3.551079345703125,0.09162978827953339,-0.004886921960860491,-0.012217304669320583
1765793071763078100,3.581078125,0.07330382615327835,0.01710422709584236,0.010995574295520782
1765793071773026800,3.59102685546875,0.0659734457731247,0.028099801391363144,0.02321287989616394
1765793071782975500,3.6009755859375,0.06352998316287994,0.0354301854968071,0.04764748737215996
1765793071792954600,3.61095458984375,0.06352998316287994,0.042760565876960754,0.06230825558304787
1765793071802964500,3.620964599609375,0.06230825558304787,0.051312681287527084,0.05253441259264946
1765793071812974300,3.630974365234375,0.06108652427792549,0.05619960278272629,0.04886921867728233
1765793071822984000,3.64098388671875,0.06352998316287994,0.051312681287527084,0.04764748737215996
1765793071832993800,3.650993896484375,0.06108652427792549,0.04886921867728233,0.028099801391363144
1765793071843003600,3.661003662109375,0.05864306539297104,0.042760565876960754,0.013439035043120384
1765793071873033000,3.691032958984375,0.05253441259264946,0.004886921960860491,0.012217304669320583
1765793071883042600,3.70104248046875,0.042760565876960754,-0.006108652334660292,0.02321287989616394
1765793071892991500,3.710991455078125,0.042760565876960754,-0.006108652334660292,0.02321287989616394
1765793071903031600,3.721031494140625,0.030543262138962746,-0.01710422709584236,0.042760565876960754
1765793071913041400,3.73104150390625,0.018325956538319588,-0.02932153269648552,0.04398229718208313
1765793071923051300,3.74105126953125,0.010995574295520782,-0.039095375686883926,0.02321287989616394
1765793071933060900,3.751060791015625,0.0012217304902151227,-0.045204028487205505,-0.015882495790719986
1765793071943040300,3.761040283203125,-0.009773843921720982,-0.04642575979232788,-0.0659734457731247
1765793071953019400,3.771019287109375,-0.021991148591041565,-0.0403171069920063,-0.09285151958465576
1765793071973069600,3.791069580078125,-0.039095375686883926,-0.01466076634824276,-0.06841690838336945
1765793071983079200,3.8010791015625,-0.04398229718208313,-0.0012217304902151227,-0.05497787147760391
1765793071993089000,3.811089111328125,-0.04153883829712868,0.02321287989616394,-0.03298672288656235
1765793072003099000,3.821098876953125,-0.0403171069920063,0.0354301854968071,-0.012217304669320583
1765793072013078000,3.831078125,-0.036651913076639175,0.03176499158143997,0.00733038317412138
1765793072023118300,3.841118408203125,-0.02321287989616394,0.02687807008624077,0.019547687843441963
1765793072033097500,3.851097412109375,-0.010995574295520782,0.009773843921720982,0.01466076634824276
1765793072043137800,3.8611376953125,-0.00366519158706069,-0.00855211354792118,-0.006108652334660292
1765793072083146500,3.901146484375,0.00855211354792118,-0.036651913076639175,-0.01710422709584236
1765793072093156000,3.911156005859375,0.00855211354792118,-0.03420845419168472,-0.0024434609804302454
1765793072103166000,3.921166015625,0.00855211354792118,-0.02932153269648552,0.030543262138962746
1765793072113145000,3.93114501953125,0.004886921960860491,-0.018325956538319588,0.059864792972803116
1765793072123185400,3.941185302734375,0.012217304669320583,-0.00366519158706069,0.06963863968849182
1765793072133164800,3.951164794921875,0.010995574295520782,0.013439035043120384,0.0354301854968071
1765793072143174400,3.96117431640625,0.006108652334660292,0.02687807008624077,-0.01466076634824276
1765793072153184300,3.971184326171875,0,0.03298672288656235,-0.04886921867728233
1765793072183122000,4.001121826171875,-0.010995574295520782,0.024434609338641167,-0.06230825558304787
1765793072203141600,4.0211416015625,-0.010995574295520782,0.02076941914856434,-0.00733038317412138
1765793072213120800,4.031120849609375,-0.00855211354792118,0.021991148591041565,-0.004886921960860491
1765793072223100000,4.041099853515625,-0.00733038317412138,0.02687807008624077,-0.010995574295520782
1765793072233079300,4.051079345703125,-0.0012217304902151227,0.02932153269648552,0
1765793072243089200,4.061089111328125,0.0024434609804302454,0.024434609338641167,0.009773843921720982
1765793072253098800,4.0710986328125,0.006108652334660292,0.018325956538319588,-0.00733038317412138
1765793072273087700,4.091087646484375,0.0012217304902151227,0.01710422709584236,-0.010995574295520782
1765793072283128000,4.101128173828125,0.006108652334660292,0.013439035043120384,0.006108652334660292
1765793072303086600,4.121086669921875,0.010995574295520782,0.00855211354792118,0.00855211354792118
1765793072313096400,4.131096435546875,0.010995574295520782,0.004886921960860491,0.019547687843441963
1765793072323106000,4.14110595703125,0.009773843921720982,-0.00733038317412138,0.025656340643763542
1765793072333054700,4.1510546875,0.012217304669320583,-0.01466076634824276,0.00855211354792118
1765793072343003600,4.161003662109375,0.019547687843441963,-0.013439035043120384,-0.018325956538319588
1765793072353013200,4.17101318359375,0.019547687843441963,-0.00855211354792118,-0.03176499158143997
1765793072363023000,4.181023193359375,0.02076941914856434,-0.0024434609804302454,-0.02076941914856434
1765793072403031600,4.221031494140625,0.02687807008624077,0.0024434609804302454,-0.0012217304902151227
1765793072413041400,4.23104150390625,0.018325956538319588,0.0024434609804302454,0.0012217304902151227
1765793072423020500,4.2410205078125,0.012217304669320583,0.0012217304902151227,0.006108652334660292
1765793072433030400,4.251030517578125,0.006108652334660292,0.0012217304902151227,0.015882495790719986
1765793072443040300,4.261040283203125,0.004886921960860491,0.0024434609804302454,0.018325956538319588
1765793072452989000,4.270989013671875,0.009773843921720982,0.00733038317412138,0.00733038317412138
1765793072462998800,4.280998779296875,0.018325956538319588,0.012217304669320583,-0.004886921960860491
1765793072483018200,4.301018310546875,0.03787364438176155,0.015882495790719986,-0.06352998316287994
1765793072503037700,4.32103759765625,0.06230825558304787,0.018325956538319588,-0.08429940044879913
1765793072513047600,4.331047607421875,0.06963863968849182,0.018325956538319588,-0.07330382615327835
1765793072523026700,4.341026611328125,0.0757472887635231,0.02076941914856434,-0.04642575979232788
1765793072533036500,4.35103662109375,0.08796459436416626,0.018325956538319588,-0.025656340643763542
1765793072543046400,4.36104638671875,0.09651670604944229,0.019547687843441963,-0.036651913076639175
1765793072553056000,4.371055908203125,0.09651670604944229,0.019547687843441963,-0.036651913076639175
1765793072563065900,4.38106591796875,0.11239920556545258,0.024434609338641167,-0.06108652427792549
1765793072573075700,4.39107568359375,0.1258382350206375,0.02932153269648552,-0.11239920556545258
1765793072593095200,4.41109521484375,0.1514945775270462,0.012217304669320583,-0.2981022298336029
1765793072603104800,4.421104736328125,0.16004669666290283,-0.0354301854968071,-0.4703662395477295
1765793072613053700,4.4310537109375,0.1563815027475357,-0.08307767659425735,-0.6817256212234497
1765793072623032800,4.44103271484375,0.12339477986097336,-0.10262536257505417,-0.7757988572120667
1765793072633042700,4.451042724609375,0.11239920556545258,-0.11850785464048386,-0.6609562039375305
1765793072643052300,4.46105224609375,0.1062905490398407,-0.1466076523065567,-0.4544837474822998
1765793072653001200,4.471001220703125,0.08429940044879913,-0.1661553531885147,-0.40072759985923767
1765793072663010800,4.4810107421875,0.07696902006864548,-0.17959438264369965,-0.5436700582504272
1765793072673020700,4.491020751953125,0.06963863968849182,-0.1820378452539444,-0.7721336483955383
1765793072693009700,4.511009765625,0.06230825558304787,-0.16493362188339233,-1.0531316995620728
1765793072702989000,4.520989013671875,0.03787364438176155,-0.16249015927314758,-1.1056660413742065
1765793072712998700,4.53099853515625,-0.02321287989616394,-0.14905111491680145,-1.0824532508850098
1765793072723008500,4.541008544921875,-0.07696902006864548,-0.1062905490398407,-0.9480628371238708
1765793072733018000,4.55101806640625,-0.08552113175392151,-0.04642575979232788,-0.7415903806686401
1765793072743028000,4.561028076171875,-0.10262536257505417,-0.009773843921720982,-0.5778785347938538
1765793072753068300,4.571068359375,-0.13561208546161652,0.03176499158143997,-0.4801400899887085
1765793072763078100,4.581078125,-0.15271630883216858,0.07208210229873657,-0.36651915311813354
1765793072772996400,4.590996337890625,-0.1820378452539444,0.10751228034496307,-0.22479841113090515
1765793072803025700,4.621025634765625,-0.24556782841682434,0.21013765037059784,-0.17348572611808777
1765793072813004800,4.6310048828125,-0.2431243658065796,0.2431243658065796,-0.22968533635139465
1765793072823014700,4.6410146484375,-0.2480112910270691,0.2981022298336029,-0.19547687470912933
1765793072833024300,4.651024169921875,-0.22846360504627228,0.33719760179519653,-0.04398229718208313
1765793072843034000,4.6610341796875,-0.20891591906547546,0.2981022298336029,0.1612684279680252
1765793072853044000,4.6710439453125,-0.17592918872833252,0.26511552929878235,0.2785545587539673
1765793072863053600,4.681053466796875,-0.1258382350206375,0.21135938167572021,0.3017674386501312
1765793072873002200,4.691002197265625,-0.12095131725072861,0.14049901068210602,0.28588494658470154
1765793072903031600,4.721031494140625,0.02321287989616394,-0.0354301854968071,0.16859880089759827
1765793072913041400,4.73104150390625,0.02932153269648552,-0.07330382615327835,-0.00855211354792118
1765793072923051300,4.74105126953125,0.024434609338641167,-0.06841690838336945,-0.12217304855585098
1765793072932969500,4.750969482421875,0.018325956538319588,-0.0659734457731247,-0.1014036312699318
1765793072942948600,4.760948486328125,0.02076941914856434,-0.05619960278272629,0.01710422709584236
1765793072952928000,4.770927978515625,0.018325956538319588,-0.04153883829712868,0.15027284622192383
1765793072962937600,4.7809375,0.02687807008624077,0.019547687843441963,0.22479841113090515
1765793072972947500,4.790947509765625,0.030543262138962746,0.05619960278272629,0.22357667982578278
1765793073002976800,4.820976806640625,-0.0012217304902151227,0.045204028487205505,0.09651670604944229
1765793073012956000,4.830955810546875,0.028099801391363144,0.05497787147760391,0.11362093687057495
1765793073022996200,4.840996337890625,0.07208210229873657,0.10262536257505417,0.19547687470912933
1765793073032945000,4.85094482421875,0.10506882518529892,0.10873401165008545,0.31031954288482666
1765793073042985200,4.860985107421875,0.12217304855585098,0.10018189996480942,0.3799581825733185
1765793073052995000,4.8709951171875,0.13561208546161652,0.1014036312699318,0.3481931984424591
1765793073063004700,4.881004638671875,0.15515977144241333,0.10384709388017654,0.29077184200286865
1765793073072984000,4.890984130859375,0.14782938361167908,0.10751228034496307,0.1918116807937622
1765793073082994000,4.900993896484375,0.10506882518529892,0.10995574295520782,0.02932153269648552
1765793073132981500,4.9509814453125,0.004886921960860491,0.09162978827953339,-0.09285151958465576
1765793073142991400,4.960991455078125,0,0.09651670604944229,-0.12217304855585098
1765793073153001200,4.971001220703125,0.004886921960860491,0.09896016865968704,-0.13439035415649414
1765793073162980400,4.98098046875,0.00855211354792118,0.09896016865968704,-0.13927727937698364
1765793073172990200,4.990990234375,0.00855211354792118,0.09162978827953339,-0.12828169763088226
1765793073182999800,5.000999755859375,0.019547687843441963,0.08429940044879913,-0.09651670604944229
1765793073192979200,5.010979248046875,0.04153883829712868,0.08185594528913498,-0.06719517707824707
1765793073213029000,5.031029052734375,0.06108652427792549,0.06719517707824707,-0.036651913076639175
1765793073233048800,5.051048828125,0.08796459436416626,0.06108652427792549,0.042760565876960754
1765793073243058400,5.061058349609375,0.09896016865968704,0.04642575979232788,0.006108652334660292
1765793073253068300,5.071068359375,0.10751228034496307,0.024434609338641167,-0.07330382615327835
1765793073263078100,5.081078125,0.11239920556545258,0.00366519158706069,-0.1368338167667389
1765793073273087700,5.091087646484375,0.12217304855585098,-0.00733038317412138,-0.18570303916931152
1765793073283097600,5.10109765625,0.1270599663257599,-0.01466076634824276,-0.2174680233001709
1765793073293107500,5.111107421875,0.12950342893600464,0.00855211354792118,-0.19425514340400696
1765793073313127000,5.131126953125,0.15271630883216858,0.0354301854968071,-0.0024434609804302454
1765793073333085400,5.15108544921875,0.14905111491680145,0.04764748737215996,0.04153883829712868
1765793073343034000,5.1610341796875,0.1319468915462494,0.04153883829712868,-0.012217304669320583
1765793073353074400,5.171074462890625,0.09773843735456467,0.042760565876960754,-0.08185594528913498
1765793073363084000,5.181083984375,0.07208210229873657,0.039095375686883926,-0.11362093687057495
1765793073373033000,5.191032958984375,0.05742133408784866,0.028099801391363144,-0.13927727937698364
1765793073383012000,5.20101220703125,0.03420845419168472,0.02321287989616394,-0.15027284622192383
1765793073393022000,5.21102197265625,0.010995574295520782,0.03420845419168472,-0.10995574295520782
1765793073423020500,5.2410205078125,-0.02321287989616394,0.03176499158143997,0.07452555745840073
1765793073433060900,5.251060791015625,-0.028099801391363144,0.02321287989616394,0.05375614017248154
1765793073453019400,5.271019287109375,-0.051312681287527084,0.0024434609804302454,0.04398229718208313
1765793073463059700,5.281059814453125,-0.05742133408784866,-0.015882495790719986,0.05497787147760391
1765793073473069600,5.291069580078125,-0.06963863968849182,-0.028099801391363144,0.03176499158143997
1765793073483079200,5.3010791015625,-0.0757472887635231,-0.028099801391363144,0.013439035043120384
1765793073493028000,5.311028076171875,-0.08185594528913498,-0.009773843921720982,0.03176499158143997
1765793073532975600,5.3509755859375,-0.11850785464048386,0.07696902006864548,0.15760323405265808
1765793073543015700,5.361015625,-0.11484266817569733,0.08429940044879913,0.13927727937698364
1765793073553025500,5.371025634765625,-0.11728613078594208,0.09285151958465576,0.09896016865968704
1765793073563035400,5.381035400390625,-0.12095131725072861,0.09896016865968704,0.0708603709936142
1765793073573045000,5.391044921875,-0.12339477986097336,0.09162978827953339,0.0708603709936142
1765793073583054800,5.401054931640625,-0.11484266817569733,0.06841690838336945,0.07452555745840073
1765793073593034000,5.411033935546875,-0.10262536257505417,0.04398229718208313,0.05009094998240471
1765793073603043800,5.4210439453125,-0.09407325088977814,0.01710422709584236,0.012217304669320583
1765793073633042700,5.451042724609375,-0.06352998316287994,-0.036651913076639175,0.05619960278272629
1765793073643052300,5.46105224609375,-0.05742133408784866,-0.0354301854968071,0.07696902006864548
1765793073653062100,5.471062255859375,-0.04153883829712868,-0.03787364438176155,0.08185594528913498
1765793073663072000,5.481072021484375,-0.030543262138962746,-0.045204028487205505,0.05253441259264946
1765793073673081600,5.49108154296875,-0.03176499158143997,-0.05009094998240471,0.02932153269648552
1765793073683091500,5.501091552734375,-0.030543262138962746,-0.05619960278272629,0.039095375686883926
1765793073693070600,5.511070556640625,-0.03176499158143997,-0.05375614017248154,0.045204028487205505
1765793073703080400,5.52108056640625,-0.0354301854968071,-0.042760565876960754,0.04642575979232788
1765793073743119600,5.56111962890625,-0.01466076634824276,-0.042760565876960754,0.036651913076639175
1765793073753160000,5.571159912109375,-0.006108652334660292,-0.03787364438176155,0.0012217304902151227
1765793073763169500,5.58116943359375,0.004886921960860491,-0.02687807008624077,-0.009773843921720982
1765793073773179400,5.591179443359375,0.021991148591041565,-0.02932153269648552,0.00733038317412138
1765793073783189200,5.601189208984375,0.030543262138962746,-0.0354301854968071,0.025656340643763542
1765793073793168400,5.61116845703125,0.0403171069920063,-0.028099801391363144,0.02687807008624077
1765793073803178200,5.62117822265625,0.04153883829712868,-0.024434609338641167,0.02076941914856434
1765793073833116000,5.651115966796875,0.036651913076639175,-0.00855211354792118,0.05497787147760391
1765793073843125800,5.661125732421875,0.03420845419168472,-0.0024434609804302454,0.051312681287527084
1765793073853074400,5.671074462890625,0.03420845419168472,-0.0024434609804302454,0.051312681287527084
1765793073863053600,5.681053466796875,0.02932153269648552,-0.0012217304902151227,0.051312681287527084
1765793073873094000,5.691093994140625,0.04153883829712868,-0.012217304669320583,0.06352998316287994
1765793073883103700,5.701103759765625,0.05375614017248154,-0.01710422709584236,0.06475171446800232
1765793073893113300,5.71111328125,0.06108652427792549,-0.018325956538319588,0.06108652427792549
1765793073903092700,5.7210927734375,0.059864792972803116,-0.02932153269648552,0.05253441259264946
1765793073923112200,5.7411123046875,0.0806342139840126,-0.05375614017248154,-0.019547687843441963
1765793073933122000,5.7511220703125,0.08674286305904388,-0.06719517707824707,-0.05742133408784866
1765793073943131600,5.761131591796875,0.08796459436416626,-0.07330382615327835,-0.07941248267889023
1765793073953111000,5.771111083984375,0.08674286305904388,-0.07208210229873657,-0.07941248267889023
1765793073963120600,5.78112060546875,0.08429940044879913,-0.0757472887635231,-0.05253441259264946
1765793073973039000,5.7910390625,0.0806342139840126,-0.07941248267889023,-0.02321287989616394
1765793073983079200,5.8010791015625,0.07208210229873657,-0.07452555745840073,0
1765793073993089000,5.811089111328125,0.06963863968849182,-0.07819075137376785,0.009773843921720982
1765793074003099000,5.821098876953125,0.06841690838336945,-0.08674286305904388,0.00855211354792118
1765793074013108500,5.8311083984375,0.07208210229873657,-0.09651670604944229,0.00366519158706069
1765793074043137800,5.8611376953125,0.06963863968849182,-0.08185594528913498,0.01710422709584236
1765793074053117200,5.8711171875,0.07208210229873657,-0.08307767659425735,0.021991148591041565
1765793074063157500,5.881157470703125,0.06475171446800232,-0.06841690838336945,0.00733038317412138
1765793074073136600,5.89113671875,0.04764748737215996,-0.07452555745840073,-0.024434609338641167
1765793074083146500,5.901146484375,0.051312681287527084,-0.08674286305904388,-0.04886921867728233
1765793074093156000,5.911156005859375,0.059864792972803116,-0.09651670604944229,-0.051312681287527084
1765793074113175800,5.93117578125,0.0659734457731247,-0.0806342139840126,-0.11484266817569733
1765793074143174400,5.96117431640625,0.07696902006864548,-0.05375614017248154,0.04153883829712868
1765793074163224600,5.981224609375,0.06230825558304787,-0.0708603709936142,-0.00733038317412138
1765793074173234200,5.991234130859375,0.05253441259264946,-0.0757472887635231,-0.03298672288656235
1765793074183213600,6.001213623046875,0.04642575979232788,-0.07452555745840073,-0.04642575979232788
1765793074193192700,6.011192626953125,0.05497787147760391,-0.07819075137376785,-0.0659734457731247
1765793074203202600,6.02120263671875,0.06352998316287994,-0.07696902006864548,-0.10873401165008545
1765793074213151200,6.031151123046875,0.06475171446800232,-0.0806342139840126,-0.12339477986097336
1765793074223161000,6.0411611328125,0.07819075137376785,-0.0806342139840126,-0.10506882518529892
1765793074233140200,6.05114013671875,0.07819075137376785,-0.0806342139840126,-0.10262536257505417
1765793074263108600,6.081108642578125,0.10262536257505417,-0.042760565876960754,0.00733038317412138
1765793074273118200,6.0911181640625,0.09896016865968704,-0.028099801391363144,0.006108652334660292
1765793074283128000,6.101128173828125,0.09285151958465576,-0.01466076634824276,0.036651913076639175
1765793074293138000,6.111137939453125,0.07696902006864548,0.00366519158706069,0.05253441259264946
1765793074303147500,6.1211474609375,0.05619960278272629,0.01466076634824276,0.05864306539297104
1765793074313127000,6.131126953125,0.03420845419168472,0.018325956538319588,0.07696902006864548
1765793074323167200,6.141167236328125,0.018325956538319588,0.019547687843441963,0.07696902006864548
1765793074333176800,6.1511767578125,0.006108652334660292,0.025656340643763542,0.036651913076639175
1765793074343186700,6.161186767578125,-0.010995574295520782,0.03298672288656235,-0.025656340643763542
1765793074363206100,6.1812060546875,-0.02687807008624077,0.042760565876960754,-0.07330382615327835
1765793074373154800,6.19115478515625,-0.025656340643763542,0.04764748737215996,-0.05619960278272629
1765793074383164700,6.20116455078125,-0.02932153269648552,0.05497787147760391,-0.02321287989616394
1765793074393174500,6.211174560546875,-0.03420845419168472,0.05009094998240471,0.009773843921720982
1765793074403184000,6.22118408203125,-0.030543262138962746,0.04886921867728233,0.04642575979232788
1765793074413163500,6.23116357421875,-0.02076941914856434,0.04153883829712868,0.07452555745840073
1765793074423173400,6.24117333984375,-0.013439035043120384,0.025656340643763542,0.05619960278272629
1765793074433183000,6.251182861328125,-0.01710422709584236,0.013439035043120384,-0.006108652334660292
1765793074453202400,6.271202392578125,-0.028099801391363144,0.0024434609804302454,-0.06230825558304787
1765793074463181800,6.281181884765625,-0.013439035043120384,-0.00733038317412138,-0.06719517707824707
1765793074473222100,6.29122216796875,-0.006108652334660292,-0.006108652334660292,-0.0708603709936142
1765793074483231700,6.301231689453125,-0.009773843921720982,0,-0.04153883829712868
1765793074493211100,6.311211181640625,0.0012217304902151227,-0.004886921960860491,0.006108652334660292
1765793074503251500,6.32125146484375,-0.0012217304902151227,-0.00366519158706069,0.030543262138962746
1765793074513261000,6.331260986328125,-0.0012217304902151227,-0.00366519158706069,0.030543262138962746
1765793074523271000,6.34127099609375,-0.00366519158706069,-0.00855211354792118,0.025656340643763542
1765793074533219600,6.351219482421875,-0.006108652334660292,-0.00855211354792118,-0.025656340643763542
1765793074543260000,6.361260009765625,-0.006108652334660292,-0.00855211354792118,-0.025656340643763542
1765793074553269800,6.371269775390625,-0.012217304669320583,-0.004886921960860491,-0.04886921867728233
1765793074573289200,6.391289306640625,-0.006108652334660292,0.018325956538319588,-0.021991148591041565
1765793074583268400,6.401268310546875,0.00366519158706069,0.018325956538319588,0.0024434609804302454
1765793074593278200,6.4112783203125,0.013439035043120384,0.018325956538319588,-0.010995574295520782
1765793074603288000,6.4212880859375,0.019547687843441963,0.018325956538319588,-0.051312681287527084
1765793074613297700,6.431297607421875,0.02687807008624077,0.019547687843441963,-0.08429940044879913
1765793074623307500,6.4413076171875,0.03298672288656235,0.025656340643763542,-0.1111774742603302
1765793074633256200,6.451256103515625,0.0354301854968071,0.03176499158143997,-0.1270599663257599
1765793074643296500,6.461296630859375,0.04153883829712868,0.028099801391363144,-0.10873401165008545
1765793074683305200,6.50130517578125,0.04398229718208313,-0.0354301854968071,-0.20402899384498596
1765793074693254000,6.51125390625,0.04398229718208313,-0.04764748737215996,-0.2064724564552307
1765793074703263500,6.521263427734375,0.051312681287527084,-0.05864306539297104,-0.14905111491680145
1765793074713273300,6.5312734375,0.04764748737215996,-0.06475171446800232,-0.10995574295520782
1765793074723283200,6.541283203125,0.04764748737215996,-0.0659734457731247,-0.05864306539297104
1765793074733292800,6.551292724609375,0.0659734457731247,-0.05253441259264946,0.00733038317412138
1765793074743302700,6.561302734375,0.0708603709936142,-0.04398229718208313,0.03298672288656235
1765793074753343000,6.571343017578125,0.06963863968849182,-0.04153883829712868,0.04764748737215996
1765793074763352600,6.5813525390625,0.06230825558304787,-0.028099801391363144,0.05619960278272629
1765793074793321000,6.611321044921875,0.0403171069920063,0.012217304669320583,0.0403171069920063
1765793074803361300,6.621361328125,0.02932153269648552,0.02321287989616394,0.010995574295520782
1765793074813371100,6.63137109375,0.009773843921720982,0.03420845419168472,0.00855211354792118
1765793074823319800,6.64131982421875,-0.00366519158706069,0.045204028487205505,0.045204028487205505
1765793074833360100,6.651360107421875,-0.018325956538319588,0.05375614017248154,0.0757472887635231
1765793074843369700,6.66136962890625,-0.0354301854968071,0.06352998316287994,0.08918632566928864
1765793074853318400,6.671318359375,-0.039095375686883926,0.05864306539297104,0.09162978827953339
1765793074873368600,6.69136865234375,-0.04642575979232788,0.06841690838336945,0.059864792972803116
1765793074883378400,6.70137841796875,-0.05009094998240471,0.07330382615327835,0.08185594528913498
1765793074893388000,6.711387939453125,-0.05619960278272629,0.0806342139840126,0.12950342893600464
1765793074903367400,6.721367431640625,-0.05864306539297104,0.07819075137376785,0.16249015927314758
1765793074913316000,6.731316162109375,-0.05497787147760391,0.06230825558304787,0.15027284622192383
1765793074923326000,6.741325927734375,-0.05742133408784866,0.05253441259264946,0.11484266817569733
1765793074933305000,6.75130517578125,-0.05864306539297104,0.03787364438176155,0.07696902006864548
1765793074943284200,6.7612841796875,-0.06352998316287994,0.030543262138962746,0.05009094998240471
1765793074953324500,6.771324462890625,-0.06963863968849182,0.03298672288656235,0.06475171446800232
1765793074963334400,6.78133447265625,-0.06352998316287994,0.028099801391363144,0.12461651116609573
1765793074983293000,6.80129296875,-0.06352998316287994,0.006108652334660292,0.1612684279680252
1765793074993272000,6.81127197265625,-0.07208210229873657,-0.012217304669320583,0.14538592100143433
1765793075003282000,6.821281982421875,-0.07696902006864548,-0.019547687843441963,0.14782938361167908
1765793075013261000,6.831260986328125,-0.07208210229873657,-0.030543262138962746,0.1514945775270462
1765793075023271000,6.84127099609375,-0.0806342139840126,-0.025656340643763542,0.14538592100143433
1765793075033250000,6.85125,-0.08429940044879913,-0.030543262138962746,0.15393804013729095
1765793075043260000,6.861260009765625,-0.08429940044879913,-0.03420845419168472,0.1722639948129654
1765793075053269800,6.871269775390625,-0.08918632566928864,-0.03176499158143997,0.17470745742321014
1765793075063279400,6.881279296875,-0.09529497474431992,-0.03420845419168472,0.1820378452539444
1765793075073258800,6.8912587890625,-0.09651670604944229,-0.02321287989616394,0.1869247704744339
1765793075103288000,6.9212880859375,-0.11850785464048386,-0.015882495790719986,0.18081611394882202
1765793075113267200,6.93126708984375,-0.11850785464048386,-0.024434609338641167,0.13316862285137177
1765793075123277000,6.941277099609375,-0.12828169763088226,-0.021991148591041565,0.09285151958465576
1765793075133286700,6.95128662109375,-0.13439035415649414,-0.019547687843441963,0.10995574295520782
1765793075143296500,6.961296630859375,-0.13561208546161652,-0.019547687843441963,0.1563815027475357
1765793075153245200,6.9712451171875,-0.13439035415649414,-0.013439035043120384,0.18448130786418915
1765793075163255000,6.981255126953125,-0.13316862285137177,-0.00855211354792118,0.19303341209888458
1765793075173265000,6.991264892578125,-0.13316862285137177,-0.00855211354792118,0.19303341209888458
1765793075213303800,7.0313037109375,-0.1014036312699318,-0.0024434609804302454,0.15393804013729095
1765793075223313700,7.041313720703125,-0.09896016865968704,-0.012217304669320583,0.15515977144241333
1765793075233262300,7.051262451171875,-0.09529497474431992,-0.010995574295520782,0.1563815027475357
1765793075243272200,7.061272216796875,-0.1014036312699318,-0.018325956538319588,0.14294247329235077
1765793075253251300,7.071251220703125,-0.1062905490398407,-0.018325956538319588,0.10751228034496307
1765793075263230700,7.081230712890625,-0.09896016865968704,-0.00733038317412138,0.07452555745840073
1765793075273240300,7.091240234375,-0.08429940044879913,-0.0012217304902151227,0.05497787147760391
1765793075303269600,7.12126953125,-0.0708603709936142,0.010995574295520782,0.13439035415649414
1765793075313249000,7.1312490234375,-0.06719517707824707,0.00855211354792118,0.16493362188339233
1765793075323258600,7.141258544921875,-0.05619960278272629,-0.009773843921720982,0.18936823308467865
1765793075333238000,7.151238037109375,-0.05375614017248154,-0.04642575979232788,0.17837265133857727
1765793075343247600,7.16124755859375,-0.051312681287527084,-0.08918632566928864,0.1160643994808197
1765793075353257500,7.171257568359375,-0.04153883829712868,-0.11728613078594208,0.045204028487205505
1765793075363267300,7.181267333984375,-0.03176499158143997,-0.1319468915462494,-0.013439035043120384
1765793075373277000,7.19127685546875,-0.009773843921720982,-0.13316862285137177,-0.06108652427792549
1765793075403306200,7.22130615234375,0.05253441259264946,-0.1111774742603302,-0.06475171446800232
1765793075413316000,7.231316162109375,0.06475171446800232,-0.09285151958465576,-0.036651913076639175
1765793075423326000,7.241325927734375,0.07452555745840073,-0.07208210229873657,0.006108652334660292
1765793075433335600,7.25133544921875,0.08307767659425735,-0.05864306539297104,0.039095375686883926
1765793075443345400,7.261345458984375,0.08552113175392151,-0.039095375686883926,0.028099801391363144
1765793075453294000,7.271294189453125,0.09162978827953339,-0.021991148591041565,-0.004886921960860491
1765793075463273500,7.2812734375,0.09529497474431992,-0.01466076634824276,-0.03787364438176155
1765793075473283000,7.291282958984375,0.09040805697441101,-0.0024434609804302454,-0.06963863968849182
1765793075513291800,7.331291748046875,0.09651670604944229,0.042760565876960754,-0.11728613078594208
1765793075523301400,7.34130126953125,0.10751228034496307,0.042760565876960754,-0.05864306539297104
1765793075533280800,7.35128076171875,0.11362093687057495,0.02932153269648552,-0.06108652427792549
1765793075543290400,7.361290283203125,0.11362093687057495,0.02076941914856434,-0.10873401165008545
1765793075553300200,7.37130029296875,0.12217304855585098,0.01710422709584236,-0.14538592100143433
1765793075563310000,7.38131005859375,0.1319468915462494,0.01466076634824276,-0.1661553531885147
1765793075573319700,7.391319580078125,0.13072516024112701,0.010995574295520782,-0.19547687470912933
1765793075583299000,7.401299072265625,0.13439035415649414,0.019547687843441963,-0.21135938167572021
1765793075613297700,7.431297607421875,0.1514945775270462,0.019547687843441963,-0.1514945775270462
1765793075623277000,7.441277099609375,0.1563815027475357,0.009773843921720982,-0.2223549485206604
1765793075633256200,7.451256103515625,0.1563815027475357,0.00366519158706069,-0.30054569244384766
1765793075643266000,7.46126611328125,0.16737708449363708,0.00366519158706069,-0.3176499307155609
1765793075653214700,7.471214599609375,0.16982053220272064,0.0012217304902151227,-0.2480112910270691
1765793075663255000,7.481255126953125,0.1722639948129654,-0.01466076634824276,-0.14782938361167908
1765793075673234200,7.491234130859375,0.16982053220272064,-0.030543262138962746,-0.10262536257505417
1765793075683274500,7.5012744140625,0.17348572611808777,-0.04153883829712868,-0.11728613078594208
1765793075693284400,7.511284423828125,0.18814650177955627,-0.05009094998240471,-0.15760323405265808
1765793075723283200,7.541283203125,0.1869247704744339,-0.08429940044879913,-0.21624629199504852
1765793075733292800,7.551292724609375,0.17837265133857727,-0.07696902006864548,-0.21868975460529327
1765793075743302700,7.561302734375,0.17959438264369965,-0.0708603709936142,-0.19058994948863983
1765793075753343000,7.571343017578125,0.1869247704744339,-0.07819075137376785,-0.16371189057826996
1765793075763352600,7.5813525390625,0.1918116807937622,-0.06352998316287994,-0.18448130786418915
1765793075773332000,7.59133203125,0.2076941877603531,-0.051312681287527084,-0.22968533635139465
1765793075783311000,7.60131103515625,0.2223549485206604,-0.05497787147760391,-0.2773328125476837
1765793075793321000,7.611321044921875,0.2272418737411499,-0.05742133408784866,-0.3090978264808655
1765793075833360100,7.651360107421875,0.24068090319633484,-0.09529497474431992,-0.1258382350206375
1765793075843369700,7.66136962890625,0.24068090319633484,-0.09529497474431992,-0.1258382350206375
1765793075853318400,7.671318359375,0.251676470041275,-0.10751228034496307,-0.1514945775270462
1765793075863328300,7.681328369140625,0.2638937830924988,-0.10384709388017654,-0.2321287989616394
1765793075873307600,7.6913076171875,0.26633724570274353,-0.10751228034496307,-0.34574973583221436
1765793075883347700,7.70134765625,0.26633724570274353,-0.10262536257505417,-0.44104471802711487
1765793075893327000,7.7113271484375,0.26145032048225403,-0.0708603709936142,-0.4447098970413208
1765793075903306200,7.72130615234375,0.2626720666885376,-0.05742133408784866,-0.3604104816913605
1765793075933274600,7.751274658203125,0.2724458873271942,-0.06108652427792549,-0.2064724564552307
1765793075943284200,7.7612841796875,0.27122417092323303,-0.07208210229873657,-0.23090706765651703
1765793075953263600,7.771263671875,0.2675589919090271,-0.07330382615327835,-0.2541199326515198
1765793075963304000,7.781303955078125,0.25045475363731384,-0.07452555745840073,-0.2480112910270691
1765793075973313500,7.7913134765625,0.23579397797584534,-0.0757472887635231,-0.18081611394882202
1765793075993302500,7.811302490234375,0.19547687470912933,-0.09285151958465576,-0.09529497474431992
1765793076003342800,7.8213427734375,0.18448130786418915,-0.09407325088977814,-0.08674286305904388
1765793076033311200,7.851311279296875,0.1466076523065567,-0.042760565876960754,-0.1160643994808197
1765793076043320800,7.86132080078125,0.1270599663257599,-0.021991148591041565,-0.10384709388017654
1765793076053330700,7.87133056640625,0.11362093687057495,-0.025656340643763542,-0.05497787147760391
1765793076063340500,7.881340576171875,0.1111774742603302,-0.021991148591041565,0.0012217304902151227
1765793076073350100,7.89135009765625,0.10384709388017654,-0.013439035043120384,0.01710422709584236
1765793076083360000,7.901360107421875,0.09407325088977814,-0.021991148591041565,0
1765793076093339400,7.91133935546875,0.08674286305904388,-0.03176499158143997,-0.02321287989616394
1765793076103349000,7.921348876953125,0.08307767659425735,-0.039095375686883926,-0.03298672288656235
1765793076153306400,7.971306396484375,0.051312681287527084,-0.05742133408784866,-0.0403171069920063
1765793076163316000,7.98131591796875,0.045204028487205505,-0.06108652427792549,-0.05864306539297104
1765793076173325800,7.991325927734375,0.0403171069920063,-0.059864792972803116,-0.05864306539297104
1765793076183305200,8.00130517578125,0.0354301854968071,-0.05497787147760391,-0.0403171069920063
1765793076193314800,8.011314697265625,0.03176499158143997,-0.04642575979232788,-0.0024434609804302454
1765793076203324700,8.02132470703125,0.02932153269648552,-0.051312681287527084,0.04153883829712868
1765793076213334300,8.031334228515625,0.019547687843441963,-0.059864792972803116,0.04886921867728233
1765793076253312500,8.0713125,-0.02321287989616394,-0.08674286305904388,-0.024434609338641167
1765793076263322000,8.081322021484375,-0.010995574295520782,-0.07452555745840073,0
1765793076273301500,8.091301513671874,-0.00855211354792118,-0.06719517707824707,-0.010995574295520782
1765793076283341800,8.101341796875,0,-0.06230825558304787,-0.03176499158143997
1765793076293351400,8.111351318359375,0.006108652334660292,-0.06230825558304787,-0.05497787147760391
1765793076303361300,8.121361328125,0.00855211354792118,-0.06230825558304787,-0.06230825558304787
1765793076313340400,8.13134033203125,0.009773843921720982,-0.051312681287527084,-0.04642575979232788
1765793076323380700,8.141380615234375,0.018325956538319588,-0.05253441259264946,-0.012217304669320583
1765793076353379600,8.171379638671874,-0.013439035043120384,-0.05009094998240471,0.004886921960860491
1765793076363389400,8.181389404296874,-0.02321287989616394,-0.06230825558304787,0.02076941914856434
1765793076373338000,8.191338134765624,-0.018325956538319588,-0.06475171446800232,0.019547687843441963
1765793076383378400,8.20137841796875,-0.01466076634824276,-0.059864792972803116,-0.00733038317412138
1765793076393388000,8.211387939453125,-0.024434609338641167,-0.04398229718208313,-0.0354301854968071
1765793076403398000,8.22139794921875,-0.028099801391363144,-0.024434609338641167,-0.03298672288656235
1765793076413346600,8.2313466796875,-0.03420845419168472,-0.021991148591041565,-0.01466076634824276
1765793076423356400,8.2413564453125,-0.045204028487205505,-0.01466076634824276,-0.004886921960860491
1765793076433305000,8.25130517578125,-0.051312681287527084,-0.00366519158706069,0.02076941914856434
1765793076483353900,8.301353759765625,-0.04886921867728233,0.02321287989616394,0.015882495790719986
1765793076493363700,8.31136376953125,-0.05253441259264946,0.024434609338641167,-0.0012217304902151227
1765793076503373600,8.32137353515625,-0.05375614017248154,0.03420845419168472,-0.009773843921720982
1765793076513322200,8.331322265625,-0.06230825558304787,0.042760565876960754,-0.012217304669320583
1765793076523331800,8.341331787109375,-0.06963863968849182,0.04398229718208313,-0.0012217304902151227
1765793076533311200,8.351311279296874,-0.07696902006864548,0.03298672288656235,0.021991148591041565
1765793076543351600,8.3613515625,-0.08307767659425735,0.021991148591041565,0.018325956538319588
1765793076583390500,8.401390380859375,-0.07696902006864548,0,0.0354301854968071
1765793076603410200,8.42141015625,-0.06108652427792549,-0.03420845419168472,0.06719517707824707
1765793076613419800,8.431419677734375,-0.05497787147760391,-0.05253441259264946,0.030543262138962746
1765793076623429600,8.4414296875,-0.04886921867728233,-0.07208210229873657,0.010995574295520782
1765793076633439500,8.451439453125,-0.0403171069920063,-0.09407325088977814,0.009773843921720982
1765793076643449000,8.461448974609375,-0.03787364438176155,-0.1160643994808197,-0.00855211354792118
1765793076653459000,8.471458984375,-0.04153883829712868,-0.12461651116609573,-0.018325956538319588
1765793076663438000,8.48143798828125,-0.039095375686883926,-0.10995574295520782,0.006108652334660292
1765793076703416000,8.521416015625,-0.05375614017248154,-0.10262536257505417,0.00733038317412138
1765793076713426000,8.531426025390624,-0.059864792972803116,-0.10995574295520782,0.01710422709584236
1765793076723435800,8.541435791015624,-0.06963863968849182,-0.11362093687057495,0.025656340643763542
1765793076733384400,8.551384521484374,-0.07330382615327835,-0.10873401165008545,0.0354301854968071
1765793076743394300,8.561394287109374,-0.07696902006864548,-0.09285151958465576,0.05497787147760391
1765793076753434400,8.571434326171875,-0.07330382615327835,-0.07452555745840073,0.06352998316287994
1765793076763444200,8.5814443359375,-0.06841690838336945,-0.06963863968849182,0.05253441259264946
1765793076783463700,8.601463623046875,-0.07330382615327835,-0.04153883829712868,0.059864792972803116
1765793076793473500,8.6114736328125,-0.07696902006864548,-0.030543262138962746,0.06719517707824707
1765793076803483400,8.6214833984375,-0.08674286305904388,-0.013439035043120384,0.08918632566928864
1765793076813493000,8.631492919921875,-0.09285151958465576,0.00855211354792118,0.12339477986097336
1765793076823502800,8.6415029296875,-0.09285151958465576,0.01466076634824276,0.14538592100143433
1765793076833512700,8.6515126953125,-0.09285151958465576,0.025656340643763542,0.13927727937698364
1765793076843522300,8.661522216796875,-0.09162978827953339,0.03787364438176155,0.11972958594560623
1765793076853471200,8.67147119140625,-0.09651670604944229,0.04153883829712868,0.12217304855585098
1765793076883500300,8.701500244140625,-0.08674286305904388,0.051312681287527084,0.13072516024112701
1765793076893479700,8.711479736328124,-0.07696902006864548,0.06108652427792549,0.1368338167667389
1765793076903489500,8.721489501953124,-0.0708603709936142,0.06719517707824707,0.12950342893600464
1765793076913499100,8.7314990234375,-0.07941248267889023,0.06719517707824707,0.12461651116609573
1765793076923509000,8.741509033203124,-0.08185594528913498,0.05864306539297104,0.1160643994808197
1765793076933518600,8.7515185546875,-0.09040805697441101,0.05375614017248154,0.10751228034496307
1765793076943498000,8.761498046875,-0.09529497474431992,0.05375614017248154,0.10751228034496307
1765793076953507800,8.7715078125,-0.10018189996480942,0.06352998316287994,0.10873401165008545
1765793076963517400,8.781517333984375,-0.10873401165008545,0.06963863968849182,0.09529497474431992
1765793077013474800,8.831474853515624,-0.1014036312699318,0.1111774742603302,-0.02321287989616394
1765793077023454000,8.841453857421875,-0.09896016865968704,0.11972958594560623,-0.010995574295520782
1765793077033463800,8.8514638671875,-0.09773843735456467,0.1258382350206375,0.021991148591041565
1765793077043473700,8.8614736328125,-0.08796459436416626,0.13072516024112701,0.04764748737215996
1765793077053483300,8.871483154296875,-0.0806342139840126,0.1417207419872284,0.051312681287527084
1765793077063493000,8.8814931640625,-0.07452555745840073,0.15027284622192383,0.051312681287527084
1765793077073502700,8.891502685546875,-0.07330382615327835,0.1417207419872284,0.05253441259264946
1765793077103532000,8.921531982421875,-0.09651670604944229,0.1160643994808197,-0.00855211354792118
1765793077113511400,8.931511474609374,-0.1062905490398407,0.1160643994808197,0.02687807008624077
1765793077123521300,8.941521240234374,-0.11239920556545258,0.1062905490398407,0.08307767659425735
1765793077133531000,8.95153076171875,-0.11728613078594208,0.09040805697441101,0.1062905490398407
1765793077143510300,8.96151025390625,-0.11728613078594208,0.09040805697441101,0.1062905490398407
1765793077153519900,8.971519775390625,-0.12461651116609573,0.07941248267889023,0.07819075137376785
1765793077163529700,8.98152978515625,-0.1270599663257599,0.07208210229873657,0.0403171069920063
1765793077173478400,8.991478515625,-0.12950342893600464,0.06475171446800232,0.02687807008624077
1765793077193467400,9.01146728515625,-0.1258382350206375,0.05619960278272629,0.03298672288656235
1765793077223496700,9.04149658203125,-0.11972958594560623,0.06352998316287994,0.051312681287527084
1765793077233506600,9.051506591796874,-0.1160643994808197,0.06719517707824707,0.045204028487205505
1765793077243516200,9.06151611328125,-0.11362093687057495,0.08185594528913498,0.030543262138962746
1765793077253526000,9.071526123046874,-0.1062905490398407,0.09407325088977814,0.05497787147760391
1765793077263535900,9.081535888671874,-0.10262536257505417,0.09162978827953339,0.10384709388017654
1765793077273545500,9.09154541015625,-0.09896016865968704,0.08552113175392151,0.1270599663257599
1765793077283555300,9.101555419921874,-0.09162978827953339,0.08307767659425735,0.12461651116609573
1765793077313523700,9.131523681640624,-0.04764748737215996,0.06719517707824707,0.11239920556545258
1765793077323533300,9.141533203125,-0.045204028487205505,0.06841690838336945,0.08674286305904388
1765793077333543200,9.151543212890624,-0.03787364438176155,0.0659734457731247,0.09162978827953339
1765793077343552800,9.161552734375,-0.02687807008624077,0.06230825558304787,0.11728613078594208
1765793077353562600,9.171562744140624,-0.015882495790719986,0.05375614017248154,0.13072516024112701
1765793077363542000,9.1815419921875,-0.010995574295520782,0.05497787147760391,0.11728613078594208
1765793077373551600,9.191551513671875,-0.00733038317412138,0.06352998316287994,0.10995574295520782
1765793077383561500,9.2015615234375,-0.006108652334660292,0.051312681287527084,0.11850785464048386
1765793077393540600,9.21154052734375,0.004886921960860491,0.0354301854968071,0.11972958594560623
1765793077423570000,9.24156982421875,0.02932153269648552,0.024434609338641167,0.0757472887635231
1765793077433610200,9.2516103515625,0.03787364438176155,0.02076941914856434,0.10384709388017654
1765793077443620000,9.2616201171875,0.04886921867728233,0.01466076634824276,0.13927727937698364
1765793077453629700,9.271629638671875,0.05497787147760391,0.006108652334660292,0.1563815027475357
1765793077463639600,9.2816396484375,0.0659734457731247,-0.0012217304902151227,0.1514945775270462
1765793077473649400,9.2916494140625,0.0757472887635231,-0.010995574295520782,0.1160643994808197
1765793077483659000,9.301658935546875,0.0757472887635231,-0.021991148591041565,0.08796459436416626
1765793077493638400,9.311638427734374,0.08429940044879913,-0.042760565876960754,0.10751228034496307
1765793077523606500,9.3416064453125,0.0708603709936142,-0.0659734457731247,0.15027284622192383
1765793077543626200,9.361626220703124,0.06108652427792549,-0.06475171446800232,0.05864306539297104
1765793077553635800,9.3716357421875,0.04642575979232788,-0.06352998316287994,0.01710422709584236
1765793077563645700,9.381645751953124,0.03176499158143997,-0.06963863968849182,0.0024434609804302454
1765793077573594400,9.391594482421874,0.019547687843441963,-0.06963863968849182,0.00366519158706069
1765793077583634700,9.401634765625,0.015882495790719986,-0.05742133408784866,0.02076941914856434
1765793077593644500,9.41164453125,0.00366519158706069,-0.051312681287527084,0.030543262138962746
1765793077603654100,9.421654052734375,-0.009773843921720982,-0.04642575979232788,0.021991148591041565
1765793077633683500,9.451683349609375,-0.03298672288656235,-0.0708603709936142,0.10995574295520782
1765793077643693300,9.461693359375,-0.0354301854968071,-0.08918632566928864,0.11728613078594208
1765793077653703200,9.471703125,-0.03420845419168472,-0.1062905490398407,0.09407325088977814
1765793077663712800,9.481712646484375,-0.03176499158143997,-0.12950342893600464,0.04886921867728233
1765793077673722600,9.49172265625,-0.036651913076639175,-0.14782938361167908,0.00733038317412138
1765793077683732200,9.501732177734375,-0.04398229718208313,-0.16004669666290283,0.004886921960860491
1765793077693742000,9.5117421875,-0.05009094998240471,-0.17592918872833252,0.03420845419168472
1765793077703721500,9.521721435546874,-0.05497787147760391,-0.20036379992961884,0.045204028487205505
1765793077733720000,9.551719970703125,-0.024434609338641167,-0.29565876722335815,-0.059864792972803116
1765793077743730000,9.56172998046875,-0.010995574295520782,-0.3286454975605011,-0.09529497474431992
1765793077753709000,9.571708984375,-0.00855211354792118,-0.36163222789764404,-0.1466076523065567
1765793077763719000,9.581718994140624,-0.015882495790719986,-0.38728857040405273,-0.18814650177955627
1765793077773728800,9.591728759765624,-0.015882495790719986,-0.4092797040939331,-0.2028072625398636
1765793077783738400,9.60173828125,-0.018325956538319588,-0.42638394236564636,-0.1966986060142517
1765793077793748200,9.611748291015624,-0.009773843921720982,-0.44226643443107605,-0.19058994948863983
1765793077803758000,9.621758056640624,-0.009773843921720982,-0.44226643443107605,-0.19058994948863983
1765793077823777500,9.641777587890624,-0.02076941914856434,-0.46547931432724,-0.31642818450927734
1765793077833787400,9.651787353515624,-0.025656340643763542,-0.4691445231437683,-0.37262779474258423
1765793077843797000,9.661796875,-0.030543262138962746,-0.4642575979232788,-0.3982841372489929
1765793077853806800,9.671806884765624,-0.0403171069920063,-0.4544837474822998,-0.40683624148368835
1765793077863786000,9.681785888671875,-0.04398229718208313,-0.4544837474822998,-0.41661009192466736
1765793077873795800,9.6917958984375,-0.042760565876960754,-0.4593706727027893,-0.44226643443107605
1765793077883805700,9.7018056640625,-0.04642575979232788,-0.46670106053352356,-0.48869219422340393
1765793077893815300,9.711815185546875,-0.04886921867728233,-0.4715879559516907,-0.5387831330299377
1765793077903825200,9.7218251953125,-0.05619960278272629,-0.46670106053352356,-0.5656611919403076
1765793077913834800,9.731834716796875,-0.05742133408784866,-0.4447098970413208,-0.5436700582504272
1765793077943864000,9.761864013671875,-0.051312681287527084,-0.43127086758613586,-0.5681046843528748
1765793077953843500,9.771843505859374,-0.04398229718208313,-0.4349360466003418,-0.6133087277412415
1765793077983811600,9.8018115234375,-0.009773843921720982,-0.46547931432724,-0.7770205736160278
1765793078003831300,9.821831298828124,0.03176499158143997,-0.4740314185619354,-0.8613200187683105
1765793078013841000,9.8318408203125,0.06230825558304787,-0.4764748811721802,-0.9175195693969727
1765793078023850800,9.841850830078124,0.09285151958465576,-0.485027015209198,-0.9761626720428467
1765793078053910500,9.87191064453125,0.2125810980796814,-0.5522221922874451,-1.214400053024292
1765793078063920400,9.88192041015625,0.24434609711170197,-0.5864306092262268,-1.3060299158096313
1765793078073930000,9.891929931640625,0.27122417092323303,-0.6145304441452026,-1.3585642576217651
1765793078083939800,9.90193994140625,0.26511552929878235,-0.6316346526145935,-1.3573426008224487
1765793078093949700,9.91194970703125,0.24556782841682434,-0.6304129362106323,-1.2974777221679688
1765793078103928800,9.9219287109375,0.24190263450145721,-0.6291912198066711,-1.2021827697753906
1765793078113938700,9.931938720703124,0.2541199326515198,-0.6475171446800232,-1.1484266519546509
1765793078123948300,9.9419482421875,0.2736676335334778,-0.6792821288108826,-1.1997393369674683
1765793078133897200,9.951897216796874,0.3066543638706207,-0.7171558141708374,-1.3329079151153564
1765793078153947100,9.971947021484375,0.4178318381309509,-0.797789990901947,-1.5833626985549927
1765793078163957000,9.98195703125,0.45814892649650574,-0.8112290501594543,-1.635897159576416
1765793078173966600,9.991966552734375,0.4996877610683441,-0.8038986921310425,-1.6004669666290283
1765793078183946000,10.001946044921874,0.5473352670669556,-0.7904596328735352,-1.5063936710357666
1765793078193955800,10.011955810546874,0.5693264007568359,-0.7660250067710876,-1.4294246435165405
1765793078203935000,10.02193505859375,0.598647952079773,-0.7538077235221863,-1.380555510520935
1765793078213944800,10.03194482421875,0.6438519954681396,-0.7623597979545593,-1.3634512424468994
1765793078223924000,10.041924072265624,0.685390830039978,-0.7867944240570068,-1.4098769426345825
1765793078233933800,10.051933837890624,0.7525860071182251,-0.8222246170043945,-1.5320500135421753
1765793078263963100,10.081963134765624,0.9101892113685608,-0.8772025108337402,-1.8264870643615723
1765793078273942300,10.0919423828125,0.9468411207199097,-0.8820894360542297,-1.7556266784667969
1765793078283982600,10.101982666015624,0.9627236127853394,-0.9040805697441101,-1.712866187095642
1765793078293992400,10.111992431640624,0.9627236127853394,-0.9224064946174622,-1.7776178121566772
1765793078303941000,10.121941162109374,0.9639453291893005,-0.9529497623443604,-1.9694294929504395
1765793078313981400,10.1319814453125,0.9639453291893005,-0.988379955291748,-2.2321016788482666
1765793078323991000,10.141990966796875,0.9676105380058289,-1.027475357055664,-2.4837779998779297
1765793078334001000,10.1520009765625,0.9712757468223572,-1.0592403411865234,-2.6535985469818115
1765793078344010800,10.1620107421875,0.9663888216018677,-1.0836749076843262,-2.711019992828369
1765793078364030200,10.1820302734375,0.9443976879119873,-1.0506882667541504,-2.76111102104187
1765793078373979000,10.191978759765625,0.9089674949645996,-1.0348057746887207,-2.85274076461792
1765793078383988700,10.20198876953125,0.8478809595108032,-1.0140362977981567,-2.950479030609131
1765793078393967900,10.2119677734375,0.7831292152404785,-0.9908234477043152,-2.984687566757202
1765793078403977700,10.221977783203124,0.7244861721992493,-0.9834930300712585,-2.9272663593292236
1765793078413956900,10.231956787109375,0.6927211880683899,-0.9712757468223572,-2.8014280796051025
1765793078423966700,10.241966796875,0.6670648455619812,-0.9334021210670471,-2.669481039047241
1765793078433976600,10.2519765625,0.6328563690185547,-0.8808676600456238,-2.5778512954711914
1765793078443955700,10.261955810546874,0.6035348773002625,-0.8442157506942749,-2.5253169536590576
1765793078483964200,10.301964111328125,0.4996877610683441,-0.7721336483955383,-2.546086311340332
1765793078493974000,10.31197412109375,0.4789183437824249,-0.7428121566772461,-2.5509731769561768
1765793078503983900,10.32198388671875,0.45692721009254456,-0.7122688889503479,-2.5130996704101562
1765793078513993500,10.331993408203125,0.3995058834552765,-0.6621779203414917,-2.4251351356506348
1765793078524003300,10.34200341796875,0.3090978264808655,-0.6023131608963013,-2.2931880950927734
1765793078533952000,10.351951904296875,0.2174680233001709,-0.5448917746543884,-2.0696115493774414
1765793078573960700,10.391960693359374,0.13805554807186127,-0.22846360504627228,-0.8148942589759827
1765793078593949700,10.41194970703125,0.09407325088977814,-0.05253441259264946,-0.5302310585975647
1765793078613908200,10.431908203125,0.09040805697441101,0.12828169763088226,-0.46547931432724
1765793078623917800,10.441917724609375,0.0708603709936142,0.2125810980796814,-0.4862487316131592
1765793078633927700,10.451927734375,0.0708603709936142,0.294437050819397,-0.4190535545349121
1765793223117605000,154.93560522460936,0.23090706765651703,-0.07208210229873657,0.11850785464048386
1765793223127584300,154.94558422851563,0.14416420459747314,-0.15027284622192383,0.3335324227809906
1765793223167262500,154.98526245117188,-0.3579670190811157,-0.2675589919090271,-0.04398229718208313
1765793223177072000,154.99507202148436,-0.3286454975605011,-0.24678955972194672,-0.0659734457731247
1765793223186921000,155.0049208984375,-0.3029891550540924,-0.2272418737411499,-0.05009094998240471
1765793223196930600,155.0149306640625,-0.2871066629886627,-0.2076941877603531,-0.02321287989616394
1765793223206940400,155.0249404296875,-0.2919935882091522,-0.18448130786418915,-0.0024434609804302454
1765793223216919600,155.03491943359376,-0.30054569244384766,-0.15393804013729095,0.028099801391363144
1765793223226899000,155.04489892578124,-0.30054569244384766,-0.11972958594560623,0.05253441259264946
1765793223246888000,155.06488793945311,-0.28466320037841797,-0.03787364438176155,0.06963863968849182
1765793223286835500,155.10483544921874,-0.13805554807186127,0.15515977144241333,-0.02932153269648552
1765793223296814600,155.11481469726561,-0.10262536257505417,0.21135938167572021,-0.02687807008624077
1765793223306794000,155.1247939453125,-0.0757472887635231,0.26022860407829285,0.00733038317412138
1765793223316773000,155.13477319335936,-0.09162978827953339,0.304210901260376,0.06108652427792549
1765793223326783000,155.14478295898436,-0.1514945775270462,0.3274237811565399,0.13927727937698364
1765793223346741500,155.16474145507811,-0.36651915311813354,0.2565633952617645,0.2125810980796814
1765793223356781800,155.17478173828124,-0.4691445231437683,0.18081611394882202,0.16371189057826996
1765793223416718300,155.23471826171874,-0.8026769161224365,-0.051312681287527084,-0.4141666293144226
1765793223496704800,155.31470483398436,-0.740368664264679,-0.27977627515792847,-0.9492846131324768
1765793223506684200,155.32468408203124,-0.7819074988365173,-0.2223549485206604,-0.8979719281196594
1765793223516724200,155.33472412109376,-0.8283332586288452,-0.13439035415649414,-0.8356636762619019
1765793223546662100,155.364662109375,-1.0128145217895508,0.16249015927314758,-0.5949827432632446
1765793223576630300,155.39463037109374,-1.243721604347229,0.21380282938480377,-0.14049901068210602
1765793223666565600,155.48456567382811,-0.8283332586288452,0.08674286305904388,0.021991148591041565
1765793223686554600,155.5045546875,-0.6291912198066711,-0.05742133408784866,0.025656340643763542
1765793223696564500,155.514564453125,-0.5558874011039734,-0.1258382350206375,-0.021991148591041565
1765793223776520400,155.5945205078125,-0.3066543638706207,-0.3286454975605011,-0.036651913076639175
1765793223796509400,155.61450952148436,-0.26633724570274353,-0.3445279896259308,-0.05009094998240471
1765793223806519300,155.62451928710936,-0.24678955972194672,-0.3530801236629486,-0.05742133408784866
1765793223816498400,155.63449853515624,-0.23090706765651703,-0.3628539443016052,-0.05619960278272629
1765793223826508300,155.64450830078124,-0.21380282938480377,-0.3591887652873993,-0.05375614017248154
1765793223836487400,155.6544873046875,-0.21013765037059784,-0.34697145223617554,-0.051312681287527084
1765793223846497300,155.66449731445311,-0.19914206862449646,-0.33475416898727417,-0.04398229718208313
1765793223856476400,155.67447631835938,-0.18814650177955627,-0.3127630054950714,-0.05619960278272629
1765793223876465700,155.69446557617186,-0.1966986060142517,-0.2382374405860901,-0.04642575979232788
1765793223886444800,155.70444482421874,-0.20891591906547546,-0.19792033731937408,-0.02687807008624077
1765793223896454700,155.71445458984374,-0.22479841113090515,-0.15760323405265808,-0.02076941914856434
1765793223906433800,155.72443383789061,-0.2431243658065796,-0.12217304855585098,-0.024434609338641167
1765793223916443600,155.73444360351561,-0.26633724570274353,-0.09407325088977814,-0.018325956538319588
1765793223926422800,155.7444228515625,-0.2993239760398865,-0.06963863968849182,0
1765793223936432600,155.7544326171875,-0.33475416898727417,-0.051312681287527084,0.015882495790719986
1765793223946442200,155.76444213867188,-0.384845107793808,-0.039095375686883926,0.028099801391363144
1765793223956421600,155.77442163085936,-0.4300491213798523,-0.03298672288656235,0.030543262138962746
1765793223966400800,155.78440087890624,-0.4691445231437683,-0.03298672288656235,-0.0012217304902151227
1765793223986389800,155.8043896484375,-0.5204572081565857,-0.03298672288656235,-0.08429940044879913
1765793223996369200,155.814369140625,-0.5290092825889587,-0.018325956538319588,-0.07330382615327835
1765793224006348300,155.82434838867186,-0.5424483418464661,0.009773843921720982,-0.00366519158706069
1765793224016327700,155.83432763671874,-0.5424483418464661,0.03298672288656235,0.07941248267889023
1765793224026306800,155.84430688476561,-0.5412266254425049,0.042760565876960754,0.11484266817569733
1765793224036316700,155.85431665039061,-0.5314527750015259,0.04764748737215996,0.10995574295520782
1765793224046326300,155.864326171875,-0.5070181488990784,0.042760565876960754,0.08307767659425735
1765793224056305700,155.8743056640625,-0.4789183437824249,0.024434609338641167,0.036651913076639175
1765793224066223900,155.88422387695311,-0.4544837474822998,-0.00366519158706069,0.006108652334660292
1765793224096253200,155.91425317382811,-0.4105014503002167,-0.07208210229873657,-0.00366519158706069
1765793224106262800,155.9242626953125,-0.3995058834552765,-0.10384709388017654,-0.051312681287527084
1765793224116242200,155.9342421875,-0.384845107793808,-0.13072516024112701,-0.10873401165008545
1765793224136292000,155.9542919921875,-0.34697145223617554,-0.1661553531885147,-0.27000242471694946
1765793224146271500,155.964271484375,-0.33719760179519653,-0.17470745742321014,-0.3628539443016052
1765793224156281300,155.97428125,-0.32498031854629517,-0.18570303916931152,-0.44104471802711487
1765793224166291000,155.984291015625,-0.3127630054950714,-0.21380282938480377,-0.5290092825889587
1765793224176270300,155.99427026367186,-0.2968805134296417,-0.2724458873271942,-0.6609562039375305
1765793224196259300,156.01425927734374,-0.23090706765651703,-0.4495968222618103,-1.0629055500030518
1765793224206238500,156.02423852539061,-0.1722639948129654,-0.5461135506629944,-1.3475687503814697
1765793224216217900,156.0342177734375,-0.10995574295520782,-0.646295428276062,-1.6969836950302124
1765793224226197000,156.04419702148436,-0.02932153269648552,-0.7464773058891296,-2.090380907058716
1765793224236206800,156.05420678710936,0.0659734457731247,-0.8442157506942749,-2.5143213272094727
1765793224246247000,156.06424682617188,0.16493362188339233,-0.9468411207199097,-2.9431488513946533
1765793224256226300,156.07422631835936,0.2590068578720093,-1.0506882667541504,-3.3487632274627686
1765793224266205400,156.08420532226563,0.3384193480014801,-1.1533136367797852,-3.7055084705352783
1765793224276184800,156.09418481445311,0.39584067463874817,-1.264491081237793,-4.014606475830078
1765793224286164000,156.1041640625,0.43249258399009705,-1.3939944505691528,-4.305378437042236
1765793224336121300,156.15412133789061,0.38117989897727966,-1.8008307218551636,-5.203350067138672
1765793224346100500,156.1641005859375,0.3445279896259308,-1.814269781112671,-5.385387897491455
1765793224356079900,156.17407983398436,0.2577851414680481,-1.82404363155365,-5.676159858703613
1765793224366059000,156.18405908203124,0.17837265133857727,-1.8387043476104736,-6.026796340942383
1765793224376068900,156.19406884765624,0.10995574295520782,-1.8203784227371216,-6.323677062988281
1765793224386048000,156.20404809570311,0.03176499158143997,-1.7605136632919312,-6.433632850646973
1765793224406037000,156.224037109375,0.012217304669320583,-1.540602207183838,-5.773898124694824
1765793224416046800,156.234046875,0.024434609338641167,-1.3658946752548218,-5.158145904541016
1765793224426026000,156.24402587890626,-0.06230825558304787,-1.186300277709961,-4.548502445220947
1765793224436005400,156.25400537109374,-0.1319468915462494,-1.027475357055664,-3.9315288066864014
1765793224445984500,156.26398461914061,-0.06841690838336945,-0.8429940342903137,-3.232698917388916
1765793224455994400,156.27399438476561,0.04764748737215996,-0.6487388610839844,-2.5228734016418457
1765793224466004200,156.28400415039061,0.1417207419872284,-0.4813618063926697,-1.9315558671951294
1765793224475983400,156.2939833984375,0.14538592100143433,-0.36163222789764404,-1.6126842498779297
1765793224516022500,156.3340224609375,0.07819075137376785,-0.05742133408784866,-0.6633996367454529
1765793224526032100,156.3440322265625,-0.03787364438176155,-0.0024434609804302454,-0.6047565937042236
1765793224536011500,156.35401147460936,-0.06719517707824707,0.0806342139840126,-0.34208452701568604
1765793224545990700,156.36399072265624,0.00733038317412138,0.2015855312347412,0.07819075137376785
1765793224556000500,156.37400048828124,0.05375614017248154,0.2883284091949463,0.31154128909111023
1765793224566010000,156.38401000976563,0.0659734457731247,0.32009339332580566,0.4593706727027893
1765793224576020000,156.39402001953124,0.1514945775270462,0.41172316670417786,0.6255260109901428
1765793224585968600,156.40396875,0.2736676335334778,0.46792277693748474,0.7293730974197388
1765793224615937000,156.43393701171874,0.36163222789764404,0.5876523852348328,1.2315043210983276
1765793224655945500,156.47394555664061,0.43127086758613586,1.2486085891723633,2.9162707328796387
1765793224665924900,156.4839248046875,0.5937610268592834,1.3353514671325684,2.785545587539673
1765793224675965000,156.49396484375,0.4190535545349121,1.2669345140457153,1.9926424026489258
1765793224685974800,156.50397485351561,0.37262779474258423,1.0506882667541504,1.0885618925094604
1765793224695954200,156.5139541015625,0.37262779474258423,1.0506882667541504,1.0885618925094604
1765793224705933300,156.52393334960936,0.4911356568336487,0.8307767510414124,0.29565876722335815
1765793695120275500,626.938275390625,-0.00366519158706069,-0.004886921960860491,-0.00366519158706069
1765793695130254800,626.9482548828125,0.1160643994808197,-0.036651913076639175,-0.49235737323760986
1765793695140234000,626.9582338867187,0.28099802136421204,-0.028099801391363144,0.11728613078594208
1765793695169802200,626.9878022460938,0.01466076634824276,0.7037167549133301,-0.19058994948863983
1765793695199601000,627.0176008300781,0.04153883829712868,0.8258898258209229,0.10506882518529892
1765793695209610800,627.0276108398438,0.004886921960860491,0.8002334833145142,0.15393804013729095
1765793695219620600,627.0376206054688,-0.018325956538319588,0.7745771408081055,0.2321287989616394
1765793695249527800,627.0675278320313,0.0012217304902151227,0.6316346526145935,0.4300491213798523
1765793695279526700,627.0975266113281,0.12461651116609573,0.39584067463874817,0.4960225820541382
1765793695339432400,627.1574323730468,0.3995058834552765,-0.04398229718208313,0.3933972120285034
1765793695369400800,627.1874008789063,0.34574973583221436,-0.1258382350206375,0.2174680233001709
1765793695389389800,627.2073898925781,0.2064724564552307,-0.11850785464048386,0.23457226157188416
1765793695419388700,627.237388671875,-0.09651670604944229,-0.0403171069920063,0.2626720666885376
1765793695489304300,627.3073041992187,-0.504574716091156,0.05009094998240471,0.31520646810531616
1765793695539109000,627.3571091308594,-0.5400048494338989,-0.04886921867728233,0.039095375686883926
1765793695609024800,627.4270246582031,-0.6377432942390442,-0.18448130786418915,0.08918632566928864
1765793695649002800,627.4670026855468,-0.7122688889503479,-0.1771509200334549,0.20525072515010834
1765793695658951700,627.4769516601563,-0.750142514705658,-0.17837265133857727,0.25534167885780334
1765793695699021000,627.5170209960937,-0.8906415104866028,-0.2541199326515198,0.3701843321323395
1765793695798996700,627.6169968261719,-0.9663888216018677,-0.6585127115249634,0.5375614166259766
1765793695818924800,627.6369248046875,-0.8772025108337402,-0.7684684991836548,0.31642818450927734
1765793695828965000,627.6469650878906,-0.8197811841964722,-0.8222246170043945,0.14538592100143433
1765793695878891800,627.6968918457031,-0.788016140460968,-0.598647952079773,0.1111774742603302
1765793695938828300,627.7568283691406,-0.7122688889503479,-0.1258382350206375,0.4105014503002167
1765793696008744200,627.826744140625,-0.22113321721553802,-0.19058994948863983,0.31520646810531616
1765793696018692900,627.8366928710938,-0.19303341209888458,-0.25045475363731384,0.26511552929878235
1765793696028702500,627.8467023925781,-0.1820378452539444,-0.31642818450927734,0.2064724564552307
1765793696038681900,627.8566818847656,-0.1869247704744339,-0.3787364661693573,0.13805554807186127
1765793696048722200,627.8667221679688,-0.20036379992961884,-0.4288274049758911,0.10506882518529892
1765793696058731800,627.8767316894531,-0.22113321721553802,-0.4593706727027893,0.11850785464048386
1765793696118607400,627.936607421875,-0.2577851414680481,-0.4996877610683441,0.22602014243602753
1765793696128617200,627.9466171875,-0.26022860407829285,-0.5070181488990784,0.2223549485206604
1765793696138566000,627.9565659179688,-0.2590068578720093,-0.5021312236785889,0.23090706765651703
1765793696148606200,627.9666062011719,-0.2590068578720093,-0.4862487316131592,0.26022860407829285
1765793696158615800,627.9766157226562,-0.2590068578720093,-0.4691445231437683,0.2932153046131134
1765793696168625700,627.9866257324219,-0.2528982162475586,-0.4593706727027893,0.28099802136421204
1765793696178604800,627.9966047363281,-0.24434609711170197,-0.4447098970413208,0.24434609711170197
1765793696188553700,628.0065537109375,-0.23335053026676178,-0.4349360466003418,0.21013765037059784
1765793696198532900,628.0165329589844,-0.21624629199504852,-0.43127086758613586,0.16493362188339233
1765793696208481500,628.0264814453125,-0.19792033731937408,-0.42760565876960754,0.10873401165008545
1765793696218430500,628.0364304199219,-0.18448130786418915,-0.4239404797554016,0.07819075137376785
1765793696228440000,628.0464401855469,-0.1661553531885147,-0.4202753007411957,0.08429940044879913
1765793696238388700,628.056388671875,-0.14905111491680145,-0.42760565876960754,0.0806342139840126
1765793696248368000,628.0663681640625,-0.13561208546161652,-0.4349360466003418,0.024434609338641167
1765793696258316800,628.0763168945313,-0.11850785464048386,-0.43737950921058655,-0.05009094998240471
1765793696268326700,628.0863266601563,-0.10262536257505417,-0.43737950921058655,-0.10751228034496307
1765793696298294800,628.1162946777343,-0.11239920556545258,-0.3897320330142975,-0.21013765037059784
1765793696308335000,628.1263352050781,-0.11972958594560623,-0.36651915311813354,-0.17104226350784302
1765793696318345000,628.1363449707031,-0.13439035415649414,-0.34208452701568604,-0.14049901068210602
1765793696328354600,628.1463544921875,-0.14049901068210602,-0.3066543638706207,-0.12950342893600464
1765793696338334000,628.156333984375,-0.13316862285137177,-0.2687807083129883,-0.10262536257505417
1765793696348374300,628.1663742675781,-0.13316862285137177,-0.23579397797584534,-0.09529497474431992
1765793696358383900,628.1763837890625,-0.13439035415649414,-0.19792033731937408,-0.09773843735456467
1765793696368393700,628.1863937988281,-0.1270599663257599,-0.15271630883216858,-0.07696902006864548
1765793696408371700,628.2263718261719,-0.12950342893600464,0.03298672288656235,0.14905111491680145
1765793696418381600,628.2363815917969,-0.11850785464048386,0.06475171446800232,0.2125810980796814
1765793696428360700,628.2463605957031,-0.10384709388017654,0.08429940044879913,0.2076941877603531
1765793696438340000,628.2563400878906,-0.0806342139840126,0.10018189996480942,0.16249015927314758
1765793696448349700,628.266349609375,-0.05619960278272629,0.11362093687057495,0.10995574295520782
1765793696458329000,628.2763291015625,-0.03176499158143997,0.12095131725072861,0.06475171446800232
1765793696468338700,628.2863386230468,-0.0024434609804302454,0.12461651116609573,0.03298672288656235
1765793696478318000,628.2963181152344,0.02687807008624077,0.12828169763088226,0.012217304669320583
1765793696508317000,628.3263168945313,0.0659734457731247,0.16004669666290283,0.07819075137376785
1765793696518296000,628.3362961425781,0.06108652427792549,0.16004669666290283,0.09529497474431992
1765793696528306000,628.3463059082031,0.06108652427792549,0.15393804013729095,0.05375614017248154
1765793696538285000,628.35628515625,0.05497787147760391,0.16004669666290283,-0.009773843921720982
1765793696548325400,628.3663254394531,0.04642575979232788,0.17470745742321014,-0.05619960278272629
1765793696558304500,628.3763044433593,0.03298672288656235,0.1966986060142517,-0.09040805697441101
1765793696568314400,628.386314453125,0.015882495790719986,0.2321287989616394,-0.11239920556545258
1765793696578293800,628.3962937011719,-0.0024434609804302454,0.27000242471694946,-0.10384709388017654
1765793696598282800,628.4162827148438,-0.05619960278272629,0.3579670190811157,-0.0354301854968071
1765793696608262000,628.4262619628906,-0.09407325088977814,0.4031710624694824,0.02076941914856434
1765793696618241000,628.4362409667968,-0.13927727937698364,0.4337143301963806,0.03420845419168472
1765793696628220400,628.4462204589844,-0.17470745742321014,0.4495968222618103,-0.00366519158706069
1765793696638199600,628.4561994628906,-0.20525072515010834,0.45692721009254456,-0.04764748737215996
1765793696648209400,628.4662094726563,-0.22357667982578278,0.455705463886261,-0.06352998316287994
1765793696658188500,628.4761884765625,-0.23335053026676178,0.46792277693748474,-0.04398229718208313
1765793696668198400,628.4861984863281,-0.24434609711170197,0.48258355259895325,0.00855211354792118
1765793696678208300,628.4962082519531,-0.2528982162475586,0.5021312236785889,0.08796459436416626
1765793696688217900,628.5062177734375,-0.24923302233219147,0.5155702829360962,0.17104226350784302
1765793696698197200,628.516197265625,-0.24068090319633484,0.513126790523529,0.21135938167572021
1765793696728165400,628.5461652832031,-0.1722639948129654,0.475253164768219,0.15515977144241333
1765793696738114300,628.5561142578125,-0.1270599663257599,0.455705463886261,0.14905111491680145
1765793696748124000,628.5661240234375,-0.07452555745840073,0.43737950921058655,0.15515977144241333
1765793696758103300,628.5761032714844,-0.02076941914856434,0.4178318381309509,0.14416420459747314
1765793696768082400,628.5860825195313,0.04398229718208313,0.3885102868080139,0.10506882518529892
1765793696778061800,628.5960617675781,0.1160643994808197,0.3591887652873993,0.0403171069920063
1765793696788102000,628.6061018066406,0.18570303916931152,0.3396410644054413,0
1765793696798111700,628.6161118164063,0.2480112910270691,0.31031954288482666,-0.00366519158706069
1765793696828049400,628.6460493164062,0.31642818450927734,0.16004669666290283,-0.5302310585975647
1765793696838059300,628.6560593261719,0.26022860407829285,0.19792033731937408,-0.6108652353286743
1765793696857987300,628.6759873046875,0.05253441259264946,0.4129449129104614,-0.38117989897727966
1765793696867966500,628.6859665527344,-0.04153883829712868,0.5412266254425049,-0.29565876722335815
1765793696887955500,628.7059555664063,-0.19425514340400696,0.7745771408081055,-0.06963863968849182
1765793696917862700,628.7358625488281,-0.38117989897727966,0.9480628371238708,0.27977627515792847
1765793696927842000,628.7458420410156,-0.41172316670417786,0.9615018963813782,0.37140607833862305
1765793696937821200,628.7558212890625,-0.4447098970413208,0.9419541954994202,0.42760565876960754
1765793696947861500,628.7658615722656,-0.4703662395477295,0.8918632864952087,0.46181413531303406
1765793696957840600,628.7758405761718,-0.48380526900291443,0.8112290501594543,0.4642575979232788
1765793696967850500,628.7858505859375,-0.46792277693748474,0.7012733221054077,0.3995058834552765
1765793696977830000,628.7958298339844,-0.4288274049758911,0.5864306092262268,0.2919935882091522
1765793696987809000,628.8058090820313,-0.37140607833862305,0.48258355259895325,0.19058994948863983
1765793696997788200,628.8157880859375,-0.304210901260376,0.40072759985923767,0.13805554807186127
1765793697037735700,628.8557355957031,-0.13805554807186127,0.1771509200334549,0.11972958594560623
1765793697047715000,628.8657150878906,-0.13805554807186127,0.14294247329235077,0.09651670604944229
1765793697057694200,628.8756940917968,-0.15393804013729095,0.1111774742603302,0.07819075137376785
1765793697067734500,628.8857346191406,-0.17104226350784302,0.08307767659425735,0.06475171446800232
1765793697077714000,628.8957138671875,-0.21135938167572021,0.05864306539297104,0.05009094998240471
1765793697087693000,628.9056931152344,-0.2724458873271942,0.03298672288656235,0.03420845419168472
1765793697097672200,628.9156721191406,-0.33597588539123535,0.010995574295520782,0.015882495790719986
1765793697147599000,628.9655991210938,-0.6145304441452026,0.0806342139840126,0.025656340643763542
1765793697157578200,628.975578125,-0.6340781450271606,0.09407325088977814,0.0354301854968071
1765793697167557600,628.9855576171875,-0.6401867866516113,0.10262536257505417,0.028099801391363144
1765793697177506300,628.9955063476563,-0.6426302194595337,0.12461651116609573,0.05864306539297104
1765793697187516200,629.0055161132813,-0.6450737118721008,0.13561208546161652,0.10384709388017654
1765793697197495300,629.0154953613281,-0.646295428276062,0.13805554807186127,0.11484266817569733
1765793697207505200,629.0255051269531,-0.6414085030555725,0.13072516024112701,0.11728613078594208
1765793697217514800,629.0355146484375,-0.6414085030555725,0.11362093687057495,0.10873401165008545
1765793697227524600,629.0455246582031,-0.6475171446800232,0.09896016865968704,0.09651670604944229
1765793697267441700,629.0854416503906,-0.6805039048194885,-0.00366519158706069,0.09651670604944229
1765793697277420800,629.0954208984375,-0.6939429044723511,-0.04642575979232788,0.06719517707824707
1765793697287400200,629.1054001464844,-0.7086036801338196,-0.09529497474431992,0.05497787147760391
1765793697297379300,629.1153793945313,-0.7269296646118164,-0.14416420459747314,0.05375614017248154
1765793697307389200,629.1253891601563,-0.7538077235221863,-0.19058994948863983,0.06475171446800232
1765793697317398800,629.1353986816406,-0.7538077235221863,-0.19058994948863983,0.06475171446800232
1765793697327408600,629.1454086914063,-0.7770205736160278,-0.23335053026676178,0.07696902006864548
1765793697357346300,629.1753461914062,-0.8600982427597046,-0.3078760802745819,0.11972958594560623
1765793697367325700,629.1853256835938,-0.8833111524581909,-0.33597588539123535,0.1466076523065567
1765793697377366000,629.1953659667969,-0.9028588533401489,-0.3738495409488678,0.17959438264369965
1765793697387284200,629.2052841796875,-0.9175195693969727,-0.4080579876899719,0.19914206862449646
1765793697397233000,629.2152329101563,-0.9236282706260681,-0.4386012554168701,0.20402899384498596
1765793697407212000,629.2252119140625,-0.9272934198379517,-0.46181413531303406,0.20402899384498596
1765793697417191400,629.23519140625,-0.9248499870300293,-0.4764748811721802,0.22968533635139465
1765793697427140000,629.2451401367188,-0.9224064946174622,-0.4948008358478546,0.2687807083129883
1765793697447129000,629.2651291503906,-0.9346238374710083,-0.5290092825889587,0.2871066629886627
1765793697487046100,629.3050461425781,-1.0629055500030518,-0.5510004758834839,0.3078760802745819
1765793697497025300,629.315025390625,-1.1117748022079468,-0.5412266254425049,0.33108896017074585
1765793697507035100,629.32503515625,-1.1655309200286865,-0.5277875661849976,0.36651915311813354
1765793697517014300,629.3350141601562,-1.2327260971069336,-0.5106833577156067,0.4251621961593628
1765793697527024000,629.3450241699219,-1.291369080543518,-0.5070181488990784,0.48258355259895325
1765793697537003300,629.3550031738281,-1.330464482307434,-0.5216789245605469,0.513126790523529
1765793697547013000,629.3650131835938,-1.3463469743728638,-0.5632177591323853,0.48747047781944275
1765793697556992300,629.3749921875,-1.3182471990585327,-0.6291912198066711,0.4178318381309509
1765793697567002000,629.3850021972656,-1.2620476484298706,-0.7049384713172913,0.31520646810531616
1765793697577012000,629.3950119628906,-1.197295904159546,-0.7660250067710876,0.20891591906547546
1765793697586991000,629.4049912109375,-1.1239920854568481,-0.797789990901947,0.1563815027475357
1765793697597001000,629.4150009765625,-1.0714576244354248,-0.8002334833145142,0.15882496535778046
1765793697607010600,629.4250104980468,-1.0348057746887207,-0.789237916469574,0.19547687470912933
1765793697617020400,629.4350205078125,-1.0067058801651,-0.7806857824325562,0.22968533635139465
1765793697626999800,629.4449997558594,-0.9908234477043152,-0.7684684991836548,0.23090706765651703
1765793697636979000,629.4549790039063,-0.9896016716957092,-0.7525860071182251,0.21380282938480377
1765793697646958000,629.4649580078125,-0.9993755221366882,-0.7452555894851685,0.19914206862449646
1765793697676896000,629.4948959960938,-1.0775662660598755,-0.6792821288108826,0.16737708449363708
1765793697696854500,629.5148544921875,-1.1117748022079468,-0.5900958180427551,0.30054569244384766
1765793697706864000,629.5248640136718,-1.1215485334396362,-0.5436700582504272,0.3445279896259308
1765793697716843500,629.5348435058594,-1.1142182350158691,-0.5094616413116455,0.3799581825733185
1765793697726853000,629.5448530273437,-1.0934487581253052,-0.48747047781944275,0.39095374941825867
1765793697736832500,629.5548325195313,-1.0543533563613892,-0.475253164768219,0.3677408695220947
1765793697746811600,629.5648117675781,-1.007927656173706,-0.4691445231437683,0.32620203495025635
1765793697756791000,629.574791015625,-0.9468411207199097,-0.46181413531303406,0.28466320037841797
1765793697776749600,629.5947495117188,-0.8381071090698242,-0.45326200127601624,0.2431243658065796
1765793697786728700,629.6047287597656,-0.8038986921310425,-0.46181413531303406,0.24434609711170197
1765793697796707800,629.6147077636718,-0.7757988572120667,-0.47280970215797424,0.21991148591041565
1765793697806687200,629.6246872558594,-0.759916365146637,-0.4899139404296875,0.1514945775270462
1765793697816666400,629.6346662597656,-0.759916365146637,-0.49724429845809937,0.06475171446800232
1765793697826645800,629.6446457519531,-0.7831292152404785,-0.4996877610683441,0
1765793697836625000,629.654625,-0.8258898258209229,-0.5021312236785889,-0.05742133408784866
1765793697846604300,629.6646042480469,-0.8784242272377014,-0.49235737323760986,-0.09407325088977814
1765793697856614000,629.6746137695312,-0.9370672702789307,-0.45814892649650574,-0.05375614017248154
1765793697866623700,629.6846237792969,-1.0042624473571777,-0.4153883755207062,0.013439035043120384
1765793697876603000,629.6946027832031,-1.0653489828109741,-0.3689626157283783,0.02932153269648552
1765793697896592000,629.714591796875,-1.1288789510726929,-0.2590068578720093,0.02076941914856434
1765793697906601700,629.7246018066406,-1.1386528015136719,-0.2064724564552307,0.019547687843441963
1765793697916611600,629.7346115722656,-1.1349875926971436,-0.1612684279680252,0.0403171069920063
1765793697926590700,629.7445908203125,-1.1349875926971436,-0.1612684279680252,0.0403171069920063
1765793697936570000,629.7545700683594,-1.1142182350158691,-0.12339477986097336,0.05253441259264946
1765793697946579700,629.7645798339844,-1.086118459701538,-0.08185594528913498,0.08307767659425735
1765793697956559000,629.7745590820313,-1.0555751323699951,-0.05497787147760391,0.1270599663257599
1765793697986557700,629.8045576171875,-0.9847147464752197,-0.02687807008624077,0.13561208546161652
1765793698006546700,629.8245466308593,-0.93095862865448,-0.05497787147760391,0.05253441259264946
1765793698016526000,629.8345261230469,-0.9138544201850891,-0.07330382615327835,0.01710422709584236
1765793698026505200,629.8445051269531,-0.9004153609275818,-0.08674286305904388,-0.012217304669320583
1765793698036484600,629.8544846191406,-0.8869763612747192,-0.1014036312699318,-0.036651913076639175
1765793698046463700,629.8644636230468,-0.8833111524581909,-0.11972958594560623,-0.08429940044879913
1765793698056443100,629.8744431152344,-0.8857545852661133,-0.12950342893600464,-0.12217304855585098
1765793698066483500,629.8844833984375,-0.8857545852661133,-0.13072516024112701,-0.14049901068210602
1765793698076493000,629.8944931640625,-0.8894197940826416,-0.11362093687057495,-0.15515977144241333
1765793698106461400,629.9244614257813,-0.8662069439888,-0.059864792972803116,-0.15515977144241333
1765793698116440600,629.9344406738281,-0.8539896011352539,-0.039095375686883926,-0.14782938361167908
1765793698126420000,629.944419921875,-0.8393288254737854,-0.019547687843441963,-0.14049901068210602
1765793698136399000,629.9543991699219,-0.8210029006004333,0.0012217304902151227,-0.12950342893600464
1765793698146378200,629.9643781738281,-0.797789990901947,0.013439035043120384,-0.12828169763088226
1765793698156357600,629.9743576660156,-0.7709119319915771,0.028099801391363144,-0.14905111491680145
1765793698166398000,629.9843979492188,-0.7452555894851685,0.04642575979232788,-0.1612684279680252
1765793698176377000,629.9943771972656,-0.7220427393913269,0.06230825558304787,-0.1417207419872284
1765793698186387000,630.0043869628906,-0.7098253965377808,0.07330382615327835,-0.13316862285137177
1765793698196396500,630.014396484375,-0.7024950385093689,0.08552113175392151,-0.14782938361167908
1765793698206376000,630.0243759765625,-0.6914994716644287,0.08796459436416626,-0.1722639948129654
1765793698216355000,630.0343549804687,-0.6866125464439392,0.09407325088977814,-0.19303341209888458
1765793698226334500,630.0443344726563,-0.6829473376274109,0.10751228034496307,-0.1612684279680252
1765793698236313600,630.0543137207031,-0.6841690540313721,0.11362093687057495,-0.12828169763088226
1765793698246293000,630.06429296875,-0.6817256212234497,0.11972958594560623,-0.14049901068210602
1765793698256272100,630.0742722167969,-0.6670648455619812,0.12828169763088226,-0.16859880089759827
1765793698266251500,630.0842514648438,-0.6487388610839844,0.1368338167667389,-0.18081611394882202
1765793698276230700,630.0942307128906,-0.6316346526145935,0.14416420459747314,-0.18814650177955627
1765793698286240500,630.1042404785156,-0.607200026512146,0.15760323405265808,-0.17837265133857727
1765793698316239000,630.1342390136718,-0.4789183437824249,0.1722639948129654,-0.1014036312699318
1765793698326249000,630.1442490234375,-0.4190535545349121,0.1722639948129654,-0.1111774742603302
1765793698336228000,630.1542280273437,-0.3628539443016052,0.16982053220272064,-0.12217304855585098
1765793698346268400,630.1642683105468,-0.30054569244384766,0.16371189057826996,-0.13805554807186127
1765793698356247800,630.1742478027344,-0.22968533635139465,0.14905111491680145,-0.17837265133857727
1765793698366257400,630.1842573242187,-0.15515977144241333,0.13316862285137177,-0.2370157092809677
1765793698376206300,630.1942062988281,-0.07819075137376785,0.1111774742603302,-0.32620203495025635
1765793698386185500,630.204185546875,0.00366519158706069,0.0806342139840126,-0.44837507605552673
1765793698396164600,630.2141645507812,0.08918632566928864,0.04153883829712868,-0.5766568183898926
1765793698426133000,630.2441330566406,0.4178318381309509,-0.23335053026676178,-1.2412781715393066
1765793698436112100,630.2541120605468,0.5485569834709167,-0.35063666105270386,-1.6285667419433594
1765793698446091500,630.2640915527344,0.6780604124069214,-0.4703662395477295,-2.0561723709106445
1765793698456101400,630.2741013183594,0.8026769161224365,-0.5864306092262268,-2.517986536026001
1765793698466111000,630.2841110839844,0.940732479095459,-0.6316346526145935,-2.886949062347412
1765793698476059600,630.2940595703125,1.1093312501907349,-0.616973876953125,-2.961474657058716
1765793698486100000,630.3040998535156,1.263269305229187,-0.5949827432632446,-2.8600711822509766
1765793698496079400,630.3140793457031,1.4037683010101318,-0.5729916095733643,-2.8454103469848633
1765793698506119700,630.3241196289063,1.607797384262085,-0.5717698931694031,-3.0188961029052734
1765793698536087800,630.354087890625,2.2870795726776123,-0.646295428276062,-4.236961364746094
1765793698546067200,630.3640671386719,2.2870795726776123,-0.646295428276062,-4.236961364746094
1765793698556046300,630.3740463867188,2.7488934993743896,-0.6426302194595337,-4.656014919281006
1765793698566056200,630.3840561523438,2.7488934993743896,-0.6426302194595337,-4.656014919281006
1765793698576035300,630.3940354003906,2.9333748817443848,-0.6377432942390442,-4.481307506561279
1765793698586014500,630.4040144042968,3.1337387561798096,-0.6536257863044739,-4.229630947113037
1765793698595993900,630.4139938964844,3.3597588539123535,-0.6682865619659424,-4.117231845855713
1765793698605973000,630.4239729003906,3.6053266525268555,-0.6743952035903931,-4.179540157318115
1765793698645920500,630.4639204101562,4.414112091064453,-0.5546656250953674,-4.334699630737305
