time,seconds_elapsed,z,y,x
1765793067373163500,-0.80883642578125,9.432185173034668,-0.2272232472896576,-2.6744437217712402
1765793067403131600,-0.778868408203125,9.431319236755371,-0.24190974235534668,-2.6762075424194336
1765793067413110800,-0.76888916015625,9.431746482849121,-0.23773564398288727,-2.675074815750122
1765793067423090200,-0.758909912109375,9.432632446289062,-0.23583388328552246,-2.672119140625
1765793067433038800,-0.748961181640625,9.434287071228027,-0.23881453275680542,-2.6660046577453613
1765793067443079200,-0.7389208984375,9.436738014221191,-0.24592535197734833,-2.656667470932007
1765793067453119500,-0.728880615234375,9.441503524780273,-0.2539096772670746,-2.638927936553955
1765793067463129000,-0.718870849609375,9.44450569152832,-0.25442880392074585,-2.628110408782959
1765793067473078000,-0.708921875,9.448071479797363,-0.25415873527526855,-2.615290641784668
1765793067483118300,-0.698881591796875,9.451131820678711,-0.2533639371395111,-2.6042850017547607
1765793067513117000,-0.668883056640625,9.45626449584961,-0.25140324234962463,-2.585777521133423
1765793067533136600,-0.64886328125,9.456822395324707,-0.24081028997898102,-2.584746837615967
1765793067543115800,-0.63888427734375,9.456497192382812,-0.23985518515110016,-2.586022138595581
1765793067553125600,-0.628874267578125,9.456908226013184,-0.23465988039970398,-2.584995746612549
1765793067563135200,-0.61886474609375,9.457622528076172,-0.23449137806892395,-2.582397937774658
1765793067573145000,-0.60885498046875,9.458518028259277,-0.23596501350402832,-2.57898211479187
1765793067583155000,-0.598844970703125,9.460410118103027,-0.23386600613594055,-2.5722248554229736
1765793067593134000,-0.588865966796875,9.462372779846191,-0.23098216950893402,-2.565253257751465
1765793067613153500,-0.568846435546875,9.465484619140625,-0.23108164966106415,-2.5537400245666504
1765793067633142500,-0.548857421875,9.466519355773926,-0.22701746225357056,-2.550264358520508
1765793067643152400,-0.53884765625,9.467668533325195,-0.22240759432315826,-2.5464026927948
1765793067653131800,-0.5288681640625,9.469047546386719,-0.21757975220680237,-2.5416908264160156
1765793067663171800,-0.518828125,9.469318389892578,-0.2151164561510086,-2.5408880710601807
1765793067673120800,-0.508879150390625,9.47045612335205,-0.21045568585395813,-2.5370352268218994
1765793067683130400,-0.49886962890625,9.470998764038086,-0.20769700407981873,-2.5352377891540527
1765793067693140200,-0.48885986328125,9.47149658203125,-0.20574826002120972,-2.533535957336426
1765793067743097600,-0.43890234375,9.473047256469727,-0.2099754810333252,-2.527386426925659
1765793067763147500,-0.4188525390625,9.522306442260742,-0.15640777349472046,-2.339144468307495
1765793067783197700,-0.39880224609375,9.52087116241455,-0.1575969159603119,-2.3448996543884277
1765793067793207300,-0.388792724609375,9.519670486450195,-0.1599663496017456,-2.349612236022949
1765793067803217200,-0.378782958984375,9.518385887145996,-0.1613050401210785,-2.354719400405884
1765793067813196300,-0.3688037109375,9.517197608947754,-0.16119635105133057,-2.359524965286255
1765793067823206100,-0.3587939453125,9.515667915344238,-0.16277042031288147,-2.3655803203582764
1765793067833216000,-0.348783935546875,9.514694213867188,-0.16576631367206573,-2.369283676147461
1765793067843225600,-0.3387744140625,9.513788223266602,-0.16881437599658966,-2.3727033138275146
1765793067853174300,-0.32882568359375,9.512996673583984,-0.17102818191051483,-2.375715970993042
1765793067863214600,-0.318785400390625,9.512645721435547,-0.17202128469944,-2.3770487308502197
1765793067873194000,-0.308805908203125,9.511993408203125,-0.1747809648513794,-2.379457712173462
1765793067883234300,-0.298765625,9.51170539855957,-0.17678585648536682,-2.3804619312286377
1765793067893213400,-0.28878662109375,9.511497497558594,-0.17904527485370636,-2.3811228275299072
1765793067903192600,-0.278807373046875,9.511340141296387,-0.18030275404453278,-2.381657838821411
1765793067933222000,-0.248778076171875,9.51041030883789,-0.18884384632110596,-2.384706497192383
1765793067943201300,-0.238798828125,9.510284423828125,-0.1900983452796936,-2.3851091861724854
1765793067953211000,-0.2287890625,9.509806632995605,-0.19305063784122467,-2.386775493621826
1765793067963220700,-0.218779296875,9.509037017822266,-0.19789083302021027,-2.3894448280334473
1765793067973200100,-0.2087998046875,9.508397102355957,-0.20173843204975128,-2.391667366027832
1765793067983209700,-0.198790283203125,9.507640838623047,-0.20420412719249725,-2.3944623470306396
1765793067993189000,-0.188810791015625,9.506815910339355,-0.2055845707654953,-2.3976199626922607
1765793068003198700,-0.17880126953125,9.505772590637207,-0.20585580170154572,-2.4017302989959717
1765793068013178000,-0.16882177734375,9.504447937011719,-0.20466051995754242,-2.407066822052002
1765793068023187700,-0.158812255859375,9.503642082214355,-0.2022564858198166,-2.410451650619507
1765793068043176700,-0.1388232421875,9.500894546508789,-0.2178943157196045,-2.4198954105377197
1765793068053125600,-0.128874267578125,9.49905776977539,-0.22262749075889587,-2.4266695976257324
1765793068063135200,-0.11886474609375,9.497391700744629,-0.22807131707668304,-2.432677745819092
1765793068073114600,-0.108885498046875,9.495526313781738,-0.22831709682941437,-2.439926862716675
1765793068083124200,-0.098875732421875,9.493764877319336,-0.23108769953250885,-2.446509599685669
1765793068093073200,-0.0889267578125,9.492998123168945,-0.23986554145812988,-2.448641777038574
1765793068103113200,-0.07888671875,9.492342948913574,-0.24741119146347046,-2.4504294395446777
1765793068113092600,-0.068907470703125,9.491046905517578,-0.2552323341369629,-2.454644203186035
1765793068123102500,-0.0588974609375,9.490304946899414,-0.25849461555480957,-2.4571683406829834
1765793068143060700,-0.038939208984375,9.487186431884766,-0.2664380669593811,-2.4683382511138916
1765793068153070600,-0.028929443359375,9.486283302307129,-0.26830992102622986,-2.471605062484741
1765793068163080400,-0.01891943359375,9.484862327575684,-0.2711162269115448,-2.4767463207244873
1765793068173090000,-0.008909912109375,9.483856201171875,-0.2746444642543793,-2.4802074432373047
1765793068183039000,0.0010390625,9.483219146728516,-0.2777549922466278,-2.4822964668273926
1765793068193079000,0.0110791015625,9.482891082763672,-0.27836334705352783,-2.4834811687469482
1765793068203089000,0.0210888671875,9.482834815979004,-0.2779560387134552,-2.48374080657959
1765793068213068300,0.031068359375,9.482778549194336,-0.2789064049720764,-2.4838483333587646
1765793068223078000,0.041077880859375,9.48237419128418,-0.28528499603271484,-2.4846720695495605
1765793068243067000,0.06106689453125,9.482300758361816,-0.2936793267726898,-2.48397159576416
1765793068263086600,0.081086669921875,9.481400489807129,-0.2970978617668152,-2.486999750137329
1765793068273065700,0.091065673828125,9.479439735412598,-0.3110552430152893,-2.4927585124969482
1765793068283075600,0.10107568359375,9.478280067443848,-0.32337644696235657,-2.4956002235412598
1765793068293024300,0.111024169921875,9.478346824645996,-0.3313482701778412,-2.4943015575408936
1765793068303003400,0.12100341796875,9.479294776916504,-0.33489975333213806,-2.490222215652466
1765793068312982800,0.130982666015625,9.481197357177734,-0.33363595604896545,-2.4831366539001465
1765793068322962000,0.1409619140625,9.481963157653809,-0.33320119976997375,-2.4802675247192383
1765793068332971800,0.1509716796875,9.483245849609375,-0.3322792947292328,-2.4754831790924072
1765793068352960800,0.170960693359375,9.485688209533691,-0.32901671528816223,-2.466547966003418
1765793068362940000,0.18093994140625,9.48576545715332,-0.3199150860309601,-2.4674458503723145
1765793068372980200,0.190980224609375,9.48637580871582,-0.316910982131958,-2.4654877185821533
1765793068382990000,0.200989990234375,9.485983848571777,-0.3090120553970337,-2.46799635887146
1765793068393000000,0.211,9.484588623046875,-0.29424864053726196,-2.4751527309417725
1765793068402979000,0.22097900390625,9.48395824432373,-0.2811110019683838,-2.4790937900543213
1765793068412989000,0.230989013671875,9.483969688415527,-0.2714236080646515,-2.4801273345947266
1765793068422998500,0.24099853515625,9.483287811279297,-0.24388490617275238,-2.4855897426605225
1765793068433008400,0.25100830078125,9.48292350769043,-0.23659664392471313,-2.487682819366455
1765793068443018200,0.261018310546875,9.481730461120605,-0.22382402420043945,-2.493405342102051
1765793068462976500,0.2809765625,9.480850219726562,-0.18596063554286957,-2.499856472015381
1765793068492975400,0.310975341796875,9.478800773620605,-0.11865799874067307,-2.51170015335083
1765793068512964400,0.33096435546875,9.479454040527344,-0.09362473338842392,-2.5102930068969727
1765793068522943700,0.34094384765625,9.478349685668945,-0.10528145730495453,-2.51400089263916
1765793068532984000,0.350984130859375,9.476250648498535,-0.10153214633464813,-2.5220532417297363
1765793068563013000,0.38101318359375,9.475378036499023,-0.03186742961406708,-2.5271708965301514
1765793068573023000,0.39102294921875,9.47542953491211,-0.02264164388179779,-2.5270769596099854
1765793068583032800,0.40103271484375,9.474920272827148,-0.00821774359792471,-2.5290699005126953
1765793068593042400,0.41104248046875,9.47504997253418,0.0022667942102998495,-2.5285987854003906
1765793068603052300,0.42105224609375,9.475616455078125,0.012027967721223831,-2.52644681930542
1765793068613031700,0.43103173828125,9.475852966308594,0.02046031691133976,-2.5255045890808105
1765793068623041300,0.441041259765625,9.47575855255127,0.027092475444078445,-2.5257985591888428
1765793068633020700,0.451020751953125,9.474573135375977,0.03769264370203018,-2.5301060676574707
1765793068643030300,0.4610302734375,9.472220420837402,0.04280390962958336,-2.538818597793579
1765793068673059600,0.4910595703125,9.46605396270752,0.07289253175258636,-2.5610334873199463
1765793068683069400,0.5010693359375,9.464295387268066,0.09248868376016617,-2.566892623901367
1765793068693018000,0.51101806640625,9.46265983581543,0.11248008161783218,-2.572120189666748
1765793068702997500,0.52099755859375,9.460143089294434,0.1277228742837906,-2.5806548595428467
1765793068713007000,0.531007080078125,9.457911491394043,0.1439191848039627,-2.587968587875366
1765793068723017000,0.541016845703125,9.455551147460938,0.1681259572505951,-2.5951266288757324
1765793068732965600,0.550965576171875,9.453774452209473,0.18125219643115997,-2.6007091999053955
1765793068742944800,0.56094482421875,9.451031684875488,0.211025208234787,-2.608421564102173
1765793068793024300,0.611024169921875,9.447966575622559,0.2873706817626953,-2.612227439880371
1765793068803034000,0.6210341796875,9.44859504699707,0.2957564890384674,-2.6090147495269775
1765793068812982800,0.630982666015625,9.451687812805176,0.301590234041214,-2.5971195697784424
1765793068822962000,0.6409619140625,9.453885078430176,0.30487486720085144,-2.5887248516082764
1765793068832941300,0.65094140625,9.455936431884766,0.2994033396244049,-2.581862211227417
1765793068842920400,0.66092041015625,9.458629608154297,0.2978357970714569,-2.5721609592437744
1765793068872949800,0.69094970703125,9.467509269714355,0.3097792863845825,-2.537853479385376
1765793068882959600,0.700959716796875,9.46695613861084,0.3159937858581543,-2.5391483306884766
1765793068893000000,0.711,9.467402458190918,0.30893948674201965,-2.5383520126342773
1765793068902979000,0.72097900390625,9.467697143554688,0.3109945058822632,-2.5370020866394043
1765793068912989000,0.730989013671875,9.469639778137207,0.31030797958374023,-2.529827117919922
1765793068922968000,0.740968017578125,9.469759941101074,0.31359171867370605,-2.52896785736084
1765793068932947200,0.750947265625,9.469853401184082,0.31071269512176514,-2.528977155685425
1765793068942987500,0.760987548828125,9.470169067382812,0.3069221079349518,-2.5282580852508545
1765793068952997400,0.770997314453125,9.472696304321289,0.30301666259765625,-2.519245147705078
1765793068963007200,0.78100732421875,9.474311828613281,0.2926677465438843,-2.514387369155884
1765793068993036500,0.81103662109375,9.469656944274902,0.2852495014667511,-2.532707691192627
1765793069003046100,0.821046142578125,9.469236373901367,0.2880566418170929,-2.5339620113372803
1765793069013025500,0.831025634765625,9.467458724975586,0.2916494607925415,-2.5401856899261475
1765793069023004700,0.841004638671875,9.4658203125,0.2885459363460541,-2.546638250350952
1765793069033014500,0.8510146484375,9.464323997497559,0.28609979152679443,-2.5524685382843018
1765793069043054800,0.861054931640625,9.462512969970703,0.29015228152275085,-2.558720111846924
1765793069053064400,0.871064453125,9.46178913116455,0.2908504903316498,-2.5613162517547607
1765793069063043800,0.8810439453125,9.460309028625488,0.29641297459602356,-2.5661401748657227
1765793069082963200,0.900963134765625,9.458667755126953,0.3135325014591217,-2.5701541900634766
1765793069092912000,0.910912109375,9.45785903930664,0.319513738155365,-2.5723938941955566
1765793069102921700,0.920921630859375,9.457169532775879,0.32408735156059265,-2.574355363845825
1765793069112931600,0.930931640625,9.456018447875977,0.3283623456954956,-2.5780370235443115
1765793069122941400,0.94094140625,9.454504013061523,0.33177635073661804,-2.5831518173217773
1765793069132951000,0.950950927734375,9.45334243774414,0.3382490277290344,-2.5865581035614014
1765793069142991400,0.960991455078125,9.452459335327148,0.34352782368659973,-2.5890915393829346
1765793069163010800,0.9810107421875,9.45120620727539,0.3448590040206909,-2.593484878540039
1765793069173020700,0.991020751953125,9.451433181762695,0.34915515780448914,-2.592080593109131
1765793069193040100,1.0110400390625,9.452859878540039,0.37594273686408997,-2.583115577697754
1765793069203019500,1.02101953125,9.453374862670898,0.3793076276779175,-2.580740213394165
1765793069213029000,1.031029052734375,9.454407691955566,0.3805840313434601,-2.57676362991333
1765793069223039000,1.0410390625,9.454416275024414,0.38130614161491394,-2.5766239166259766
1765793069233048800,1.051048828125,9.45516300201416,0.385823518037796,-2.573214530944824
1765793069243058400,1.061058349609375,9.454035758972168,0.38994264602661133,-2.5767312049865723
1765793069253007400,1.07100732421875,9.453893661499023,0.3912121057510376,-2.577056407928467
1765793069263017000,1.081016845703125,9.455310821533203,0.39772140979766846,-2.5708553791046143
1765793069273057300,1.091057373046875,9.456204414367676,0.39919814467430115,-2.56733775138855
1765793069283067100,1.101067138671875,9.457736015319824,0.40012481808662415,-2.561546802520752
1765793069313035300,1.13103515625,9.460886001586914,0.38960787653923035,-2.551516532897949
1765793069323045000,1.141045166015625,9.460563659667969,0.390074759721756,-2.55263614654541
1765793069333024300,1.151024169921875,9.460375785827637,0.40060317516326904,-2.5517020225524902
1765793069343003600,1.161003662109375,9.459928512573242,0.4161844253540039,-2.550870418548584
1765793069353044000,1.1710439453125,9.459315299987793,0.4303920865058899,-2.550785541534424
1765793069363053600,1.181053466796875,9.458255767822266,0.43933963775634766,-2.5531890392303467
1765793069373063400,1.1910634765625,9.457717895507812,0.4390189051628113,-2.555234909057617
1765793069383042600,1.20104248046875,9.457218170166016,0.4369350075721741,-2.557441234588623
1765793069393052400,1.211052490234375,9.456689834594727,0.43773916363716125,-2.5592551231384277
1765793069413011000,1.231010986328125,9.456905364990234,0.43430665135383606,-2.55904483795166
1765793069422990000,1.240989990234375,9.456596374511719,0.4352579116821289,-2.560023069381714
1765793069432969500,1.250969482421875,9.45592212677002,0.43713632225990295,-2.562194347381592
1765793069443009800,1.261009765625,9.455108642578125,0.4389170706272125,-2.5648913383483887
1765793069453019400,1.271019287109375,9.454408645629883,0.4392193555831909,-2.567415952682495
1765793069463029200,1.281029296875,9.454105377197266,0.43922874331474304,-2.568530321121216
1765793069473039000,1.2910390625,9.4536714553833,0.44235607981681824,-2.569591760635376
1765793069483048700,1.301048583984375,9.452563285827637,0.44582828879356384,-2.573063850402832
1765793069493058600,1.31105859375,9.451359748840332,0.4504740834236145,-2.5766756534576416
1765793069523088000,1.341087890625,9.448989868164062,0.4533542990684509,-2.5848519802093506
1765793069533067000,1.35106689453125,9.448084831237793,0.45455044507980347,-2.587944984436035
1765793069543107300,1.361107421875,9.447574615478516,0.45407941937446594,-2.589890956878662
1765793069553117200,1.3711171875,9.447112083435059,0.4539371132850647,-2.591601848602295
1765793069563126800,1.381126708984375,9.446981430053711,0.45196160674095154,-2.5924248695373535
1765793069573106200,1.391106201171875,9.446282386779785,0.45169931650161743,-2.5950162410736084
1765793069583115800,1.40111572265625,9.446078300476074,0.4534980058670044,-2.595444917678833
1765793069593125600,1.411125732421875,9.445915222167969,0.4561733901500702,-2.5955677032470703
1765793069603135500,1.421135498046875,9.445462226867676,0.45632806420326233,-2.5971908569335938
1765793069623124500,1.44112451171875,9.44447135925293,0.44771653413772583,-2.6022896766662598
1765793069633134000,1.451134033203125,9.444403648376465,0.44414547085762024,-2.6031460762023926
1765793069643144000,1.46114404296875,9.44365119934082,0.44114288687705994,-2.6063807010650635
1765793069653153800,1.47115380859375,9.443641662597656,0.4373919367790222,-2.607048988342285
1765793069663133000,1.4811328125,9.443593978881836,0.43553587794303894,-2.6075329780578613
1765793069673142800,1.491142822265625,9.443397521972656,0.43575748801231384,-2.608208417892456
1765793069683122000,1.501121826171875,9.443289756774902,0.43686601519584656,-2.608412265777588
1765793069693070600,1.511070556640625,9.443367958068848,0.43812796473503113,-2.6079165935516357
1765793069703080400,1.52108056640625,9.443622589111328,0.4369423985481262,-2.6071932315826416
1765793069713029000,1.531029052734375,9.443730354309082,0.43578580021858215,-2.60699725151062
1765793069743028000,1.561028076171875,9.443193435668945,0.43628978729248047,-2.6088571548461914
1765793069753007400,1.57100732421875,9.443185806274414,0.44388505816459656,-2.6076033115386963
1765793069763047400,1.58104736328125,9.44324016571045,0.44949454069137573,-2.606442451477051
1765793069773057300,1.591057373046875,9.443624496459961,0.4543333947658539,-2.604212522506714
1765793069783067100,1.601067138671875,9.4434232711792,0.4574490785598755,-2.604395866394043
1765793069793076700,1.61107666015625,9.443643569946289,0.4609169363975525,-2.602987766265869
1765793069803056000,1.62105615234375,9.444055557250977,0.4620905816555023,-2.601280450820923
1765793069813065700,1.631065673828125,9.443998336791992,0.459695965051651,-2.601916790008545
1765793069823075600,1.64107568359375,9.44434928894043,0.4562509059906006,-2.6012463569641113
1765793069853013200,1.67101318359375,9.445706367492676,0.45073726773262024,-2.5972797870635986
1765793069863053600,1.681053466796875,9.446185111999512,0.45331645011901855,-2.5950891971588135
1765793069873063400,1.6910634765625,9.446329116821289,0.45701202750205994,-2.593914747238159
1765793069883073300,1.7010732421875,9.445992469787598,0.46260467171669006,-2.5941476821899414
1765793069893052400,1.711052490234375,9.446425437927246,0.46784526109695435,-2.5916311740875244
1765793069903062300,1.721062255859375,9.446144104003906,0.4676731824874878,-2.5926871299743652
1765793069913071900,1.73107177734375,9.445722579956055,0.4650508761405945,-2.5946953296661377
1765793069923081700,1.741081787109375,9.445591926574707,0.4618721902370453,-2.595738172531128
1765793069963090200,1.781090087890625,9.443992614746094,0.4640234708786011,-2.6011674404144287
1765793069973069600,1.791069580078125,9.443482398986816,0.4694187343120575,-2.602052688598633
1765793069983048700,1.801048583984375,9.443624496459961,0.47451213002204895,-2.600613594055176
1765793069993089000,1.811089111328125,9.444120407104492,0.47588032484054565,-2.5985591411590576
1765793070003068200,1.821068115234375,9.444406509399414,0.4733317196369171,-2.5979864597320557
1765793070013047600,1.831047607421875,9.444396018981934,0.4650267958641052,-2.599524736404419
1765793070023057400,1.841057373046875,9.444425582885742,0.4591403305530548,-2.6004607677459717
1765793070033006000,1.851006103515625,9.444371223449707,0.46199777722358704,-2.600153923034668
1765793070062943700,1.88094384765625,9.444340705871582,0.45783838629722595,-2.6010007858276367
1765793070072892400,1.890892333984375,9.445343017578125,0.44279852509498596,-2.5999653339385986
1765793070082902300,1.90090234375,9.44548225402832,0.4304041564464569,-2.6015396118164062
1765793070092912000,1.910912109375,9.44520092010498,0.42364493012428284,-2.603667974472046
1765793070102891300,1.920891357421875,9.444769859313965,0.42133474349975586,-2.6056036949157715
1765793070112901000,1.930901123046875,9.443853378295898,0.4214876592159271,-2.6088995933532715
1765793070122910700,1.94091064453125,9.443760871887207,0.4232131540775299,-2.6089577674865723
1765793070132920600,1.950920654296875,9.443215370178223,0.4219082295894623,-2.611143112182617
1765793070152848600,1.9708486328125,9.441758155822754,0.41727834939956665,-2.6171486377716064
1765793070172807200,1.99080712890625,9.43998908996582,0.41591063141822815,-2.6237378120422363
1765793070182816800,2.000816650390625,9.439583778381348,0.4186219871044159,-2.6247665882110596
1765793070192826600,2.01082666015625,9.439600944519043,0.42027363181114197,-2.624441146850586
1765793070202836200,2.020836181640625,9.4390869140625,0.4176958203315735,-2.626702308654785
1765793070212815600,2.030815673828125,9.438955307006836,0.41410312056541443,-2.6277425289154053
1765793070232835000,2.0508349609375,9.43930721282959,0.41437864303588867,-2.6264352798461914
1765793070252854500,2.0708544921875,9.43953800201416,0.4152126610279083,-2.625471591949463
1765793070272874200,2.090874267578125,9.441189765930176,0.41330912709236145,-2.619830369949341
1765793070282853400,2.100853271484375,9.442636489868164,0.41171595454216003,-2.614860773086548
1765793070292893700,2.110893798828125,9.443482398986816,0.40912893414497375,-2.6122078895568848
1765793070302903600,2.120903564453125,9.44375991821289,0.4086092710494995,-2.6112897396087646
1765793070312913200,2.1309130859375,9.44407844543457,0.40722864866256714,-2.610353708267212
1765793070322892500,2.140892578125,9.444618225097656,0.40594786405563354,-2.608598470687866
1765793070332871700,2.15087158203125,9.445256233215332,0.40207409858703613,-2.606886625289917
1765793070342881500,2.160881591796875,9.445757865905762,0.3977988660335541,-2.6057229042053223
1765793070372941300,2.19094140625,9.445202827453613,0.39644908905029297,-2.607943296432495
1765793070382890000,2.200889892578125,9.444601058959961,0.3901272416114807,-2.611071825027466
1765793070392869400,2.210869384765625,9.443922996520996,0.38744431734085083,-2.6139211654663086
1765793070402909700,2.22090966796875,9.444220542907715,0.38191667199134827,-2.613659620285034
1765793070412919300,2.230919189453125,9.44423770904541,0.3699096441268921,-2.615325689315796
1765793070422929200,2.24092919921875,9.444429397583008,0.3510105609893799,-2.6172385215759277
1765793070432939000,2.25093896484375,9.44452953338623,0.33725905418395996,-2.6186845302581787
1765793070442948600,2.260948486328125,9.443971633911133,0.33212244510650635,-2.6213531494140625
1765793070452928000,2.270927978515625,9.44412612915039,0.33297380805015564,-2.6206860542297363
1765793070472947500,2.290947509765625,9.443330764770508,0.33681416511535645,-2.6230580806732178
1765793070482957300,2.300957275390625,9.442530632019043,0.33391523361206055,-2.626309394836426
1765793070492936400,2.3109365234375,9.441946983337402,0.3310093581676483,-2.6287732124328613
1765793070502885000,2.320885009765625,9.441161155700684,0.32116198539733887,-2.6328163146972656
1765793070512925400,2.330925537109375,9.43993854522705,0.31347912549972534,-2.6381216049194336
1765793070522935300,2.340935302734375,9.438508033752441,0.31262704730033875,-2.643336057662964
1765793070532914400,2.35091455078125,9.437518119812012,0.31355050206184387,-2.646756887435913
1765793070542924300,2.36092431640625,9.436549186706543,0.31259411573410034,-2.6503219604492188
1765793070552934000,2.370933837890625,9.436015129089355,0.311090886592865,-2.6524038314819336
1765793070582902300,2.40090234375,9.436246871948242,0.29708948731422424,-2.6531803607940674
1765793070592912100,2.410912109375,9.435786247253418,0.29263585805892944,-2.6553144454956055
1765793070602921700,2.420921630859375,9.435857772827148,0.29200026392936707,-2.655129909515381
1765793070612931600,2.430931640625,9.43578815460205,0.2911069691181183,-2.6554765701293945
1765793070622910700,2.44091064453125,9.435385704040527,0.29119688272476196,-2.6568965911865234
1765793070642899700,2.460899658203125,9.433906555175781,0.2921842932701111,-2.6620326042175293
1765793070682908400,2.500908447265625,9.432793617248535,0.30738529562950134,-2.664264440536499
1765793070692948700,2.51094873046875,9.432177543640137,0.3038719892501831,-2.666846990585327
1765793070702958300,2.520958251953125,9.431763648986816,0.2971525490283966,-2.6690661907196045
1765793070712968200,2.53096826171875,9.431795120239258,0.2906092405319214,-2.6696784496307373
1765793070722978000,2.54097802734375,9.432208061218262,0.2872115671634674,-2.668584108352661
1765793070732987600,2.550987548828125,9.433914184570312,0.28200504183769226,-2.6631040573120117
1765793070742997500,2.56099755859375,9.435526847839355,0.2801816463470459,-2.657578229904175
1765793070752976600,2.5709765625,9.437289237976074,0.27884578704833984,-2.651451349258423
1765793070792985300,2.6109853515625,9.447674751281738,0.24508051574230194,-2.617586135864258
1765793070803025700,2.621025634765625,9.449259757995605,0.2405150830745697,-2.612283706665039
1765793070813004800,2.6310048828125,9.452569961547852,0.2338632494211197,-2.6008894443511963
1765793070823014700,2.6410146484375,9.45477294921875,0.23415733873844147,-2.5928428173065186
1765793070833024300,2.651024169921875,9.456361770629883,0.23245668411254883,-2.587193012237549
1765793070843003600,2.661003662109375,9.457287788391113,0.22864224016666412,-2.584146499633789
1765793070853013200,2.67101318359375,9.459333419799805,0.21821032464504242,-2.577554225921631
1765793070863023000,2.681023193359375,9.460068702697754,0.21320991218090057,-2.5752739906311035
1765793070883042600,2.70104248046875,9.462641716003418,0.1969379186630249,-2.5671041011810303
1765793070893022000,2.71102197265625,9.463881492614746,0.19433745741844177,-2.5627248287200928
1765793070903001000,2.7210009765625,9.46475887298584,0.19174253940582275,-2.5596814155578613
1765793070923020500,2.7410205078125,9.465157508850098,0.19131147861480713,-2.558237314224243
1765793070932969500,2.750969482421875,9.464914321899414,0.18888770043849945,-2.5593185424804688
1765793070942979000,2.76097900390625,9.463536262512207,0.1661548763513565,-2.565981388092041
1765793070952958500,2.77095849609375,9.46114730834961,0.15053501725196838,-2.5757386684417725
1765793070962968000,2.780968017578125,9.459138870239258,0.13647565245628357,-2.5838851928710938
1765793070972947500,2.790947509765625,9.458210945129395,0.13541430234909058,-2.5873353481292725
1765793071002885000,2.820885009765625,9.454948425292969,0.12435504049062729,-2.5997841358184814
1765793071012864500,2.830864501953125,9.454018592834473,0.118647001683712,-2.6034271717071533
1765793071022874000,2.8408740234375,9.453230857849121,0.11135151982307434,-2.6066083908081055
1765793071032823000,2.850822998046875,9.452510833740234,0.10277250409126282,-2.609571695327759
1765793071042832600,2.86083251953125,9.451822280883789,0.0956638976931572,-2.6123344898223877
1765793071052873000,2.870873046875,9.451495170593262,0.08876197040081024,-2.6137611865997314
1765793071062882800,2.8808828125,9.451794624328613,0.08406750857830048,-2.6128344535827637
1765793071072862000,2.890862060546875,9.451988220214844,0.07958168536424637,-2.6122729778289795
1765793071092881400,2.91088134765625,9.453113555908203,0.07147284597158432,-2.6084351539611816
1765793071102891300,2.920891357421875,9.454108238220215,0.06518329679965973,-2.604990005493164
1765793071112901000,2.930901123046875,9.454273223876953,0.06389977782964706,-2.6044206619262695
1765793071122880300,2.94088037109375,9.454946517944336,0.0637098178267479,-2.6019816398620605
1765793071132920600,2.950920654296875,9.45522689819336,0.06439543515443802,-2.600947380065918
1765793071142930400,2.960930419921875,9.454697608947754,0.06520703434944153,-2.602851390838623
1765793071152940000,2.97093994140625,9.453819274902344,0.06355741620063782,-2.606078624725342
1765793071162950000,2.980949951171875,9.4530668258667,0.06457611918449402,-2.6087839603424072
1765793071172959700,2.990959716796875,9.453072547912598,0.06579890102148056,-2.608729124069214
1765793071182969300,3.00096923828125,9.452835083007812,0.0647442415356636,-2.609616756439209
1765793071212937700,3.030937744140625,9.450605392456055,0.059532422572374344,-2.6178040504455566
1765793071222947300,3.040947265625,9.448822975158691,0.05573948845267296,-2.624315023422241
1765793071232896300,3.050896240234375,9.447768211364746,0.0535544827580452,-2.6281533241271973
1765793071242936300,3.060936279296875,9.446589469909668,0.047346245497465134,-2.6325082778930664
1765793071252915700,3.070915771484375,9.444348335266113,0.04195128381252289,-2.6406288146972656
1765793071262925600,3.080925537109375,9.442320823669434,0.04002729430794716,-2.6478991508483887
1765793071272935200,3.09093505859375,9.4410982131958,0.037730276584625244,-2.6522889137268066
1765793071282914600,3.10091455078125,9.439093589782715,0.040519651025533676,-2.659372091293335
1765793071292924200,3.110924072265625,9.437195777893066,0.04214189201593399,-2.666074275970459
1765793071312974300,3.130974365234375,9.435751914978027,0.028890177607536316,-2.6713547706604004
1765793071322984000,3.14098388671875,9.435728073120117,0.010696074925363064,-2.67157244682312
1765793071332993800,3.150993896484375,9.43492317199707,-0.007991529069840908,-2.6744227409362793
1765793071343003600,3.161003662109375,9.434264183044434,-0.027787011116743088,-2.6766180992126465
1765793071353013200,3.17101318359375,9.43367862701416,-0.05191434174776077,-2.678318738937378
1765793071363023000,3.181023193359375,9.433624267578125,-0.0653335452079773,-2.678217649459839
1765793071372971800,3.1909716796875,9.433296203613281,-0.07811583578586578,-2.6790311336517334
1765793071382981600,3.200981689453125,9.43320369720459,-0.08457238972187042,-2.6791610717773438
1765793071403001000,3.2210009765625,9.435863494873047,-0.0896058976650238,-2.6696114540100098
1765793071422990000,3.240989990234375,9.439175605773926,-0.11174166947603226,-2.6570403575897217
1765793071433000000,3.251,9.441740989685059,-0.13433416187763214,-2.646860122680664
1765793071443009800,3.261009765625,9.445320129394531,-0.15965141355991364,-2.632646322250366
1765793071453019400,3.271019287109375,9.449541091918945,-0.17554403841495514,-2.616438150405884
1765793071462968000,3.280968017578125,9.454524993896484,-0.18455518782138824,-2.597743511199951
1765793071473008400,3.29100830078125,9.461174964904785,-0.19436214864253998,-2.572699546813965
1765793071483018200,3.301018310546875,9.463741302490234,-0.194827601313591,-2.563209295272827
1765793071493028000,3.311028076171875,9.467738151550293,-0.19505620002746582,-2.548389434814453
1765793071503037700,3.32103759765625,9.47215461730957,-0.19439534842967987,-2.5319736003875732
1765793071513047600,3.331047607421875,9.476780891418457,-0.19455617666244507,-2.51459002494812
1765793071553025500,3.371025634765625,9.489513397216797,-0.2289932817220688,-2.463144540786743
1765793071593003500,3.41100341796875,9.487390518188477,-0.15278279781341553,-2.4771883487701416
1765793071603013400,3.421013427734375,9.485078811645508,-0.14865590631961823,-2.4862782955169678
1765793071613023200,3.431023193359375,9.482952117919922,-0.14819620549678802,-2.4944019317626953
1765793071623032800,3.44103271484375,9.48078727722168,-0.15225568413734436,-2.5023741722106934
1765793071633012200,3.45101220703125,9.477788925170898,-0.15818239748477936,-2.5133395195007324
1765793071663041500,3.48104150390625,9.473840713500977,-0.14762850105762482,-2.5288214683532715
1765793071673020700,3.491020751953125,9.472539901733398,-0.1476464420557022,-2.533689260482788
1765793071683061000,3.50106103515625,9.471449851989746,-0.15014368295669556,-2.537614107131958
1765793071693070600,3.511070556640625,9.470476150512695,-0.15094158053398132,-2.541196584701538
1765793071703080400,3.52108056640625,9.469829559326172,-0.14928166568279266,-2.543700695037842
1765793071713059800,3.531059814453125,9.470016479492188,-0.1451820582151413,-2.5432450771331787
1765793071723069400,3.5410693359375,9.470962524414062,-0.13860316574573517,-2.5400898456573486
1765793071733079300,3.551079345703125,9.472195625305176,-0.14059267938137054,-2.5353763103485107
1765793071763078100,3.581078125,9.474329948425293,-0.1641847789287567,-2.5259649753570557
1765793071773026800,3.59102685546875,9.474287986755371,-0.16493220627307892,-2.526073932647705
1765793071782975500,3.6009755859375,9.4746675491333,-0.15723326802253723,-2.5251407623291016
1765793071792954600,3.61095458984375,9.473982810974121,-0.14698487520217896,-2.5283255577087402
1765793071802964500,3.620964599609375,9.472543716430664,-0.13782630860805511,-2.534226894378662
1765793071812974300,3.630974365234375,9.470967292785645,-0.13151255249977112,-2.5404481887817383
1765793071822984000,3.64098388671875,9.47034740447998,-0.12721134722232819,-2.542976140975952
1765793071832993800,3.650993896484375,9.468008995056152,-0.12168236821889877,-2.5519378185272217
1765793071843003600,3.661003662109375,9.466591835021973,-0.1221952885389328,-2.557166337966919
1765793071873033000,3.691032958984375,9.464020729064941,-0.12255057692527771,-2.566648006439209
1765793071883042600,3.70104248046875,9.46389102935791,-0.12598246335983276,-2.5669612884521484
1765793071892991500,3.710991455078125,9.463905334472656,-0.1290428638458252,-2.566751718521118
1765793071903031600,3.721031494140625,9.464284896850586,-0.13047227263450623,-2.565284013748169
1765793071913041400,3.73104150390625,9.464372634887695,-0.13283856213092804,-2.564836025238037
1765793071923051300,3.74105126953125,9.465521812438965,-0.12910287082195282,-2.560781478881836
1765793071933060900,3.751060791015625,9.465846061706543,-0.1326824277639389,-2.5594027042388916
1765793071943040300,3.761040283203125,9.466915130615234,-0.14511580765247345,-2.5547678470611572
1765793071973069600,3.791069580078125,9.470503807067871,-0.19087782502174377,-2.53840708732605
1765793071983079200,3.8010791015625,9.47210693359375,-0.19901560246944427,-2.5317914485931396
1765793071993089000,3.811089111328125,9.472743034362793,-0.2021089643239975,-2.5291686058044434
1765793072003099000,3.821098876953125,9.472291946411133,-0.20411208271980286,-2.530693769454956
1765793072013078000,3.831078125,9.47208023071289,-0.20316392183303833,-2.5315637588500977
1765793072023118300,3.841118408203125,9.470934867858887,-0.20099668204784393,-2.536017894744873
1765793072033097500,3.851097412109375,9.47070026397705,-0.19885461032390594,-2.537060260772705
1765793072043137800,3.8611376953125,9.470341682434082,-0.19948655366897583,-2.538351535797119
1765793072083146500,3.901146484375,9.470829010009766,-0.21454185247421265,-2.5353033542633057
1765793072093156000,3.911156005859375,9.470926284790039,-0.2193908840417862,-2.5345261096954346
1765793072103166000,3.921166015625,9.471367835998535,-0.2206127792596817,-2.532766103744507
1765793072113145000,3.93114501953125,9.47220230102539,-0.21189375221729279,-2.530390977859497
1765793072123185400,3.941185302734375,9.47252082824707,-0.198630690574646,-2.530275583267212
1765793072133164800,3.951164794921875,9.473028182983398,-0.18859927356243134,-2.5291407108306885
1765793072143174400,3.96117431640625,9.472297668457031,-0.188789501786232,-2.5318613052368164
1765793072153184300,3.971184326171875,9.471604347229004,-0.19234420359134674,-2.5341873168945312
1765793072183122000,4.001121826171875,9.468708038330078,-0.2207813262939453,-2.542680501937866
1765793072203141600,4.0211416015625,9.466240882873535,-0.2287360280752182,-2.5511457920074463
1765793072213120800,4.031120849609375,9.465653419494629,-0.22919034957885742,-2.5532853603363037
1765793072223100000,4.041099853515625,9.464734077453613,-0.2294212281703949,-2.5566704273223877
1765793072233079300,4.051079345703125,9.463713645935059,-0.2296627163887024,-2.56042218208313
1765793072243089200,4.061089111328125,9.463277816772461,-0.2273242026567459,-2.5622406005859375
1765793072253098800,4.0710986328125,9.462884902954102,-0.226616770029068,-2.5637543201446533
1765793072273087700,4.091087646484375,9.461719512939453,-0.23188723623752594,-2.5675835609436035
1765793072283128000,4.101128173828125,9.46142292022705,-0.2315494418144226,-2.5687034130096436
1765793072303086600,4.121086669921875,9.460541725158691,-0.23132415115833282,-2.5719714164733887
1765793072313096400,4.131096435546875,9.459985733032227,-0.2302623689174652,-2.574108839035034
1765793072323106000,4.14110595703125,9.460030555725098,-0.22517891228199005,-2.574394702911377
1765793072333054700,4.1510546875,9.460614204406738,-0.22146759927272797,-2.5725700855255127
1765793072343003600,4.161003662109375,9.461148262023926,-0.21955956518650055,-2.570769786834717
1765793072353013200,4.17101318359375,9.46130657196045,-0.21967032551765442,-2.5701773166656494
1765793072363023000,4.181023193359375,9.461580276489258,-0.22195589542388916,-2.56897234916687
1765793072403031600,4.221031494140625,9.462074279785156,-0.227700874209404,-2.5666520595550537
1765793072413041400,4.23104150390625,9.46214485168457,-0.2302575707435608,-2.5661628246307373
1765793072423020500,4.2410205078125,9.462322235107422,-0.23302431404590607,-2.565258026123047
1765793072433030400,4.251030517578125,9.462406158447266,-0.2327643781900406,-2.5649707317352295
1765793072443040300,4.261040283203125,9.462859153747559,-0.22937306761741638,-2.563605308532715
1765793072452989000,4.270989013671875,9.463175773620605,-0.22165127098560333,-2.563115119934082
1765793072462998800,4.280998779296875,9.46313190460205,-0.20962589979171753,-2.564288854598999
1765793072483018200,4.301018310546875,9.463428497314453,-0.1898106336593628,-2.564736843109131
1765793072503037700,4.32103759765625,9.462329864501953,-0.19248823821544647,-2.568589448928833
1765793072513047600,4.331047607421875,9.461897850036621,-0.20191845297813416,-2.569457530975342
1765793072523026700,4.341026611328125,9.46151065826416,-0.20230364799499512,-2.5708494186401367
1765793072533036500,4.35103662109375,9.461165428161621,-0.2009042650461197,-2.572232246398926
1765793072543046400,4.36104638671875,9.460594177246094,-0.1976216435432434,-2.5745863914489746
1765793072553056000,4.371055908203125,9.460890769958496,-0.18918778002262115,-2.5741283893585205
1765793072563065900,4.38106591796875,9.46023178100586,-0.1827266663312912,-2.577017068862915
1765793072593095200,4.41109521484375,9.455931663513184,-0.19110439717769623,-2.592146158218384
1765793072603104800,4.421104736328125,9.45496654510498,-0.2148931622505188,-2.593801975250244
1765793072613053700,4.4310537109375,9.454487800598145,-0.26748257875442505,-2.59065580368042
1765793072623032800,4.44103271484375,9.453253746032715,-0.3086118996143341,-2.5905840396881104
1765793072633042700,4.451042724609375,9.452006340026855,-0.3883596658706665,-2.584404230117798
1765793072643052300,4.46105224609375,9.452544212341309,-0.4744856655597687,-2.5680081844329834
1765793072653001200,4.471001220703125,9.453638076782227,-0.4938165247440338,-2.5603227615356445
1765793072663010800,4.4810107421875,9.456998825073242,-0.5250341296195984,-2.541633129119873
1765793072673020700,4.491020751953125,9.458707809448242,-0.5752604603767395,-2.524346113204956
1765793072693009700,4.511009765625,9.453082084655762,-0.7881842255592346,-2.4876492023468018
1765793072702989000,4.520989013671875,9.449874877929688,-0.8482210636138916,-2.480074882507324
1765793072712998700,4.53099853515625,9.438441276550293,-1.0237581729888916,-2.4572620391845703
1765793072723008500,4.541008544921875,9.433096885681152,-1.0928325653076172,-2.4480173587799072
1765793072733018000,4.55101806640625,9.423663139343262,-1.20278799533844,-2.4327476024627686
1765793072743028000,4.561028076171875,9.413818359375,-1.3037570714950562,-2.4188060760498047
1765793072753068300,4.571068359375,9.403620719909668,-1.389343500137329,-2.410813808441162
1765793072763078100,4.581078125,9.39419937133789,-1.4665567874908447,-2.401793956756592
1765793072772996400,4.590996337890625,9.386959075927734,-1.520280122756958,-2.3966939449310303
1765793072803025700,4.621025634765625,9.370789527893066,-1.5941803455352783,-2.4119060039520264
1765793072813004800,4.6310048828125,9.36938762664795,-1.6164989471435547,-2.4024744033813477
1765793072823014700,4.6410146484375,9.359034538269043,-1.6535828113555908,-2.4175431728363037
1765793072833024300,4.651024169921875,9.34801959991455,-1.679402232170105,-2.44223690032959
1765793072843034000,4.6610341796875,9.337596893310547,-1.6784833669662476,-2.4824090003967285
1765793072853044000,4.6710439453125,9.335431098937988,-1.6556192636489868,-2.50580096244812
1765793072863053600,4.681053466796875,9.335005760192871,-1.6255041360855103,-2.527012348175049
1765793072873002200,4.691002197265625,9.335665702819824,-1.604823112487793,-2.5377702713012695
1765793072903031600,4.721031494140625,9.348379135131836,-1.4886568784713745,-2.5616567134857178
1765793072913041400,4.73104150390625,9.350473403930664,-1.4707963466644287,-2.564330577850342
1765793072923051300,4.74105126953125,9.350038528442383,-1.4804039001464844,-2.56038498878479
1765793072932969500,4.750969482421875,9.345226287841797,-1.505812406539917,-2.5631351470947266
1765793072942948600,4.760948486328125,9.340763092041016,-1.5254089832305908,-2.567811965942383
1765793072952928000,4.770927978515625,9.343003273010254,-1.5218600034713745,-2.561760663986206
1765793072962937600,4.7809375,9.34510326385498,-1.5022454261779785,-2.5656752586364746
1765793072972947500,4.790947509765625,9.34648609161377,-1.4771230220794678,-2.575204849243164
1765793073002976800,4.820976806640625,9.3482084274292,-1.4141777753829956,-2.604128360748291
1765793073012956000,4.830955810546875,9.347938537597656,-1.4034889936447144,-2.610872268676758
1765793073022996200,4.840996337890625,9.346492767333984,-1.372589349746704,-2.6323866844177246
1765793073032945000,4.85094482421875,9.344864845275879,-1.3546574115753174,-2.647413730621338
1765793073042985200,4.860985107421875,9.346426010131836,-1.2878175973892212,-2.6751151084899902
1765793073052995000,4.8709951171875,9.348594665527344,-1.2402583360671997,-2.689967393875122
1765793073063004700,4.881004638671875,9.349576950073242,-1.2010561227798462,-2.7043020725250244
1765793073072984000,4.890984130859375,9.348803520202637,-1.1696728467941284,-2.7206838130950928
1765793073082994000,4.900993896484375,9.343934059143066,-1.17034113407135,-2.737074851989746
1765793073132981500,4.9509814453125,9.319367408752441,-1.230328917503357,-2.793935537338257
1765793073142991400,4.960991455078125,9.315818786621094,-1.2390776872634888,-2.8018927574157715
1765793073153001200,4.971001220703125,9.311432838439941,-1.2509403228759766,-2.811183214187622
1765793073162980400,4.98098046875,9.308966636657715,-1.2604730129241943,-2.815091848373413
1765793073172990200,4.990990234375,9.30467700958252,-1.276049256324768,-2.8222482204437256
1765793073182999800,5.000999755859375,9.301196098327637,-1.2862788438796997,-2.829066514968872
1765793073213029000,5.031029052734375,9.297176361083984,-1.2858165502548218,-2.842458486557007
1765793073233048800,5.051048828125,9.29384994506836,-1.2677160501480103,-2.861403226852417
1765793073243058400,5.061058349609375,9.293116569519043,-1.254620909690857,-2.8695454597473145
1765793073253068300,5.071068359375,9.29313850402832,-1.2454571723937988,-2.8734652996063232
1765793073263078100,5.081078125,9.292215347290039,-1.2404074668884277,-2.878631353378296
1765793073283097600,5.10109765625,9.288439750671387,-1.2644866704940796,-2.8803374767303467
1765793073293107500,5.111107421875,9.28709602355957,-1.2813544273376465,-2.877213954925537
1765793073323136500,5.141136474609375,9.284772872924805,-1.2846375703811646,-2.8832437992095947
1765793073333085400,5.15108544921875,9.285446166992188,-1.278351902961731,-2.883867025375366
1765793073343034000,5.1610341796875,9.284743309020996,-1.2707690000534058,-2.8894753456115723
1765793073353074400,5.171074462890625,9.284335136413574,-1.2722842693328857,-2.890120267868042
1765793073363084000,5.181083984375,9.282806396484375,-1.2792561054229736,-2.891953468322754
1765793073373033000,5.191032958984375,9.279878616333008,-1.2962173223495483,-2.893794536590576
1765793073383012000,5.20101220703125,9.279422760009766,-1.3058916330337524,-2.8909058570861816
1765793073393022000,5.21102197265625,9.276829719543457,-1.3274575471878052,-2.889406681060791
1765793073403031600,5.221031494140625,9.27621078491211,-1.33673894405365,-2.8871138095855713
1765793073423020500,5.2410205078125,9.278620719909668,-1.326176404953003,-2.8842384815216064
1765793073433060900,5.251060791015625,9.280682563781738,-1.3168984651565552,-2.881854772567749
1765793073453019400,5.271019287109375,9.282397270202637,-1.3070487976074219,-2.8808162212371826
1765793073463059700,5.281059814453125,9.283397674560547,-1.3032004833221436,-2.8793387413024902
1765793073473069600,5.291069580078125,9.285321235656738,-1.2997510433197021,-2.874689817428589
1765793073483079200,5.3010791015625,9.285499572753906,-1.3033808469772339,-2.872469425201416
1765793073493028000,5.311028076171875,9.2841157913208,-1.3102794885635376,-2.873805522918701
1765793073532975600,5.3509755859375,9.277917861938477,-1.2979482412338257,-2.899303436279297
1765793073543015700,5.361015625,9.275959014892578,-1.288204550743103,-2.9098994731903076
1765793073553025500,5.371025634765625,9.273226737976074,-1.2854806184768677,-2.9197936058044434
1765793073563035400,5.381035400390625,9.271254539489746,-1.2871346473693848,-2.925323724746704
1765793073573045000,5.391044921875,9.26789379119873,-1.2814942598342896,-2.9384191036224365
1765793073583054800,5.401054931640625,9.267634391784668,-1.2767053842544556,-2.941319704055786
1765793073593034000,5.411033935546875,9.267284393310547,-1.2689841985702515,-2.94576096534729
1765793073603043800,5.4210439453125,9.267061233520508,-1.2653274536132812,-2.9480361938476562
1765793073633042700,5.451042724609375,9.270891189575195,-1.2630980014801025,-2.9369263648986816
1765793073653062100,5.471062255859375,9.274761199951172,-1.2483196258544922,-2.9310221672058105
1765793073663072000,5.481072021484375,9.278151512145996,-1.2370355129241943,-2.9250710010528564
1765793073673081600,5.49108154296875,9.278125762939453,-1.2343045473098755,-2.926304578781128
1765793073683091500,5.501091552734375,9.280596733093262,-1.2306185960769653,-2.9200141429901123
1765793073693070600,5.511070556640625,9.281220436096191,-1.2322107553482056,-2.917360305786133
1765793073703080400,5.52108056640625,9.28323745727539,-1.231208324432373,-2.91135835647583
1765793073733109800,5.55110986328125,9.290887832641602,-1.1958444118499756,-2.9016799926757812
1765793073753160000,5.571159912109375,9.290782928466797,-1.1664105653762817,-2.9139716625213623
1765793073763169500,5.58116943359375,9.288982391357422,-1.1626784801483154,-2.9211950302124023
1765793073773179400,5.591179443359375,9.289154052734375,-1.159662127494812,-2.9218475818634033
1765793073783189200,5.601189208984375,9.290438652038574,-1.1558771133422852,-2.919260263442993
1765793073793168400,5.61116845703125,9.290973663330078,-1.1574925184249878,-2.916919231414795
1765793073803178200,5.62117822265625,9.291247367858887,-1.1578541994094849,-2.9159011840820312
1765793073833116000,5.651115966796875,9.295245170593262,-1.1542223691940308,-2.9045794010162354
1765793073843125800,5.661125732421875,9.296113014221191,-1.1485062837600708,-2.9040675163269043
1765793073853074400,5.671074462890625,9.296743392944336,-1.1433273553848267,-2.9040935039520264
1765793073863053600,5.681053466796875,9.297414779663086,-1.136869192123413,-2.9044792652130127
1765793073873094000,5.691093994140625,9.298529624938965,-1.125161051750183,-2.9054689407348633
1765793073883103700,5.701103759765625,9.300027847290039,-1.1142011880874634,-2.9048972129821777
1765793073893113300,5.71111328125,9.301165580749512,-1.105135440826416,-2.9047179222106934
1765793073903092700,5.7210927734375,9.302947044372559,-1.09315025806427,-2.9035472869873047
1765793073923112200,5.7411123046875,9.308093070983887,-1.0754371881484985,-2.893653154373169
1765793073933122000,5.7511220703125,9.309867858886719,-1.0734931230545044,-2.8886587619781494
1765793073943131600,5.761131591796875,9.312724113464355,-1.0808532238006592,-2.8766837120056152
1765793073953111000,5.771111083984375,9.31373119354248,-1.0883638858795166,-2.8705861568450928
1765793073963120600,5.78112060546875,9.316332817077637,-1.0978597402572632,-2.8585023880004883
1765793073973039000,5.7910390625,9.318495750427246,-1.1043564081192017,-2.8489320278167725
1765793073983079200,5.8010791015625,9.31971263885498,-1.107582449913025,-2.843696355819702
1765793073993089000,5.811089111328125,9.32337474822998,-1.1042118072509766,-2.8329834938049316
1765793074003099000,5.821098876953125,9.326150894165039,-1.0982797145843506,-2.8261423110961914
1765793074013108500,5.8311083984375,9.329995155334473,-1.0914626121520996,-2.816075086593628
1765793074043137800,5.8611376953125,9.335713386535645,-1.0939624309539795,-2.7960832118988037
1765793074053117200,5.8711171875,9.337265968322754,-1.0995588302612305,-2.7886955738067627
1765793074063157500,5.881157470703125,9.33975601196289,-1.0977866649627686,-2.7810468673706055
1765793074073136600,5.89113671875,9.341474533081055,-1.0957183837890625,-2.7760818004608154
1765793074083146500,5.901146484375,9.343955993652344,-1.0921303033828735,-2.769136905670166
1765793074093156000,5.911156005859375,9.347542762756348,-1.0896751880645752,-2.757976770401001
1765793074113175800,5.93117578125,9.349656105041504,-1.105783462524414,-2.7443699836730957
1765793074143174400,5.96117431640625,9.350567817687988,-1.120640516281128,-2.7352213859558105
1765793074163224600,5.981224609375,9.354998588562012,-1.1125937700271606,-2.7233290672302246
1765793074173234200,5.991234130859375,9.355863571166992,-1.1123239994049072,-2.7204678058624268
1765793074183213600,6.001213623046875,9.357820510864258,-1.1096755266189575,-2.714812755584717
1765793074193192700,6.011192626953125,9.361116409301758,-1.1051032543182373,-2.7052977085113525
1765793074203202600,6.02120263671875,9.36181926727295,-1.1009255647659302,-2.70456862449646
1765793074213151200,6.031151123046875,9.36248779296875,-1.1069315671920776,-2.6997992992401123
1765793074223161000,6.0411611328125,9.362675666809082,-1.121691107749939,-2.6930477619171143
1765793074263108600,6.081108642578125,9.369476318359375,-1.1518280506134033,-2.6564252376556396
1765793074273118200,6.0911181640625,9.370189666748047,-1.158904790878296,-2.6508255004882812
1765793074283128000,6.101128173828125,9.370538711547852,-1.160932183265686,-2.6487040519714355
1765793074293138000,6.111137939453125,9.370826721191406,-1.1638691425323486,-2.6463921070098877
1765793074303147500,6.1211474609375,9.369791030883789,-1.1712684631347656,-2.6467978954315186
1765793074313127000,6.131126953125,9.368865013122559,-1.172361135482788,-2.6495907306671143
1765793074323167200,6.141167236328125,9.369783401489258,-1.1642471551895142,-2.649919271469116
1765793074333176800,6.1511767578125,9.370063781738281,-1.1572431325912476,-2.6519951820373535
1765793074343186700,6.161186767578125,9.369767189025879,-1.1542898416519165,-2.654332399368286
1765793074363206100,6.1812060546875,9.366107940673828,-1.1723371744155884,-2.6593291759490967
1765793074373154800,6.19115478515625,9.365191459655762,-1.1788151264190674,-2.659693479537964
1765793074383164700,6.20116455078125,9.363018989562988,-1.1880732774734497,-2.663219928741455
1765793074393174500,6.211174560546875,9.360757827758789,-1.1944860219955444,-2.6682980060577393
1765793074403184000,6.22118408203125,9.359732627868652,-1.1955771446228027,-2.6714038848876953
1765793074413163500,6.23116357421875,9.35925579071045,-1.1883814334869385,-2.676279306411743
1765793074423173400,6.24117333984375,9.360146522521973,-1.1757733821868896,-2.6787312030792236
1765793074433183000,6.251182861328125,9.360377311706543,-1.1668474674224854,-2.6818273067474365
1765793074453202400,6.271202392578125,9.35955810546875,-1.1679469347000122,-2.6842048168182373
1765793074463181800,6.281181884765625,9.359548568725586,-1.1726471185684204,-2.682190179824829
1765793074473222100,6.29122216796875,9.358795166015625,-1.1816624402999878,-2.6808598041534424
1765793074483231700,6.301231689453125,9.35782241821289,-1.1906057596206665,-2.6802990436553955
1765793074493211100,6.311211181640625,9.357449531555176,-1.1957319974899292,-2.679321527481079
1765793074503251500,6.32125146484375,9.358201026916504,-1.1955995559692383,-2.6767516136169434
1765793074513261000,6.331260986328125,9.359258651733398,-1.192834496498108,-2.674286365509033
1765793074523271000,6.34127099609375,9.360507011413574,-1.189015507698059,-2.671616315841675
1765793074533219600,6.351219482421875,9.361641883850098,-1.1828113794326782,-2.6703946590423584
1765793074543260000,6.361260009765625,9.361759185791016,-1.1827534437179565,-2.6700103282928467
1765793074553269800,6.371269775390625,9.361227989196777,-1.1868085861206055,-2.670071840286255
1765793074573289200,6.391289306640625,9.358827590942383,-1.1974060535430908,-2.6737515926361084
1765793074583268400,6.401268310546875,9.357649803161621,-1.1946898698806763,-2.679084300994873
1765793074593278200,6.4112783203125,9.357071876525879,-1.1886383295059204,-2.683790683746338
1765793074603288000,6.4212880859375,9.355941772460938,-1.1842122077941895,-2.6896796226501465
1765793074613297700,6.431297607421875,9.355073928833008,-1.1810755729675293,-2.694075107574463
1765793074623307500,6.4413076171875,9.352737426757812,-1.1865663528442383,-2.69976806640625
1765793074633256200,6.451256103515625,9.349446296691895,-1.1978954076766968,-2.7061586380004883
1765793074643296500,6.461296630859375,9.34609317779541,-1.2115315198898315,-2.7116641998291016
1765793074683305200,6.50130517578125,9.339113235473633,-1.2419110536575317,-2.721950054168701
1765793074693254000,6.51125390625,9.335700035095215,-1.2715356349945068,-2.719980239868164
1765793074703263500,6.521263427734375,9.334085464477539,-1.2890515327453613,-2.717273712158203
1765793074713273300,6.5312734375,9.333439826965332,-1.3067647218704224,-2.7110228538513184
1765793074723283200,6.541283203125,9.334405899047852,-1.3171031475067139,-2.702683210372925
1765793074733292800,6.551292724609375,9.335358619689941,-1.3216358423233032,-2.6971731185913086
1765793074743302700,6.561302734375,9.337116241455078,-1.320487141609192,-2.691645622253418
1765793074753343000,6.571343017578125,9.33996868133545,-1.316831350326538,-2.6835269927978516
1765793074763352600,6.5813525390625,9.34354019165039,-1.310123324394226,-2.67436146736145
1765793074793321000,6.611321044921875,9.350218772888184,-1.2931556701660156,-2.659236431121826
1765793074803361300,6.621361328125,9.349943161010742,-1.3001024723052979,-2.6568210124969482
1765793074813371100,6.63137109375,9.348997116088867,-1.3080488443374634,-2.6562483310699463
1765793074823319800,6.64131982421875,9.34815502166748,-1.3136022090911865,-2.6564719676971436
1765793074833360100,6.651360107421875,9.347956657409668,-1.3120241165161133,-2.657945394515991
1765793074843369700,6.66136962890625,9.347855567932129,-1.305161952972412,-2.6616783142089844
1765793074853318400,6.671318359375,9.348409652709961,-1.2969145774841309,-2.6637635231018066
1765793074873368600,6.69136865234375,9.347898483276367,-1.2831255197525024,-2.6722240447998047
1765793074883378400,6.70137841796875,9.346384048461914,-1.279796838760376,-2.6791083812713623
1765793074893388000,6.711387939453125,9.345318794250488,-1.2721517086029053,-2.6864559650421143
1765793074903367400,6.721367431640625,9.34525203704834,-1.2647873163223267,-2.690159797668457
1765793074913316000,6.731316162109375,9.34559440612793,-1.2487542629241943,-2.696453332901001
1765793074923326000,6.741325927734375,9.345972061157227,-1.2335524559020996,-2.702136516571045
1765793074933305000,6.75130517578125,9.345697402954102,-1.2228590250015259,-2.7079408168792725
1765793074943284200,6.7612841796875,9.344793319702148,-1.218187928199768,-2.7131619453430176
1765793074953324500,6.771324462890625,9.343896865844727,-1.2155603170394897,-2.717423677444458
1765793074963334400,6.78133447265625,9.343652725219727,-1.2145756483078003,-2.7187023162841797
1765793074983293000,6.80129296875,9.346639633178711,-1.1816433668136597,-2.722944974899292
1765793074993272000,6.81127197265625,9.348191261291504,-1.172701120376587,-2.7214837074279785
1765793075003282000,6.821281982421875,9.350725173950195,-1.1604424715042114,-2.718034029006958
1765793075013261000,6.831260986328125,9.353638648986816,-1.148841142654419,-2.7129311561584473
1765793075023271000,6.84127099609375,9.356614112854004,-1.1388200521469116,-2.7068874835968018
1765793075033250000,6.85125,9.359755516052246,-1.1258583068847656,-2.7014458179473877
1765793075043260000,6.861260009765625,9.363007545471191,-1.1137956380844116,-2.6951675415039062
1765793075053269800,6.871269775390625,9.364790916442871,-1.1042853593826294,-2.6928820610046387
1765793075063279400,6.881279296875,9.36976146697998,-1.0807673931121826,-2.6851248741149902
1765793075073258800,6.8912587890625,9.37167739868164,-1.0717543363571167,-2.682049036026001
1765793075103288000,6.9212880859375,9.3811616897583,-1.0096056461334229,-2.6729907989501953
1765793075113267200,6.93126708984375,9.383460998535156,-0.9944564700126648,-2.6706016063690186
1765793075123277000,6.941277099609375,9.384115219116211,-0.9883838891983032,-2.6705548763275146
1765793075133286700,6.95128662109375,9.383954048156738,-0.9851930141448975,-2.672299861907959
1765793075143296500,6.961296630859375,9.384039878845215,-0.9752352833747864,-2.675649404525757
1765793075153245200,6.9712451171875,9.385265350341797,-0.9600101709365845,-2.6768574714660645
1765793075163255000,6.981255126953125,9.385473251342773,-0.9510177373886108,-2.6793360710144043
1765793075173265000,6.991264892578125,9.38699722290039,-0.9241225719451904,-2.6834070682525635
1765793075213303800,7.0313037109375,9.389451026916504,-0.8704572916030884,-2.692751169204712
1765793075223313700,7.041313720703125,9.389524459838867,-0.8580081462860107,-2.6964874267578125
1765793075233262300,7.051262451171875,9.38959789276123,-0.8469263911247253,-2.6997318267822266
1765793075243272200,7.061272216796875,9.388842582702637,-0.833179771900177,-2.706627368927002
1765793075253251300,7.071251220703125,9.389458656311035,-0.8155840635299683,-2.709847927093506
1765793075263230700,7.081230712890625,9.38834285736084,-0.8080828785896301,-2.715953826904297
1765793075273240300,7.091240234375,9.386418342590332,-0.8075537085533142,-2.7227556705474854
1765793075303269600,7.12126953125,9.380206108093262,-0.8082857131958008,-2.7438650131225586
1765793075313249000,7.1312490234375,9.380292892456055,-0.7926657199859619,-2.7481226921081543
1765793075323258600,7.141258544921875,9.38104248046875,-0.777275025844574,-2.749960422515869
1765793075333238000,7.151238037109375,9.381732940673828,-0.7664769887924194,-2.750633716583252
1765793075343247600,7.16124755859375,9.385726928710938,-0.7400214672088623,-2.744248151779175
1765793075353257500,7.171257568359375,9.389245986938477,-0.7248458862304688,-2.736246109008789
1765793075363267300,7.181267333984375,9.392985343933105,-0.7063000202178955,-2.728248357772827
1765793075403306200,7.22130615234375,9.404192924499512,-0.7117322087287903,-2.6879329681396484
1765793075413316000,7.231316162109375,9.404584884643555,-0.7155804634094238,-2.685539484024048
1765793075423326000,7.241325927734375,9.407214164733887,-0.7158470153808594,-2.6762425899505615
1765793075433335600,7.25133544921875,9.407981872558594,-0.7140238285064697,-2.674027919769287
1765793075443345400,7.261345458984375,9.409878730773926,-0.7054040431976318,-2.669640302658081
1765793075453294000,7.271294189453125,9.410370826721191,-0.7012699246406555,-2.668992519378662
1765793075463273500,7.2812734375,9.410321235656738,-0.7002207040786743,-2.6694421768188477
1765793075473283000,7.291282958984375,9.409721374511719,-0.6996740102767944,-2.671701192855835
1765793075503312400,7.3213125,9.40372085571289,-0.722486674785614,-2.686713695526123
1765793075513291800,7.331291748046875,9.397575378417969,-0.7496028542518616,-2.7007522583007812
1765793075523301400,7.34130126953125,9.395371437072754,-0.7555550336837769,-2.7067551612854004
1765793075533280800,7.35128076171875,9.392152786254883,-0.7594785094261169,-2.716808319091797
1765793075543290400,7.361290283203125,9.389273643493652,-0.7641307711601257,-2.7254397869110107
1765793075553300200,7.37130029296875,9.385470390319824,-0.776569664478302,-2.7350075244903564
1765793075563310000,7.38131005859375,9.382830619812012,-0.7811843156814575,-2.742741107940674
1765793075573319700,7.391319580078125,9.37850284576416,-0.7922743558883667,-2.754336357116699
1765793075583299000,7.401299072265625,9.372844696044922,-0.8235383629798889,-2.7644097805023193
1765793075613297700,7.431297607421875,9.366424560546875,-0.8460261821746826,-2.7793381214141846
1765793075623277000,7.441277099609375,9.365121841430664,-0.8511086106300354,-2.7821719646453857
1765793075633256200,7.451256103515625,9.363713264465332,-0.8659915328025818,-2.782322406768799
1765793075643266000,7.46126611328125,9.35925579071045,-0.9072418212890625,-2.7841742038726807
1765793075653214700,7.471214599609375,9.357551574707031,-0.9233169555664062,-2.784620523452759
1765793075663255000,7.481255126953125,9.355193138122559,-0.946678638458252,-2.784700632095337
1765793075673234200,7.491234130859375,9.355620384216309,-0.949303925037384,-2.782367706298828
1765793075683274500,7.5012744140625,9.356232643127441,-0.9525994062423706,-2.779181957244873
1765793075693284400,7.511284423828125,9.35659122467041,-0.9627113938331604,-2.7744884490966797
1765793075723283200,7.541283203125,9.356156349182129,-1.0058823823928833,-2.760599374771118
1765793075733292800,7.551292724609375,9.354947090148926,-1.0277154445648193,-2.756654739379883
1765793075743302700,7.561302734375,9.354513168334961,-1.0350450277328491,-2.7553865909576416
1765793075753343000,7.571343017578125,9.35559368133545,-1.0431352853775024,-2.7486572265625
1765793075763352600,7.5813525390625,9.356790542602539,-1.0468823909759521,-2.7431530952453613
1765793075773332000,7.59133203125,9.356197357177734,-1.061029314994812,-2.7397401332855225
1765793075783311000,7.60131103515625,9.35505199432373,-1.0671309232711792,-2.7412805557250977
1765793075793321000,7.611321044921875,9.35140323638916,-1.092402696609497,-2.743774175643921
1765793075833360100,7.651360107421875,9.337918281555176,-1.1863479614257812,-2.7506837844848633
1765793075843369700,7.66136962890625,9.338882446289062,-1.1900218725204468,-2.7458176612854004
1765793075853318400,7.671318359375,9.340438842773438,-1.1808507442474365,-2.7444825172424316
1765793075863328300,7.681328369140625,9.341429710388184,-1.163474202156067,-2.7485291957855225
1765793075873307600,7.6913076171875,9.341287612915039,-1.1684765815734863,-2.7468879222869873
1765793075883347700,7.70134765625,9.338191986083984,-1.2151416540145874,-2.737149477005005
1765793075893327000,7.7113271484375,9.332767486572266,-1.2613188028335571,-2.7347617149353027
1765793075903306200,7.72130615234375,9.327842712402344,-1.3020291328430176,-2.7324836254119873
1765793075933274600,7.751274658203125,9.327317237854004,-1.3408797979354858,-2.7154347896575928
1765793075943284200,7.7612841796875,9.327410697937012,-1.3582123517990112,-2.7064852714538574
1765793075953263600,7.771263671875,9.327228546142578,-1.3766814470291138,-2.697766065597534
1765793075963304000,7.781303955078125,9.326287269592285,-1.3986103534698486,-2.689727783203125
1765793075973313500,7.7913134765625,9.326120376586914,-1.416474461555481,-2.680945873260498
1765793075993302500,7.811302490234375,9.32905101776123,-1.434309720993042,-2.661194324493408
1765793076003342800,7.8213427734375,9.331766128540039,-1.4381771087646484,-2.6495609283447266
1765793076033311200,7.851311279296875,9.336877822875977,-1.4582241773605347,-2.620435953140259
1765793076043320800,7.86132080078125,9.336562156677246,-1.469317078590393,-2.6153602600097656
1765793076053330700,7.87133056640625,9.336527824401855,-1.4778056144714355,-2.610697031021118
1765793076063340500,7.881340576171875,9.338200569152832,-1.4787509441375732,-2.6041672229766846
1765793076073350100,7.89135009765625,9.340510368347168,-1.4745681285858154,-2.5982506275177
1765793076083360000,7.901360107421875,9.342823028564453,-1.469719648361206,-2.592677354812622
1765793076093339400,7.91133935546875,9.345376014709473,-1.4681659936904907,-2.5843429565429688
1765793076103349000,7.921348876953125,9.346695899963379,-1.474020004272461,-2.5762248039245605
1765793076153306400,7.971306396484375,9.36012077331543,-1.4912595748901367,-2.516876697540283
1765793076163316000,7.98131591796875,9.363228797912598,-1.5004671812057495,-2.499790668487549
1765793076173325800,7.991325927734375,9.364921569824219,-1.5124120712280273,-2.4862124919891357
1765793076183305200,8.00130517578125,9.365106582641602,-1.5323158502578735,-2.4732913970947266
1765793076193314800,8.011314697265625,9.365496635437012,-1.543168067932129,-2.465054988861084
1765793076203324700,8.02132470703125,9.366842269897461,-1.5463964939117432,-2.4579079151153564
1765793076213334300,8.031334228515625,9.368285179138184,-1.5462946891784668,-2.4524645805358887
1765793076253312500,8.0713125,9.377496719360352,-1.5502698421478271,-2.4144582748413086
1765793076263322000,8.081322021484375,9.381241798400879,-1.5455142259597778,-2.402930974960327
1765793076273301500,8.091301513671874,9.384197235107422,-1.539119839668274,-2.3954825401306152
1765793076283341800,8.101341796875,9.386351585388184,-1.5347574949264526,-2.38983416557312
1765793076293351400,8.111351318359375,9.38819694519043,-1.537960171699524,-2.3805081844329834
1765793076303361300,8.121361328125,9.38901424407959,-1.5448752641677856,-2.372793674468994
1765793076313340400,8.13134033203125,9.390020370483398,-1.5507985353469849,-2.3649392127990723
1765793076323380700,8.141380615234375,9.391495704650879,-1.554703950881958,-2.3565003871917725
1765793076353379600,8.171379638671874,9.395750999450684,-1.5576897859573364,-2.3374876976013184
1765793076363389400,8.181389404296874,9.396919250488281,-1.5573846101760864,-2.3329906463623047
1765793076373338000,8.191338134765624,9.400430679321289,-1.5523909330368042,-2.322146415710449
1765793076383378400,8.20137841796875,9.40332317352295,-1.548053503036499,-2.3133177757263184
1765793076393388000,8.211387939453125,9.405633926391602,-1.5494846105575562,-2.3029379844665527
1765793076403398000,8.22139794921875,9.406512260437012,-1.5507965087890625,-2.298464775085449
1765793076413346600,8.2313466796875,9.407690048217773,-1.5528993606567383,-2.292217969894409
1765793076423356400,8.2413564453125,9.408411026000977,-1.557481288909912,-2.286140203475952
1765793076433305000,8.25130517578125,9.409614562988281,-1.5590592622756958,-2.2801032066345215
1765793076443315000,8.26131494140625,9.411073684692383,-1.5577332973480225,-2.274984121322632
1765793076483353900,8.301353759765625,9.418816566467285,-1.533286452293396,-2.259492874145508
1765793076493363700,8.31136376953125,9.419795036315918,-1.533884048461914,-2.255002975463867
1765793076503373600,8.32137353515625,9.418947219848633,-1.5399647951126099,-2.2544026374816895
1765793076513322200,8.331322265625,9.417983055114746,-1.5469319820404053,-2.253662109375
1765793076523331800,8.341331787109375,9.415668487548828,-1.5551410913467407,-2.2576792240142822
1765793076533311200,8.351311279296874,9.41528606414795,-1.5573300123214722,-2.257765531539917
1765793076543351600,8.3613515625,9.416679382324219,-1.5546396970748901,-2.253802537918091
1765793076573380900,8.391380859375,9.41653823852539,-1.5714285373687744,-2.242722272872925
1765793076603410200,8.42141015625,9.421098709106445,-1.5639228820800781,-2.228773593902588
1765793076613419800,8.431419677734375,9.423149108886719,-1.5605300664901733,-2.2224740982055664
1765793076623429600,8.4414296875,9.425168991088867,-1.5593098402023315,-2.214754819869995
1765793076633439500,8.451439453125,9.427791595458984,-1.5579169988632202,-2.20455002784729
1765793076643449000,8.461448974609375,9.429339408874512,-1.5590702295303345,-2.197101593017578
1765793076653459000,8.471458984375,9.43151569366455,-1.5632085800170898,-2.184783935546875
1765793076663438000,8.48143798828125,9.433838844299316,-1.56814706325531,-2.171170234680176
1765793076703416000,8.521416015625,9.446513175964355,-1.5625053644180298,-2.119518995285034
1765793076713426000,8.531426025390624,9.447880744934082,-1.5633137226104736,-2.1128172874450684
1765793076723435800,8.541435791015624,9.450942039489746,-1.5624337196350098,-2.099736452102661
1765793076733384400,8.551384521484374,9.454084396362305,-1.5619235038757324,-2.085923433303833
1765793076743394300,8.561394287109374,9.45759105682373,-1.5593527555465698,-2.07190203666687
1765793076753434400,8.571434326171875,9.46284294128418,-1.5503675937652588,-2.0545942783355713
1765793076763444200,8.5814443359375,9.465313911437988,-1.5460357666015625,-2.046459913253784
1765793076783463700,8.601463623046875,9.470927238464355,-1.537450909614563,-2.0268592834472656
1765793076793473500,8.6114736328125,9.471151351928711,-1.5408090353012085,-2.023261070251465
1765793076803483400,8.6214833984375,9.473071098327637,-1.5386532545089722,-2.015901803970337
1765793076813493000,8.631492919921875,9.473825454711914,-1.5383970737457275,-2.012550115585327
1765793076823502800,8.6415029296875,9.476207733154297,-1.5266817808151245,-2.010251998901367
1765793076833512700,8.6515126953125,9.479071617126465,-1.5120364427566528,-2.0078158378601074
1765793076843522300,8.661522216796875,9.481388092041016,-1.4979740381240845,-2.00742244720459
1765793076853471200,8.67147119140625,9.482277870178223,-1.4932887554168701,-2.006709098815918
1765793076883500300,8.701500244140625,9.486333847045898,-1.4639365673065186,-2.0091636180877686
1765793076903489500,8.721489501953124,9.48696231842041,-1.4469923973083496,-2.018450975418091
1765793076913499100,8.7314990234375,9.486288070678711,-1.4478189945220947,-2.021026611328125
1765793076923509000,8.741509033203124,9.484999656677246,-1.443118691444397,-2.0304126739501953
1765793076933518600,8.7515185546875,9.483009338378906,-1.4484617710113525,-2.0358965396881104
1765793076943498000,8.761498046875,9.482446670532227,-1.4426051378250122,-2.0426669120788574
1765793076953507800,8.7715078125,9.481551170349121,-1.4440267086029053,-2.04581618309021
1765793076963517400,8.781517333984375,9.481464385986328,-1.4361284971237183,-2.0517680644989014
1765793077013474800,8.831474853515624,9.4775390625,-1.4251306056976318,-2.077414035797119
1765793077023454000,8.841453857421875,9.476472854614258,-1.4260668754577637,-2.081632375717163
1765793077033463800,8.8514638671875,9.474631309509277,-1.4256267547607422,-2.090294599533081
1765793077043473700,8.8614736328125,9.472987174987793,-1.4194318056106567,-2.101930856704712
1765793077053483300,8.871483154296875,9.47158432006836,-1.415237545967102,-2.1110596656799316
1765793077063493000,8.8814931640625,9.470654487609863,-1.413353443145752,-2.1164920330047607
1765793077073502700,8.891502685546875,9.468786239624023,-1.4087111949920654,-2.1279141902923584
1765793077103532000,8.921531982421875,9.46085262298584,-1.4163415431976318,-2.15792179107666
1765793077113511400,8.931511474609374,9.456358909606934,-1.425532579421997,-2.171525478363037
1765793077123521300,8.941521240234374,9.454643249511719,-1.426329255104065,-2.178459882736206
1765793077133531000,8.95153076171875,9.454033851623535,-1.4274544715881348,-2.1803691387176514
1765793077143510300,8.96151025390625,9.45391845703125,-1.4210050106048584,-2.1850781440734863
1765793077153519900,8.971519775390625,9.453499794006348,-1.4112889766693115,-2.1931660175323486
1765793077163529700,8.98152978515625,9.452521324157715,-1.409289002418518,-2.198664665222168
1765793077173478400,8.991478515625,9.451225280761719,-1.4097168445587158,-2.2039577960968018
1765793077193467400,9.01146728515625,9.449173927307129,-1.4122507572174072,-2.211118698120117
1765793077213487000,9.031487060546874,9.446508407592773,-1.418242335319519,-2.218661069869995
1765793077223496700,9.04149658203125,9.44650936126709,-1.4163004159927368,-2.2198972702026367
1765793077233506600,9.051506591796874,9.446573257446289,-1.4120899438858032,-2.222309112548828
1765793077243516200,9.06151611328125,9.444613456726074,-1.414471983909607,-2.2291111946105957
1765793077253526000,9.071526123046874,9.442780494689941,-1.4158414602279663,-2.235995292663574
1765793077263535900,9.081535888671874,9.441739082336426,-1.409914255142212,-2.244123697280884
1765793077273545500,9.09154541015625,9.441887855529785,-1.405564785003662,-2.2462241649627686
1765793077283555300,9.101555419921874,9.44216537475586,-1.3945283889770508,-2.251931667327881
1765793077313523700,9.131523681640624,9.442973136901855,-1.3565324544906616,-2.2716665267944336
1765793077323533300,9.141533203125,9.442578315734863,-1.3495644330978394,-2.277448892593384
1765793077333543200,9.151543212890624,9.441787719726562,-1.3436299562454224,-2.2842249870300293
1765793077343552800,9.161552734375,9.441243171691895,-1.335737705230713,-2.291097640991211
1765793077353562600,9.171562744140624,9.441452980041504,-1.319557785987854,-2.2995917797088623
1765793077363542000,9.1815419921875,9.441167831420898,-1.3162360191345215,-2.3026652336120605
1765793077373551600,9.191551513671875,9.440276145935059,-1.3090999126434326,-2.310375452041626
1765793077383561500,9.2015615234375,9.4396333694458,-1.3005754947662354,-2.3178038597106934
1765793077393540600,9.21154052734375,9.440531730651855,-1.2844074964523315,-2.323152542114258
1765793077423570000,9.24156982421875,9.440571784973145,-1.2651290893554688,-2.3335487842559814
1765793077433610200,9.2516103515625,9.440579414367676,-1.2569576501846313,-2.337928056716919
1765793077443620000,9.2616201171875,9.44100284576416,-1.2454586029052734,-2.34236741065979
1765793077453629700,9.271629638671875,9.443570137023926,-1.2186495065689087,-2.346113920211792
1765793077463639600,9.2816396484375,9.444893836975098,-1.206828236579895,-2.3468990325927734
1765793077473649400,9.2916494140625,9.44668960571289,-1.1886413097381592,-2.348951578140259
1765793077483659000,9.301658935546875,9.448331832885742,-1.174850583076477,-2.3492865562438965
1765793077493638400,9.311638427734374,9.450387001037598,-1.1644796133041382,-2.3461809158325195
1765793077523606500,9.3416064453125,9.460890769958496,-1.1170616149902344,-2.3268232345581055
1765793077533616400,9.351616455078124,9.466897010803223,-1.0897564888000488,-2.3153131008148193
1765793077543626200,9.361626220703124,9.469366073608398,-1.0789622068405151,-2.3102688789367676
1765793077553635800,9.3716357421875,9.47321605682373,-1.0653266906738281,-2.3007924556732178
1765793077563645700,9.381645751953124,9.475394248962402,-1.058332085609436,-2.2950427532196045
1765793077573594400,9.391594482421874,9.478438377380371,-1.0546241998672485,-2.2841551303863525
1765793077583634700,9.401634765625,9.481632232666016,-1.0533668994903564,-2.27144193649292
1765793077593644500,9.41164453125,9.484554290771484,-1.051302194595337,-2.2601754665374756
1765793077603654100,9.421654052734375,9.487471580505371,-1.053863763809204,-2.2466931343078613
1765793077633683500,9.451683349609375,9.49637222290039,-1.0605405569076538,-2.2055771350860596
1765793077643693300,9.461693359375,9.502760887145996,-1.0431469678878784,-2.186267614364624
1765793077653703200,9.471703125,9.505877494812012,-1.0352438688278198,-2.176455020904541
1765793077663712800,9.481712646484375,9.511160850524902,-1.023972749710083,-2.158632278442383
1765793077673722600,9.49172265625,9.517083168029785,-1.0200457572937012,-2.134249448776245
1765793077683732200,9.501732177734375,9.51818561553955,-1.0230973958969116,-2.127864122390747
1765793077693742000,9.5117421875,9.5215425491333,-1.0214358568191528,-2.1135947704315186
1765793077703721500,9.521721435546874,9.526424407958984,-1.0107543468475342,-2.0966644287109375
1765793077733720000,9.551719970703125,9.547473907470703,-0.9789207577705383,-2.0144057273864746
1765793077743730000,9.56172998046875,9.551145553588867,-0.976402997970581,-1.998163104057312
1765793077753709000,9.571708984375,9.556662559509277,-0.9869588017463684,-1.9663408994674683
1765793077763719000,9.581718994140624,9.561906814575195,-1.007818579673767,-1.9299298524856567
1765793077773728800,9.591728759765624,9.56639575958252,-1.0400646924972534,-1.8901687860488892
1765793077783738400,9.60173828125,9.571063995361328,-1.0676023960113525,-1.8507684469223022
1765793077793748200,9.611748291015624,9.577275276184082,-1.0856995582580566,-1.807605504989624
1765793077803758000,9.621758056640624,9.58625316619873,-1.1117087602615356,-1.7430559396743774
1765793077823777500,9.641777587890624,9.596359252929688,-1.1369327306747437,-1.6696239709854126
1765793077833787400,9.651787353515624,9.602557182312012,-1.1847739219665527,-1.5992472171783447
1765793077843797000,9.661796875,9.604406356811523,-1.2054345607757568,-1.572475552558899
1765793077853806800,9.671806884765624,9.607549667358398,-1.2695192098617554,-1.5012342929840088
1765793077863786000,9.681785888671875,9.608654022216797,-1.2911399602890015,-1.4755045175552368
1765793077873795800,9.6917958984375,9.611180305480957,-1.3254430294036865,-1.4278644323349
1765793077883805700,9.7018056640625,9.612750053405762,-1.3638910055160522,-1.3802995681762695
1765793077893815300,9.711815185546875,9.612508773803711,-1.4102225303649902,-1.3346647024154663
1765793077903825200,9.7218251953125,9.610403060913086,-1.4682718515396118,-1.2863531112670898
1765793077913834800,9.731834716796875,9.605788230895996,-1.5514886379241943,-1.22151517868042
1765793077943864000,9.761864013671875,9.59531021118164,-1.677505612373352,-1.1341966390609741
1765793077953843500,9.771843505859374,9.589640617370605,-1.7328048944473267,-1.0984406471252441
1765793077983811600,9.8018115234375,9.565022468566895,-1.9250133037567139,-0.9874508380889893
1765793078003831300,9.821831298828124,9.533427238464355,-2.1190309524536133,-0.8909896016120911
1765793078013841000,9.8318408203125,9.52548599243164,-2.1603076457977295,-0.8766831755638123
1765793078023850800,9.841850830078124,9.50810718536377,-2.2474005222320557,-0.8458618521690369
1765793078053910500,9.87191064453125,9.424982070922852,-2.609940528869629,-0.7268577814102173
1765793078063920400,9.88192041015625,9.404502868652344,-2.683253526687622,-0.7251584529876709
1765793078073930000,9.891929931640625,9.36602783203125,-2.8231635093688965,-0.6911162734031677
1765793078083939800,9.90193994140625,9.324761390686035,-2.965358257293701,-0.6525824666023254
1765793078093949700,9.91194970703125,9.283266067504883,-3.101105213165283,-0.6119662523269653
1765793078103928800,9.9219287109375,9.243098258972168,-3.2262632846832275,-0.5716111063957214
1765793078113938700,9.931938720703124,9.188417434692383,-3.38908052444458,-0.5074535608291626
1765793078123948300,9.9419482421875,9.151070594787598,-3.4930999279022217,-0.4759691655635834
1765793078133897200,9.951897216796874,9.107809066772461,-3.609044313430786,-0.43932753801345825
1765793078153947100,9.971947021484375,8.99600887298584,-3.8884880542755127,-0.3491007089614868
1765793078163957000,9.98195703125,8.9597806930542,-3.972701072692871,-0.3322218656539917
1765793078173966600,9.991966552734375,8.857787132263184,-4.200102806091309,-0.2629065215587616
1765793078183946000,10.001946044921874,8.819642066955566,-4.280523300170898,-0.2478269785642624
1765793078193955800,10.011955810546874,8.719132423400879,-4.484239101409912,-0.196785107254982
1765793078203935000,10.02193505859375,8.653862953186035,-4.61002779006958,-0.1693684309720993
1765793078213944800,10.03194482421875,8.620455741882324,-4.67249059677124,-0.16116616129875183
1765793078223924000,10.041924072265624,8.52197265625,-4.851037979125977,-0.1174844428896904
1765793078233933800,10.051933837890624,8.486895561218262,-4.912410259246826,-0.10589081794023514
1765793078263963100,10.081963134765624,8.160491943359375,-5.438282012939453,-0.042994946241378784
1765793078273942300,10.0919423828125,8.103960037231445,-5.522106170654297,-0.050540175288915634
1765793078283982600,10.101982666015624,7.956738471984863,-5.732310771942139,-0.03631371632218361
1765793078293992400,10.111992431640624,7.909175872802734,-5.797754287719727,-0.03709149360656738
1765793078303941000,10.121941162109374,7.805902481079102,-5.936123371124268,-0.026963191106915474
1765793078313981400,10.1319814453125,7.619019508361816,-6.174210071563721,-0.008300283923745155
1765793078323991000,10.141990966796875,7.467812538146973,-6.356269359588623,0.0031277767848223448
1765793078334001000,10.1520009765625,7.296143054962158,-6.5525922775268555,0.014177286066114902
1765793078344010800,10.1620107421875,7.200132369995117,-6.657941818237305,0.016989421099424362
1765793078364030200,10.1820302734375,6.72036600112915,-7.141850471496582,0.032433073967695236
1765793078373979000,10.191978759765625,6.512326240539551,-7.332050800323486,0.031978022307157516
1765793078383988700,10.20198876953125,6.390931606292725,-7.438108921051025,0.030320173129439354
1765793078393967900,10.2119677734375,6.016305446624756,-7.744272232055664,0.026639146730303764
1765793078403977700,10.221977783203124,5.758944034576416,-7.937528610229492,0.024088440462946892
1765793078413956900,10.231956787109375,5.5125861167907715,-8.110555648803711,0.025959786027669907
1765793078423966700,10.241966796875,5.39806604385376,-8.187216758728027,0.027272185310721397
1765793078433976600,10.2519765625,5.079550743103027,-8.38857650756836,0.018748247995972633
1765793078443955700,10.261955810546874,4.876219272613525,-8.50839614868164,0.009264525957405567
1765793078483964200,10.301964111328125,4.038179874420166,-8.936614036560059,-0.02037818729877472
1765793078493974000,10.31197412109375,3.812619209289551,-9.035122871398926,-0.02931026555597782
1765793078503983900,10.32198388671875,3.5841617584228516,-9.1281099319458,-0.0420338474214077
1765793078513993500,10.331993408203125,3.3592491149902344,-9.21318244934082,-0.055690616369247437
1765793078524003300,10.34200341796875,3.2482359409332275,-9.252873420715332,-0.06078676879405975
1765793078533952000,10.351951904296875,3.0375664234161377,-9.324108123779297,-0.0677066296339035
1765793078573960700,10.391960693359374,2.500012159347534,-9.482372283935547,-0.07037380337715149
1765793078593949700,10.41194970703125,2.352781295776367,-9.519926071166992,-0.07637479901313782
1765793078613908200,10.431908203125,2.3149046897888184,-9.529190063476562,-0.07829758524894714
1765793078623917800,10.441917724609375,2.2578024864196777,-9.542757034301758,-0.09219985455274582
1765793078633927700,10.451927734375,2.225494384765625,-9.550237655639648,-0.10251052677631378
1765793223127584300,154.94558422851563,8.846724510192871,3.1350440979003906,-2.842066764831543
1765793223147573200,154.9655732421875,8.868246078491211,3.1090848445892334,-2.8032469749450684
1765793223177072000,154.99507202148436,8.893352508544922,3.0660202503204346,-2.77095365524292
1765793223196930600,155.0149306640625,8.912479400634766,3.0354275703430176,-2.743043899536133
1765793223206940400,155.0249404296875,8.91799259185791,3.0272371768951416,-2.7341601848602295
1765793223216919600,155.03491943359376,8.921935081481934,3.021300792694092,-2.727858781814575
1765793223226899000,155.04489892578124,8.923376083374023,3.0194265842437744,-2.72521710395813
1765793223236908500,155.05490844726563,8.924697875976562,3.0171422958374023,-2.723419666290283
1765793223246888000,155.06488793945311,8.923873901367188,3.0155625343322754,-2.7278623580932617
1765793223286835500,155.10483544921874,8.914400100708008,3.0043458938598633,-2.770878791809082
1765793223296814600,155.11481469726561,8.91260051727295,3.0017809867858887,-2.7794322967529297
1765793223306794000,155.1247939453125,8.90783405303955,2.9965460300445557,-2.8002827167510986
1765793223316773000,155.13477319335936,8.902310371398926,2.991743326187134,-2.8228952884674072
1765793223326783000,155.14478295898436,8.88685417175293,2.9946298599243164,-2.8681700229644775
1765793223346741500,155.16474145507811,8.867572784423828,3.003164291381836,-2.9184842109680176
1765793223356781800,155.17478173828124,8.85007381439209,3.0084400177001953,-2.965780019760132
1765793223416718300,155.23471826171874,8.869367599487305,2.8369624614715576,-3.07511830329895
1765793223496704800,155.31470483398436,9.0512056350708,2.1366381645202637,-3.1114044189453125
1765793223506684200,155.32468408203124,9.083754539489746,2.0188918113708496,-3.095137357711792
1765793223516724200,155.33472412109376,9.111397743225098,1.9059361219406128,-3.085484504699707
1765793223546662100,155.364662109375,9.14974594116211,1.6533770561218262,-3.1175124645233154
1765793223566651100,155.38465112304686,9.153331756591797,1.459533929824829,-3.2026023864746094
1765793223666565600,155.48456567382811,9.117740631103516,1.03941810131073,-3.457859754562378
1765793223676544800,155.49454467773438,9.115386009216309,1.0018985271453857,-3.475099563598633
1765793223696564500,155.514564453125,9.12183666229248,0.9612707495689392,-3.469644784927368
1765793223776520400,155.5945205078125,9.218111038208008,0.7802473306655884,-3.2539255619049072
1765793223786499800,155.60449975585936,9.23783016204834,0.7590859532356262,-3.2026047706604004
1765793223796509400,155.61450952148436,9.246479034423828,0.750633180141449,-3.1795542240142822
1765793223806519300,155.62451928710936,9.26115894317627,0.7363020777702332,-3.139935255050659
1765793223816498400,155.63449853515624,9.282381057739258,0.7150314450263977,-3.0816409587860107
1765793223826508300,155.64450830078124,9.292359352111816,0.7062249183654785,-3.0534708499908447
1765793223836487400,155.6544873046875,9.308427810668945,0.6940197944641113,-3.0069737434387207
1765793223846497300,155.66449731445311,9.32581901550293,0.6853585839271545,-2.954618453979492
1765793223856476400,155.67447631835938,9.341988563537598,0.6764135360717773,-2.905183792114258
1765793223876465700,155.69446557617186,9.370854377746582,0.6524023413658142,-2.8163528442382812
1765793223886444800,155.70444482421874,9.378167152404785,0.6485598683357239,-2.792801856994629
1765793223896454700,155.71445458984374,9.38973331451416,0.6402749419212341,-2.755600690841675
1765793223906433800,155.72443383789061,9.403757095336914,0.6277004480361938,-2.7102997303009033
1765793223916443600,155.73444360351561,9.413951873779297,0.6112242937088013,-2.6784892082214355
1765793223926422800,155.7444228515625,9.420260429382324,0.6006804704666138,-2.6586198806762695
1765793223936432600,155.7544326171875,9.425312042236328,0.5941286683082581,-2.6421377658843994
1765793223946442200,155.76444213867188,9.430022239685059,0.5887576937675476,-2.626487970352173
1765793223956421600,155.77442163085936,9.435226440429688,0.5888546705245972,-2.607705593109131
1765793223966400800,155.78440087890624,9.442626953125,0.5907589793205261,-2.5803468227386475
1765793223986389800,155.8043896484375,9.449203491210938,0.5795137882232666,-2.5587317943573
1765793223996369200,155.814369140625,9.453120231628418,0.5601028203964233,-2.548567771911621
1765793224006348300,155.82434838867186,9.45754623413086,0.543434202671051,-2.5357210636138916
1765793224016327700,155.83432763671874,9.463074684143066,0.5375154614448547,-2.5162835121154785
1765793224026306800,155.84430688476561,9.468402862548828,0.5408841371536255,-2.495432138442993
1765793224036316700,155.85431665039061,9.474130630493164,0.5513784885406494,-2.4712815284729004
1765793224046326300,155.864326171875,9.479240417480469,0.5586225390434265,-2.449963092803955
1765793224056305700,155.8743056640625,9.48447036743164,0.5639457702636719,-2.4284093379974365
1765793224066223900,155.88422387695311,9.489814758300781,0.5562681555747986,-2.4092257022857666
1765793224096253200,155.91425317382811,9.500580787658691,0.5308793187141418,-2.3722405433654785
1765793224106262800,155.9242626953125,9.504179954528809,0.5207160115242004,-2.3600456714630127
1765793224116242200,155.9342421875,9.508350372314453,0.5064014792442322,-2.346317768096924
1765793224136292000,155.9542919921875,9.518166542053223,0.4610811769962311,-2.3156611919403076
1765793224146271500,155.964271484375,9.526471138000488,0.4046182632446289,-2.2919464111328125
1765793224156281300,155.97428125,9.529770851135254,0.38040077686309814,-2.282355308532715
1765793224166291000,155.984291015625,9.538899421691895,0.2999538481235504,-2.256061315536499
1765793224196259300,156.01425927734374,9.555747032165527,0.13290734589099884,-2.2000951766967773
1765793224206238500,156.02423852539061,9.571337699890137,-0.032179903239011765,-2.1351473331451416
1765793224216217900,156.0342177734375,9.581750869750977,-0.1749023199081421,-2.08082914352417
1765793224226197000,156.04419702148436,9.590645790100098,-0.3532664179801941,-2.0162100791931152
1765793224236206800,156.05420678710936,9.59543514251709,-0.5713315010070801,-1.9420605897903442
1765793224246247000,156.06424682617188,9.595317840576172,-0.6913284659385681,-1.9032398462295532
1765793224256226300,156.07422631835936,9.579879760742188,-1.1283612251281738,-1.7672241926193237
1765793224266205400,156.08420532226563,9.568106651306152,-1.2880780696868896,-1.7212159633636475
1765793224276184800,156.09418481445311,9.507025718688965,-1.8285614252090454,-1.5630786418914795
1765793224286164000,156.1041640625,9.440837860107422,-2.222694158554077,-1.4493451118469238
1765793224336121300,156.15412133789061,8.786648750305176,-4.276615142822266,-0.8220381140708923
1765793224346100500,156.1641005859375,8.428277015686035,-4.977828025817871,-0.5964454412460327
1765793224356079900,156.17407983398436,8.143072128295898,-5.4458794593811035,-0.4507276117801666
1765793224366059000,156.18405908203124,7.982109069824219,-5.684676647186279,-0.3752067983150482
1765793224376068900,156.19406884765624,7.624074459075928,-6.163480281829834,-0.23536328971385956
1765793224386048000,156.20404809570311,7.21657657623291,-6.639362812042236,-0.10139701515436172
1765793224406037000,156.224037109375,6.304923057556152,-7.5098676681518555,0.14220073819160461
1765793224416046800,156.234046875,5.85251522064209,-7.865181922912598,0.23951603472232819
1765793224426026000,156.24402587890626,5.431399345397949,-8.15898323059082,0.318246454000473
1765793224436005400,156.25400537109374,5.0488200187683105,-8.398141860961914,0.3886117935180664
1765793224445984500,156.26398461914061,4.708908557891846,-8.590169906616211,0.4533858597278595
1765793224455994400,156.27399438476561,4.423121929168701,-8.738072395324707,0.5024509429931641
1765793224466004200,156.28400415039061,4.197996616363525,-8.846722602844238,0.53171706199646
1765793224475983400,156.2939833984375,4.024627685546875,-8.926241874694824,0.54312664270401
1765793224526032100,156.3440322265625,3.4859228134155273,-9.148918151855469,0.562167763710022
1765793224536011500,156.35401147460936,3.4600765705108643,-9.158366203308105,0.5679618120193481
1765793224545990700,156.36399072265624,3.4361572265625,-9.166683197021484,0.5789119601249695
1765793224556000500,156.37400048828124,3.4520158767700195,-9.160855293273926,0.5768193602561951
1765793224566010000,156.38401000976563,3.516772985458374,-9.136700630187988,0.568694531917572
1765793224576020000,156.39402001953124,3.565105438232422,-9.117481231689453,0.5761433839797974
1765793224585968600,156.40396875,3.643749475479126,-9.087679862976074,0.5545821189880371
1765793224615937000,156.43393701171874,3.8911614418029785,-8.991939544677734,0.41748687624931335
1765793224655945500,156.47394555664061,4.587237358093262,-8.666353225708008,0.14824877679347992
1765793224665924900,156.4839248046875,4.969234466552734,-8.454402923583984,-0.012729133479297161
1765793224675965000,156.49396484375,5.202709197998047,-8.311660766601562,-0.1359817087650299
1765793224685974800,156.50397485351561,5.341506004333496,-8.220807075500488,-0.2388201653957367
1765793224695954200,156.5139541015625,5.397782802581787,-8.182289123535156,-0.2906649112701416
1765793224705933300,156.52393334960936,5.486545085906982,-8.11911678314209,-0.3849129378795624
1765793695140234000,626.9582338867187,9.614265441894531,-1.0485177040100098,-1.6238471269607544
1765793695169802200,626.9878022460938,9.59408187866211,-1.0799622535705566,-1.719785213470459
1765793695199601000,627.0176008300781,9.557392120361328,-1.0699985027313232,-1.9187911748886108
1765793695209610800,627.0276108398438,9.534977912902832,-1.05112886428833,-2.0370850563049316
1765793695219620600,627.0376206054688,9.520617485046387,-1.032162070274353,-2.1125519275665283
1765793695239609600,627.0576096191406,9.500591278076172,-0.9911720752716064,-2.2196226119995117
1765793695279526700,627.0975266113281,9.459206581115723,-0.789951741695404,-2.4636905193328857
1765793695339432400,627.1574323730468,9.45279598236084,-0.5171132683753967,-2.558833122253418
1765793695349472800,627.16747265625,9.45747184753418,-0.44973793625831604,-2.5542802810668945
1765793695359421400,627.1774213867187,9.461143493652344,-0.41292864084243774,-2.5468873977661133
1765793695369400800,627.1874008789063,9.462841033935547,-0.39904558658599854,-2.542792797088623
1765793695379410700,627.1974106445313,9.468351364135742,-0.3601357638835907,-2.528043508529663
1765793695419388700,627.237388671875,9.479612350463867,-0.2743636667728424,-2.496410846710205
1765793695489304300,627.3073041992187,9.480405807495117,-0.20364893972873688,-2.5001606941223145
1765793695539109000,627.3571091308594,9.477234840393066,-0.17007984220981598,-2.514653444290161
1765793695609024800,627.4270246582031,9.49494743347168,-0.21318064630031586,-2.443545341491699
1765793695649002800,627.4670026855468,9.508084297180176,-0.22083225846290588,-2.3912229537963867
1765793695689011500,627.5070114746094,9.526799201965332,-0.18336740136146545,-2.3188068866729736
1765793695798996700,627.6169968261719,9.624201774597168,0.14140047132968903,-1.8775333166122437
1765793695818924800,627.6369248046875,9.641505241394043,0.18432608246803284,-1.782637596130371
1765793695828965000,627.6469650878906,9.654050827026367,0.19867528975009918,-1.7117880582809448
1765793695878891800,627.6968918457031,9.71746826171875,0.14649619162082672,-1.3113930225372314
1765793695928879600,627.7468796386719,9.74432373046875,0.18662387132644653,-1.087986707687378
1765793696008744200,627.826744140625,9.748797416687012,0.4658304750919342,-0.9562153816223145
1765793696018692900,627.8366928710938,9.750585556030273,0.48291265964508057,-0.9291160702705383
1765793696028702500,627.8467023925781,9.752263069152832,0.4861237406730652,-0.9096300601959229
1765793696038681900,627.8566818847656,9.755793571472168,0.4908933937549591,-0.8682742714881897
1765793696048722200,627.8667221679688,9.762106895446777,0.48837563395500183,-0.7957051396369934
1765793696058731800,627.8767316894531,9.768889427185059,0.46901124715805054,-0.7205625772476196
1765793696118607400,627.936607421875,9.785924911499023,0.5181177258491516,-0.3709801137447357
1765793696128617200,627.9466171875,9.786638259887695,0.5395800471305847,-0.31771570444107056
1765793696138566000,627.9565659179688,9.786999702453613,0.5608441829681396,-0.26548105478286743
1765793696148606200,627.9666062011719,9.786653518676758,0.595919668674469,-0.19156448543071747
1765793696158615800,627.9766157226562,9.786325454711914,0.6093119382858276,-0.1642136424779892
1765793696168625700,627.9866257324219,9.785160064697266,0.6385655403137207,-0.11516741663217545
1765793696178604800,627.9966047363281,9.783051490783691,0.6783559322357178,-0.046069249510765076
1765793696188553700,628.0065537109375,9.782279968261719,0.6906794905662537,-0.018274830654263496
1765793696198532900,628.0165329589844,9.780122756958008,0.7190093398094177,0.051069412380456924
1765793696208481500,628.0264814453125,9.778997421264648,0.7288244366645813,0.10208448767662048
1765793696218430500,628.0364304199219,9.778654098510742,0.7284597158432007,0.13285069167613983
1765793696228440000,628.0464401855469,9.777012825012207,0.7344373464584351,0.20250673592090607
1765793696238388700,628.056388671875,9.775659561157227,0.7371523976325989,0.2519322335720062
1765793696248368000,628.0663681640625,9.775025367736816,0.735385000705719,0.2801452577114105
1765793696258316800,628.0763168945313,9.773751258850098,0.732128381729126,0.3288823664188385
1765793696268326700,628.0863266601563,9.772272109985352,0.7178416848182678,0.39723604917526245
1765793696298294800,628.1162946777343,9.771037101745605,0.6446295380592346,0.5307334661483765
1765793696308335000,628.1263352050781,9.77027702331543,0.6212401986122131,0.5710774660110474
1765793696318345000,628.1363449707031,9.76960277557373,0.6100792288780212,0.5941817760467529
1765793696328354600,628.1463544921875,9.76758098602295,0.5901097655296326,0.6453873515129089
1765793696338334000,628.156333984375,9.766677856445312,0.5850722789764404,0.6633927822113037
1765793696348374300,628.1663742675781,9.764386177062988,0.5741948485374451,0.7053135633468628
1765793696358383900,628.1763837890625,9.762857437133789,0.5689970850944519,0.7302266359329224
1765793696368393700,628.1863937988281,9.76118278503418,0.5693630576133728,0.7520174980163574
1765793696408371700,628.2263718261719,9.754439353942871,0.6203033328056335,0.7978362441062927
1765793696418381600,628.2363815917969,9.751983642578125,0.6473758220672607,0.8062864542007446
1765793696428360700,628.2463605957031,9.748699188232422,0.6974693536758423,0.8042256236076355
1765793696438340000,628.2563400878906,9.745889663696289,0.7264831066131592,0.8125556111335754
1765793696448349700,628.266349609375,9.742627143859863,0.7656626105308533,0.8157005310058594
1765793696458329000,628.2763291015625,9.739813804626465,0.8016836047172546,0.8146823644638062
1765793696468338700,628.2863386230468,9.738761901855469,0.8177394866943359,0.8113045692443848
1765793696478318000,628.2963181152344,9.738061904907227,0.8292928338050842,0.8079677224159241
1765793696508317000,628.3263168945313,9.738948822021484,0.8408308029174805,0.785021960735321
1765793696518296000,628.3362961425781,9.738483428955078,0.8539396524429321,0.776606559753418
1765793696528306000,628.3463059082031,9.738521575927734,0.8632150292396545,0.7658067345619202
1765793696538285000,628.35628515625,9.739128112792969,0.8660041093826294,0.7548489570617676
1765793696548325400,628.3663254394531,9.739381790161133,0.8662019968032837,0.7513505816459656
1765793696558304500,628.3763044433593,9.741850852966309,0.8567201495170593,0.7299059629440308
1765793696568314400,628.386314453125,9.742730140686035,0.8511040210723877,0.7247248291969299
1765793696578293800,628.3962937011719,9.746586799621582,0.8339370489120483,0.6920879483222961
1765793696598282800,628.4162827148438,9.750476837158203,0.8202797770500183,0.6524746417999268
1765793696608262000,628.4262619628906,9.75259780883789,0.8234137892723083,0.6158127188682556
1765793696618241000,628.4362409667968,9.754036903381348,0.8365914225578308,0.5738158822059631
1765793696628220400,628.4462204589844,9.756367683410645,0.8552471399307251,0.5022121667861938
1765793696638199600,628.4561994628906,9.757328987121582,0.8723143935203552,0.45165321230888367
1765793696648209400,628.4662094726563,9.757599830627441,0.8936343193054199,0.4013037383556366
1765793696658188500,628.4761884765625,9.757973670959473,0.9095000624656677,0.3537580668926239
1765793696668198400,628.4861984863281,9.757871627807617,0.9287513494491577,0.3028948903083801
1765793696678208300,628.4962082519531,9.756194114685059,0.9544273018836975,0.27591076493263245
1765793696688217900,628.5062177734375,9.754798889160156,0.9875719547271729,0.19744068384170532
1765793696708206800,628.5262067871093,9.74944019317627,1.053652286529541,0.09286801517009735
1765793696728165400,628.5461652832031,9.743549346923828,1.1105399131774902,0.01812702789902687
1765793696738114300,628.5561142578125,9.740274429321289,1.1387046575546265,-0.028426870703697205
1765793696748124000,628.5661240234375,9.735759735107422,1.1732672452926636,-0.09391255676746368
1765793696758103300,628.5761032714844,9.731940269470215,1.2007672786712646,-0.1337447166442871
1765793696768082400,628.5860825195313,9.7280855178833,1.2272670269012451,-0.168966144323349
1765793696778061800,628.5960617675781,9.725013732910156,1.246984839439392,-0.19883471727371216
1765793696788102000,628.6061018066406,9.723489761352539,1.2538496255874634,-0.22803135216236115
1765793696818039800,628.6360397949219,9.724658966064453,1.227919340133667,-0.30594906210899353
1765793696828049400,628.6460493164062,9.73071575164795,1.1757605075836182,-0.31804895401000977
1765793696838059300,628.6560593261719,9.736170768737793,1.1290870904922485,-0.3201983571052551
1765793696857987300,628.6759873046875,9.753339767456055,0.9625865817070007,-0.3408414423465729
1765793696867966500,628.6859665527344,9.756728172302246,0.9011420011520386,-0.4056970775127411
1765793696887955500,628.7059555664063,9.755029678344727,0.8463912606239319,-0.5416701436042786
1765793696917862700,628.7358625488281,9.735404968261719,0.8579813838005066,-0.810026228427887
1765793696927842000,628.7458420410156,9.730338096618652,0.8669496774673462,-0.8598335981369019
1765793696937821200,628.7558212890625,9.711878776550293,0.9152414202690125,-1.0060455799102783
1765793696947861500,628.7658615722656,9.697948455810547,0.9523322582244873,-1.1014759540557861
1765793696957840600,628.7758405761718,9.690653800964355,0.9720090627670288,-1.1475225687026978
1765793696967850500,628.7858505859375,9.669878005981445,1.0284240245819092,-1.2673567533493042
1765793696977830000,628.7958298339844,9.663505554199219,1.0446557998657227,-1.302207589149475
1765793696987809000,628.8058090820313,9.65366268157959,1.062617301940918,-1.359423041343689
1765793696997788200,628.8157880859375,9.642915725708008,1.0724412202835083,-1.426334023475647
1765793697037735700,628.8557355957031,9.62960433959961,1.0493810176849365,-1.5296732187271118
1765793697047715000,628.8657150878906,9.627429962158203,1.0397428274154663,-1.5498111248016357
1765793697057694200,628.8756940917968,9.625791549682617,1.0257002115249634,-1.5692254304885864
1765793697067734500,628.8857346191406,9.624589920043945,1.0094414949417114,-1.5870399475097656
1765793697077714000,628.8957138671875,9.623297691345215,0.9865618348121643,-1.609106421470642
1765793697087693000,628.9056931152344,9.622337341308594,0.9521525502204895,-1.6353636980056763
1765793697097672200,628.9156721191406,9.621185302734375,0.9362335205078125,-1.6512552499771118
1765793697147599000,628.9655991210938,9.614164352416992,0.8972023129463196,-1.7126728296279907
1765793697157578200,628.975578125,9.612302780151367,0.8968384265899658,-1.7232837677001953
1765793697167557600,628.9855576171875,9.60852336883545,0.8868414759635925,-1.7493362426757812
1765793697177506300,628.9955063476563,9.605195045471191,0.8822842240333557,-1.769803762435913
1765793697187516200,629.0055161132813,9.602831840515137,0.8831868171691895,-1.7821309566497803
1765793697197495300,629.0154953613281,9.596491813659668,0.8862693309783936,-1.8144595623016357
1765793697207505200,629.0255051269531,9.59152603149414,0.8920152187347412,-1.8377482891082764
1765793697217514800,629.0355146484375,9.588409423828125,0.8965966701507568,-1.8517330884933472
1765793697267441700,629.0854416503906,9.572988510131836,0.8714848756790161,-1.9413366317749023
1765793697277420800,629.0954208984375,9.57190227508545,0.8624820709228516,-1.9506899118423462
1765793697287400200,629.1054001464844,9.572014808654785,0.8497717976570129,-1.9557119607925415
1765793697297379300,629.1153793945313,9.574172019958496,0.8297296166419983,-1.9537591934204102
1765793697307389200,629.1253891601563,9.576346397399902,0.8154740929603577,-1.9490978717803955
1765793697317398800,629.1353986816406,9.578892707824707,0.8016934394836426,-1.9422906637191772
1765793697357346300,629.1753461914062,9.592862129211426,0.7593375444412231,-1.8896516561508179
1765793697367325700,629.1853256835938,9.594807624816895,0.7535263299942017,-1.8820867538452148
1765793697377366000,629.1953659667969,9.599491119384766,0.7499241828918457,-1.8595070838928223
1765793697387284200,629.2052841796875,9.607465744018555,0.7520961165428162,-1.816955804824829
1765793697397233000,629.2152329101563,9.609918594360352,0.7534318566322327,-1.803381085395813
1765793697407212000,629.2252119140625,9.615934371948242,0.7550622224807739,-1.7703299522399902
1765793697417191400,629.23519140625,9.625625610351562,0.759337842464447,-1.7149693965911865
1765793697427140000,629.2451401367188,9.629315376281738,0.7569704651832581,-1.695191740989685
1765793697437119200,629.255119140625,9.63580322265625,0.7603941559791565,-1.656347632408142
1765793697467087600,629.2850876464844,9.656074523925781,0.776874303817749,-1.5254765748977661
1765793697487046100,629.3050461425781,9.671841621398926,0.793048620223999,-1.4131333827972412
1765793697497025300,629.315025390625,9.675149917602539,0.7930078506469727,-1.3903186321258545
1765793697507035100,629.32503515625,9.680270195007324,0.8039988875389099,-1.3477169275283813
1765793697517014300,629.3350141601562,9.685996055603027,0.8328226208686829,-1.2877405881881714
1765793697527024000,629.3450241699219,9.688593864440918,0.859262228012085,-1.250286340713501
1765793697537003300,629.3550031738281,9.689492225646973,0.8748155236244202,-1.2324090003967285
1765793697547013000,629.3650131835938,9.692017555236816,0.9257370829582214,-1.1739619970321655
1765793697556992300,629.3749921875,9.692647933959961,0.9432739615440369,-1.1546435356140137
1765793697567002000,629.3850021972656,9.69763469696045,0.9788683652877808,-1.080776333808899
1765793697577012000,629.3950119628906,9.699627876281738,0.9869493246078491,-1.0552377700805664
1765793697586991000,629.4049912109375,9.708417892456055,0.9956559538841248,-0.9621168971061707
1765793697597001000,629.4150009765625,9.714200019836426,0.9998472929000854,-0.8972287774085999
1765793697607010600,629.4250104980468,9.716853141784668,1.002920150756836,-0.8644596934318542
1765793697617020400,629.4350205078125,9.723356246948242,1.0205429792404175,-0.764995276927948
1765793697626999800,629.4449997558594,9.72516918182373,1.0267729759216309,-0.7329356074333191
1765793697636979000,629.4549790039063,9.728034973144531,1.0424162149429321,-0.6701423525810242
1765793697646958000,629.4649580078125,9.730307579040527,1.0589714050292969,-0.6083468794822693
1765793697676896000,629.4948959960938,9.735854148864746,1.1072620153427124,-0.3968670666217804
1765793697696854500,629.5148544921875,9.735193252563477,1.1396180391311646,-0.31249603629112244
1765793697706864000,629.5248640136718,9.732563018798828,1.1748257875442505,-0.25959450006484985
1765793697716843500,629.5348435058594,9.728260040283203,1.2211414575576782,-0.2003721296787262
1765793697726853000,629.5448530273437,9.722685813903809,1.2730207443237305,-0.1385555863380432
1765793697736832500,629.5548325195313,9.716652870178223,1.32331120967865,-0.07679572701454163
1765793697746811600,629.5648117675781,9.710886001586914,1.3669118881225586,-0.02534804865717888
1765793697756791000,629.574791015625,9.705577850341797,1.4039820432662964,0.031203897669911385
1765793697776749600,629.5947495117188,9.695385932922363,1.464023470878601,0.16284430027008057
1765793697786728700,629.6047287597656,9.691396713256836,1.4825420379638672,0.2219957858324051
1765793697796707800,629.6147077636718,9.689645767211914,1.4874130487442017,0.2622283697128296
1765793697806687200,629.6246872558594,9.686044692993164,1.5007736682891846,0.3140159845352173
1765793697816666400,629.6346662597656,9.682816505432129,1.5044106245040894,0.3875565528869629
1765793697826645800,629.6446457519531,9.683578491210938,1.490354061126709,0.42134803533554077
1765793697836625000,629.654625,9.683218002319336,1.470815896987915,0.49232617020606995
1765793697846604300,629.6646042480469,9.683849334716797,1.4575977325439453,0.5185132026672363
1765793697856614000,629.6746137695312,9.682313919067383,1.446160078048706,0.5760183930397034
1765793697866623700,629.6846237792969,9.680933952331543,1.4444622993469238,0.6028493046760559
1765793697896592000,629.714591796875,9.667143821716309,1.4940675497055054,0.6960381269454956
1765793697906601700,629.7246018066406,9.661214828491211,1.5214462280273438,0.7186799049377441
1765793697916611600,629.7346115722656,9.65743637084961,1.5384019613265991,0.7332342267036438
1765793697926590700,629.7445908203125,9.647261619567871,1.586287498474121,0.7644751667976379
1765793697936570000,629.7545700683594,9.641350746154785,1.6181366443634033,0.7722551822662354
1765793697946579700,629.7645798339844,9.637736320495605,1.6362087726593018,0.7792584300041199
1765793697956559000,629.7745590820313,9.630505561828613,1.6772270202636719,0.7814475297927856
1765793697986557700,629.8045576171875,9.618003845214844,1.757554292678833,0.7585461735725403
1765793698006546700,629.8245466308593,9.614415168762207,1.7869477272033691,0.7349976301193237
1765793698016526000,629.8345261230469,9.61503791809082,1.7860819101333618,0.7289375066757202
1765793698026505200,629.8445051269531,9.616219520568848,1.786499261856079,0.7121325135231018
1765793698036484600,629.8544846191406,9.617449760437012,1.7840474843978882,0.7015841007232666
1765793698046463700,629.8644636230468,9.619297981262207,1.7769489288330078,0.6942204236984253
1765793698056443100,629.8744431152344,9.620739936828613,1.7682021856307983,0.6965641975402832
1765793698066483500,629.8844833984375,9.622101783752441,1.760468602180481,0.697350263595581
1765793698076493000,629.8944931640625,9.624149322509766,1.7491122484207153,0.6976641416549683
1765793698106461400,629.9244614257813,9.62701416015625,1.7364792823791504,0.6896588206291199
1765793698116440600,629.9344406738281,9.628097534179688,1.7328003644943237,0.6837655305862427
1765793698126420000,629.944419921875,9.629368782043457,1.7295136451721191,0.6741061806678772
1765793698136399000,629.9543991699219,9.630744934082031,1.72641921043396,0.6622824668884277
1765793698146378200,629.9643781738281,9.631707191467285,1.7254539728164673,0.6506955027580261
1765793698156357600,629.9743576660156,9.633503913879395,1.7209856510162354,0.6357623934745789
1765793698166398000,629.9843979492188,9.636138916015625,1.7120898962020874,0.6196413040161133
1765793698176377000,629.9943771972656,9.639150619506836,1.701167345046997,0.6026683449745178
1765793698186387000,630.0043869628906,9.642104148864746,1.6915947198867798,0.5820019245147705
1765793698196396500,630.014396484375,9.64538860321045,1.681171178817749,0.5572535395622253
1765793698206376000,630.0243759765625,9.651082992553711,1.6606425046920776,0.5189061760902405
1765793698216355000,630.0343549804687,9.653974533081055,1.6488337516784668,0.5025010704994202
1765793698226334500,630.0443344726563,9.658658981323242,1.629420518875122,0.4750722050666809
1765793698236313600,630.0543137207031,9.661654472351074,1.6198500394821167,0.4459843635559082
1765793698246293000,630.06429296875,9.664190292358398,1.6133232116699219,0.4135172367095947
1765793698256272100,630.0742722167969,9.666415214538574,1.6085034608840942,0.3788324296474457
1765793698266251500,630.0842514648438,9.668557167053223,1.6027131080627441,0.347411185503006
1765793698276230700,630.0942307128906,9.670331954956055,1.5983186960220337,0.31692177057266235
1765793698286240500,630.1042404785156,9.672402381896973,1.5949431657791138,0.26678478717803955
1765793698316239000,630.1342390136718,9.668322563171387,1.6310129165649414,0.18366634845733643
1765793698326249000,630.1442490234375,9.666882514953613,1.6427240371704102,0.15240663290023804
1765793698336228000,630.1542280273437,9.663954734802246,1.6624820232391357,0.12049692124128342
1765793698346268400,630.1642683105468,9.66308307647705,1.6693296432495117,0.09254194796085358
1765793698356247800,630.1742478027344,9.663744926452637,1.6666382551193237,0.06876439601182938
1765793698366257400,630.1842573242187,9.667215347290039,1.6473915576934814,0.03786255046725273
1765793698376206300,630.1942062988281,9.668261528015137,1.6414693593978882,0.026420170441269875
1765793698386185500,630.204185546875,9.676461219787598,1.5926228761672974,0.0059446608647704124
1765793698396164600,630.2141645507812,9.679845809936523,1.5719319581985474,-0.002616904443129897
1765793698426133000,630.2441330566406,9.719764709472656,1.3023755550384521,0.019125921651721
1765793698436112100,630.2541120605468,9.737239837646484,1.163560152053833,0.05161251500248909
1765793698446091500,630.2640915527344,9.756622314453125,0.9845761656761169,0.0965411365032196
1765793698456101400,630.2741013183594,9.775901794433594,0.7605915665626526,0.15371960401535034
1765793698466111000,630.2841110839844,9.791740417480469,0.4945622384548187,0.2181958109140396
1765793698476059600,630.2940595703125,9.797096252441406,0.3529248833656311,0.25048744678497314
1765793698486100000,630.3040998535156,9.800355911254883,-0.0826202854514122,0.34146711230278015
1765793698496079400,630.3140793457031,9.791869163513184,-0.3659404516220093,0.39469340443611145
1765793698506119700,630.3241196289063,9.784480094909668,-0.5086512565612793,0.41905733942985535
1765793698536087800,630.354087890625,9.672700881958008,-1.5249559879302979,0.532683789730072
1765793698546067200,630.3640671386719,9.551000595092773,-2.1526455879211426,0.5611522793769836
1765793698556046300,630.3740463867188,9.442153930664062,-2.5888473987579346,0.560340166091919
1765793698566056200,630.3840561523438,9.30640697479248,-3.0451996326446533,0.5365920662879944
1765793698576035300,630.3940354003906,9.152237892150879,-3.4878854751586914,0.49151045083999634
1765793698586014500,630.4040144042968,8.987541198730469,-3.8999710083007812,0.42977702617645264
1765793698595993900,630.4139938964844,8.813814163208008,-4.2854228019714355,0.34960487484931946
1765793698605973000,630.4239729003906,8.62569808959961,-4.659148216247559,0.24506022036075592
1765793698645920500,630.4639204101562,7.647008895874023,-6.113292217254639,-0.5668313503265381
1765793698655900000,630.4738999023438,7.374923229217529,-6.410488605499268,-0.8285752534866333
1765793698665879000,630.4838791503906,7.231898784637451,-6.550957202911377,-0.9772338271141052
1765793698675858400,630.4938583984375,6.821419715881348,-6.8993120193481445,-1.4276245832443237
1765793698685868000,630.5038679199218,6.546759605407715,-7.086177825927734,-1.759661078453064
1765793698695847400,630.5138474121094,6.279300212860107,-7.230949878692627,-2.1104846000671387
1765793698705857000,630.5238569335937,6.023143768310547,-7.331884860992432,-2.47701096534729
1765793698715836400,630.5338364257813,5.783041000366211,-7.387357234954834,-2.8554797172546387
1765793698725815600,630.5438156738281,5.664974212646484,-7.400728702545166,-3.0508482456207275
1765793698745804500,630.5638044433593,5.149962902069092,-7.29620361328125,-4.0513811111450195
1765793698765793500,630.5837934570312,4.770482540130615,-7.052584648132324,-4.865589618682861
1765793698775773000,630.5937729492188,4.593328475952148,-6.880399703979492,-5.2661004066467285
1765793698785752000,630.603751953125,4.507072448730469,-6.782332897186279,-5.464123725891113
1765793698795731500,630.6137314453125,4.344482421875,-6.563065528869629,-5.849960803985596
1765793698805710600,630.6237106933594,4.102772235870361,-6.1949143409729,-6.40005350112915
1765793698815690000,630.6336899414063,3.9461214542388916,-5.930445194244385,-6.740054130554199
1765793698835679000,630.6536789550781,3.6481854915618896,-5.3577880859375,-7.359023571014404
1765793698855637500,630.6736374511719,3.3374695777893066,-4.768610954284668,-7.892531394958496
1765793698895554300,630.7135541992187,2.7255094051361084,-3.6211929321289062,-8.696490287780762
1765793698905533700,630.7235336914063,2.5909371376037598,-3.3546621799468994,-8.843286514282227
1765793698925492200,630.7434921875,2.412416458129883,-2.9772913455963135,-9.026981353759766
1765793947170660600,878.9886606445313,5.607804775238037,-8.043627738952637,-0.1515621393918991
1765793947200259600,879.0182595214844,5.46149206161499,-8.144035339355469,-0.1310720145702362
1765793947210238700,879.0282387695313,5.436432838439941,-8.16115665435791,-0.10538286715745926
1765793947250155800,879.0681557617188,5.731382369995117,-7.957477569580078,-0.014215865172445774
1765793947270114300,879.0881142578125,5.826140403747559,-7.888370990753174,-0.009426000528037548
1765793947300021500,879.118021484375,5.926300525665283,-7.813407897949219,0.001812894712202251
1765793947349978600,879.167978515625,6.033915042877197,-7.730590343475342,-0.01469049695879221
1765793947449954300,879.2679543457032,6.343593120574951,-7.477848052978516,-0.10488397628068924
1765793947469912800,879.2879128417969,6.402631759643555,-7.4265666007995605,-0.15101386606693268
1765793947539859200,879.3578591308594,6.502179145812988,-7.335907459259033,-0.27664047479629517
1765793947549838300,879.3678383789063,6.548034191131592,-7.294093132019043,-0.29970163106918335
1765793947559848200,879.3778481445313,6.576065540313721,-7.26822566986084,-0.3140966296195984
1765793947569827300,879.3878273925782,6.584692001342773,-7.259851932525635,-0.3267766833305359
1765793947589816300,879.40781640625,6.570875644683838,-7.271268367767334,-0.35019028186798096
1765793947609774800,879.4277749023438,6.600532531738281,-7.242827415466309,-0.38054919242858887
1765793947659732200,879.4777321777344,6.576159954071045,-7.260328769683838,-0.4605579674243927
1765793947669741800,879.4877419433594,6.551990509033203,-7.281562805175781,-0.4697439968585968
1765793947699740700,879.5177407226563,6.439621448516846,-7.377864837646484,-0.5184279680252075
1765793947709720000,879.5277199707032,6.467782974243164,-7.352598190307617,-0.5267462730407715
1765793947719760100,879.5377600097656,6.483489990234375,-7.338278293609619,-0.5333011150360107
1765793947729739500,879.5477395019532,6.485189437866211,-7.335531234741211,-0.5501765608787537
1765793947739688200,879.5576882324219,6.474253177642822,-7.344235420227051,-0.5627110600471497
1765793947749698000,879.5676979980469,6.46894645690918,-7.348059177398682,-0.5737091302871704
1765793947759707600,879.5777077636719,6.481879711151123,-7.335916996002197,-0.5830430388450623
1765793947769717500,879.5877175292969,6.525032997131348,-7.296955108642578,-0.5905801653862
1765793947779696600,879.5976965332031,6.5671772956848145,-7.258115768432617,-0.6019383072853088
1765793947799655200,879.6176552734375,6.565800666809082,-7.256802082061768,-0.6320540308952332
1765793947809634600,879.6276345214844,6.579207420349121,-7.24310302734375,-0.6495189666748047
1765793947819613700,879.6376137695313,6.580900192260742,-7.240050792694092,-0.6661872267723083
1765793947829623600,879.6476235351563,6.599061489105225,-7.221970081329346,-0.6825786828994751
1765793947839633400,879.6576333007813,6.611926555633545,-7.208919048309326,-0.6959253549575806
1765793947849612500,879.6676125488282,6.635456562042236,-7.185346603393555,-0.7154691219329834
1765793947859561200,879.6775612792969,6.653665542602539,-7.166691303253174,-0.7332523465156555
1765793947869571000,879.6875710449219,6.663712501525879,-7.154596328735352,-0.7596458196640015
1765793947879550200,879.6975502929688,6.671262264251709,-7.146191596984863,-0.7723948359489441
1765793947889499000,879.7074987792969,6.666372776031494,-7.148774147033691,-0.7905033230781555
1765793947929446400,879.7474462890625,6.677467346191406,-7.135201454162598,-0.8189829587936401
1765793947939425800,879.75742578125,6.680363655090332,-7.132864475250244,-0.8156988620758057
1765793947949405000,879.7674050292969,6.6822638511657715,-7.131969928741455,-0.8079320192337036
1765793947959414800,879.7774147949219,6.685492515563965,-7.129237174987793,-0.8053376078605652
1765793947969424600,879.7874245605469,6.689234733581543,-7.127485752105713,-0.7896037697792053
