time,seconds_elapsed,z,y,x
1766480055005074200,-3.93592578125,9.683405876159668,-0.9768514633178711,-1.2032448053359985
1766480055025124400,-3.915875732421875,9.68448257446289,-0.975532054901123,-1.1956291198730469
1766480055035134000,-3.905865966796875,9.684837341308594,-0.9746560454368591,-1.1934646368026733
1766480055045113300,-3.89588671875,9.684366226196289,-0.9776288270950317,-1.1948542594909668
1766480055065071900,-3.87592822265625,9.683212280273438,-0.981756329536438,-1.2008085250854492
1766480055075051000,-3.865948974609375,9.684587478637695,-0.9618757963180542,-1.2058014869689941
1766480055085030100,-3.855969970703125,9.687891960144043,-0.9320358633995056,-1.2026870250701904
1766480055095009500,-3.845990478515625,9.691487312316895,-0.9018027186393738,-1.1967495679855347
1766480055104988700,-3.83601123046875,9.692615509033203,-0.886267900466919,-1.1992154121398926
1766480055124977700,-3.816022216796875,9.689054489135742,-0.8949080109596252,-1.2213711738586426
1766480055144997400,-3.796002685546875,9.68574047088623,-0.906530499458313,-1.238959789276123
1766480055154976500,-3.7860234375,9.682161331176758,-0.9221686124801636,-1.2552831172943115
1766480055164956000,-3.776044189453125,9.67916488647461,-0.9350874423980713,-1.2687627077102661
1766480055174996000,-3.766004150390625,9.678373336791992,-0.9364235401153564,-1.2738077640533447
1766480055184975400,-3.756024658203125,9.679168701171875,-0.9296199083328247,-1.2727442979812622
1766480055195015700,-3.745984375,9.67957878112793,-0.9287404417991638,-1.2702646255493164
1766480055204994800,-3.736005126953125,9.679686546325684,-0.9333502650260925,-1.266067385673523
1766480055215035100,-3.72596484375,9.678770065307617,-0.9482667446136475,-1.2619789838790894
1766480055245003300,-3.695996826171875,9.678471565246582,-0.9511790871620178,-1.2620748281478882
1766480055255043600,-3.685956298828125,9.678143501281738,-0.9533777236938477,-1.2629339694976807
1766480055265053400,-3.675946533203125,9.6777925491333,-0.9544335007667542,-1.2648192644119263
1766480055275032600,-3.665967529296875,9.677864074707031,-0.9539567828178406,-1.2646384239196777
1766480055285012000,-3.655988037109375,9.677667617797852,-0.952938973903656,-1.266905426979065
1766480055295021800,-3.645978271484375,9.677494049072266,-0.9535203576087952,-1.2677878141403198
1766480055305031400,-3.635968505859375,9.677271842956543,-0.9533911943435669,-1.2695841789245605
1766480055315041300,-3.625958740234375,9.676822662353516,-0.955754816532135,-1.2712297439575195
1766480055325020400,-3.6159794921875,9.67634105682373,-0.9596460461616516,-1.2719615697860718
1766480055335030300,-3.6059697265625,9.675710678100586,-0.9627202749252319,-1.2744331359863281
1766480055345009400,-3.595990478515625,9.67465591430664,-0.968967080116272,-1.2777024507522583
1766480055374977800,-3.566022216796875,9.67325496673584,-0.9747290015220642,-1.283911108970642
1766480055384987600,-3.556012451171875,9.673009872436523,-0.974280059337616,-1.286098599433899
1766480055394997200,-3.546002685546875,9.67255687713623,-0.9746012091636658,-1.289249300956726
1766480055404976600,-3.5360234375,9.672235488891602,-0.9747671484947205,-1.2915409803390503
1766480055415016700,-3.5259833984375,9.672205924987793,-0.9739702939987183,-1.2923669815063477
1766480055424965600,-3.516034423828125,9.672005653381348,-0.9744126796722412,-1.2935280799865723
1766480055434944800,-3.50605517578125,9.670894622802734,-0.980599045753479,-1.2971534729003906
1766480055454933800,-3.486066162109375,9.668642044067383,-0.9894263744354248,-1.3072096109390259
1766480055464913200,-3.4760869140625,9.667267799377441,-0.9940370917320251,-1.3138532638549805
1766480055474922800,-3.4660771484375,9.666988372802734,-0.9945192933082581,-1.3155497312545776
1766480055484902100,-3.456097900390625,9.665899276733398,-0.9989656209945679,-1.320168137550354
1766480055494911700,-3.446088134765625,9.6650390625,-1.0035755634307861,-1.322964072227478
1766480055504891100,-3.43610888671875,9.664131164550781,-1.0084598064422607,-1.3258816003799438
1766480055514870300,-3.426129638671875,9.663919448852539,-1.009768009185791,-1.326425552368164
1766480055524849700,-3.416150390625,9.663661003112793,-1.011609435081482,-1.3269108533859253
1766480055534890000,-3.406110107421875,9.663314819335938,-1.0122812986373901,-1.3289164304733276
1766480055544838700,-3.396161376953125,9.662534713745117,-1.01559317111969,-1.3320547342300415
1766480055554848300,-3.38615185546875,9.661906242370605,-1.0192209482192993,-1.3338485956192017
1766480055574837200,-3.366162841796875,9.661295890808105,-1.0225436687469482,-1.3357207775115967
1766480055584816600,-3.356183349609375,9.6609525680542,-1.0244957208633423,-1.336706280708313
1766480055594826500,-3.346173583984375,9.661075592041016,-1.0244308710098267,-1.3358688354492188
1766480055604836000,-3.336163818359375,9.661287307739258,-1.0238760709762573,-1.3347662687301636
1766480055614846000,-3.326154052734375,9.66110897064209,-1.0258655548095703,-1.3345264196395874
1766480055624825000,-3.3161748046875,9.660728454589844,-1.0284266471862793,-1.3353116512298584
1766480055634804500,-3.306195556640625,9.66073989868164,-1.0292458534240723,-1.334594488143921
1766480055644814000,-3.29618603515625,9.66054916381836,-1.0307998657226562,-1.3347750902175903
1766480055654824000,-3.286176025390625,9.66023063659668,-1.0325690507888794,-1.3357139825820923
1766480055674813000,-3.26618701171875,9.65904712677002,-1.039833664894104,-1.3386378288269043
1766480055694802000,-3.246197998046875,9.657831192016602,-1.0477771759033203,-1.3412078619003296
1766480055704781300,-3.23621875,9.65719985961914,-1.0504779815673828,-1.3436439037322998
1766480055714791000,-3.226208984375,9.657150268554688,-1.049905776977539,-1.3444457054138184
1766480055724770300,-3.216229736328125,9.657275199890137,-1.048211693763733,-1.3448717594146729
1766480055734780000,-3.20622021484375,9.65742301940918,-1.0465458631515503,-1.3451032638549805
1766480055744728800,-3.196271240234375,9.657439231872559,-1.0457385778427124,-1.3456194400787354
1766480055754708000,-3.1862919921875,9.657466888427734,-1.0458805561065674,-1.3453028202056885
1766480055764687000,-3.17631298828125,9.657136917114258,-1.0477415323257446,-1.346232533454895
1766480055784706800,-3.156293212890625,9.655328750610352,-1.0550552606582642,-1.3534659147262573
1766480055804726300,-3.136273681640625,9.653695106506348,-1.0656715631484985,-1.356798529624939
1766480055814736100,-3.126263916015625,9.653151512145996,-1.0693705081939697,-1.3577525615692139
1766480055824745700,-3.116254150390625,9.652973175048828,-1.0702754259109497,-1.358312964439392
1766480055844734700,-3.096265380859375,9.653371810913086,-1.0661426782608032,-1.3587294816970825
1766480055854744600,-3.08625537109375,9.653278350830078,-1.0665472745895386,-1.3590764999389648
1766480055864724000,-3.076276123046875,9.653021812438965,-1.0678989887237549,-1.3598299026489258
1766480055874764000,-3.066236083984375,9.653120994567871,-1.0669879913330078,-1.359841227531433
1766480055884743400,-3.056256591796875,9.65343189239502,-1.0660450458526611,-1.3583775758743286
1766480055894753000,-3.0462470703125,9.653992652893066,-1.0636063814163208,-1.356303095817566
1766480055904732400,-3.036267578125,9.654231071472168,-1.0634653568267822,-1.354716181755066
1766480055914742300,-3.0262578125,9.654172897338867,-1.0649741888046265,-1.3539409637451172
1766480055924752000,-3.016248046875,9.653739929199219,-1.0679900646209717,-1.3546509742736816
1766480055934731300,-3.006268798828125,9.653584480285645,-1.0693163871765137,-1.354710340499878
1766480055944710400,-2.99628955078125,9.653291702270508,-1.0703152418136597,-1.3560091257095337
1766480055954720300,-2.98627978515625,9.653104782104492,-1.0696415901184082,-1.3578770160675049
1766480055964699400,-2.976300537109375,9.653050422668457,-1.070275068283081,-1.3577663898468018
1766480055974709200,-2.966290771484375,9.65258502960205,-1.0728895664215088,-1.3590070009231567
1766480056004708000,-2.9362919921875,9.652000427246094,-1.0763963460922241,-1.360382318496704
1766480056014717700,-2.9262822265625,9.652113914489746,-1.0745199918746948,-1.3610607385635376
1766480056024697000,-2.916302978515625,9.652087211608887,-1.0730565786361694,-1.362408995628357
1766480056034706700,-2.906293212890625,9.65177059173584,-1.07309091091156,-1.3646173477172852
1766480056044716500,-2.896283447265625,9.651739120483398,-1.070492148399353,-1.366876244544983
1766480056054726400,-2.886273681640625,9.651217460632324,-1.070937156677246,-1.3702118396759033
1766480056064736000,-2.876263916015625,9.650224685668945,-1.0739470720291138,-1.3748366832733154
1766480056074715400,-2.86628466796875,9.649481773376465,-1.0752919912338257,-1.3790009021759033
1766480056084755700,-2.856244384765625,9.648738861083984,-1.0779879093170166,-1.3820840120315552
1766480056114754300,-2.82624560546875,9.647480964660645,-1.090836524963379,-1.3807897567749023
1766480056124633600,-2.816366455078125,9.6474609375,-1.0936009883880615,-1.3787399530410767
1766480056134613000,-2.806386962890625,9.647802352905273,-1.0936156511306763,-1.3763351440429688
1766480056144592100,-2.796407958984375,9.648103713989258,-1.0923820734024048,-1.3752096891403198
1766480056154571300,-2.7864287109375,9.648266792297363,-1.0908352136611938,-1.3752849102020264
1766480056164581000,-2.7764189453125,9.64826488494873,-1.0889259576797485,-1.3768153190612793
1766480056174591000,-2.766408935546875,9.648270606994629,-1.088364839553833,-1.377219557762146
1766480056184570000,-2.756429931640625,9.647872924804688,-1.0894198417663574,-1.3791682720184326
1766480056194549500,-2.746450439453125,9.646820068359375,-1.0934380292892456,-1.3833473920822144
1766480056224548000,-2.716451904296875,9.646835327148438,-1.0911232233047485,-1.3850669860839844
1766480056234588400,-2.70641162109375,9.647354125976562,-1.08689284324646,-1.3847769498825073
1766480056244598300,-2.696401611328125,9.647841453552246,-1.0837088823318481,-1.38387930393219
1766480056254608000,-2.68639208984375,9.648052215576172,-1.0807650089263916,-1.3847084045410156
1766480056264556800,-2.676443115234375,9.648187637329102,-1.0798778533935547,-1.3844642639160156
1766480056274566400,-2.66643359375,9.647854804992676,-1.0805723667144775,-1.3862384557724
1766480056284576300,-2.656423828125,9.647366523742676,-1.0823743343353271,-1.3882265090942383
1766480056294586000,-2.646413818359375,9.646979331970215,-1.083050012588501,-1.3903896808624268
1766480056324584700,-2.616415283203125,9.645801544189453,-1.087095856666565,-1.3953921794891357
1766480056334594600,-2.606405517578125,9.645750045776367,-1.0876703262329102,-1.3953016996383667
1766480056344543200,-2.596456787109375,9.645033836364746,-1.0905261039733887,-1.3980193138122559
1766480056354553000,-2.586447021484375,9.644855499267578,-1.0905964374542236,-1.3991992473602295
1766480056364562700,-2.576437255859375,9.64466381072998,-1.089979648590088,-1.4009981155395508
1766480056374603000,-2.56639697265625,9.643988609313965,-1.0916105508804321,-1.4043755531311035
1766480056384552000,-2.556447998046875,9.643845558166504,-1.09251868724823,-1.4046448469161987
1766480056394531000,-2.546468994140625,9.643375396728516,-1.0950839519500732,-1.405875325202942
1766480056404541000,-2.536458984375,9.643372535705566,-1.095035195350647,-1.4059388637542725
1766480056424530000,-2.516469970703125,9.644506454467773,-1.0896326303482056,-1.4023455381393433
1766480056434509000,-2.506490966796875,9.64497184753418,-1.087092399597168,-1.4011259078979492
1766480056444519000,-2.496481201171875,9.645339965820312,-1.084320306777954,-1.4007304906845093
1766480056454528500,-2.486471435546875,9.645289421081543,-1.0845025777816772,-1.4009400606155396
1766480056464508000,-2.4764921875,9.645296096801758,-1.0837939977645874,-1.4014431238174438
1766480056474517800,-2.466482177734375,9.645257949829102,-1.084998369216919,-1.4007747173309326
1766480056484497000,-2.456503173828125,9.645110130310059,-1.0881115198135376,-1.399377703666687
1766480056494537200,-2.446462890625,9.644967079162598,-1.0907729864120483,-1.3982923030853271
1766480056504516400,-2.436483642578125,9.645425796508789,-1.0919544696807861,-1.3941965103149414
1766480056534545700,-2.406454345703125,9.647133827209473,-1.0860166549682617,-1.3870010375976562
1766480056544555500,-2.396444580078125,9.647262573242188,-1.0853235721588135,-1.3866450786590576
1766480056554534700,-2.38646533203125,9.64739990234375,-1.0840985774993896,-1.3866528272628784
1766480056564514000,-2.37648583984375,9.647317886352539,-1.083591341972351,-1.3876157999038696
1766480056574523600,-2.366476318359375,9.647245407104492,-1.0823229551315308,-1.3891053199768066
1766480056584503000,-2.3564970703125,9.647038459777832,-1.0828112363815308,-1.3901599645614624
1766480056594482200,-2.346517822265625,9.647000312805176,-1.0820759534835815,-1.3910011053085327
1766480056604492000,-2.336508056640625,9.647175788879395,-1.0806173086166382,-1.3909188508987427
1766480056614502000,-2.326498046875,9.647303581237793,-1.0785409212112427,-1.3916425704956055
1766480056634491000,-2.306509033203125,9.648249626159668,-1.0700236558914185,-1.3916630744934082
1766480056644470000,-2.296530029296875,9.648523330688477,-1.0673530101776123,-1.3918153047561646
1766480056654449400,-2.286550537109375,9.648625373840332,-1.0662341117858887,-1.391961693763733
1766480056664428500,-2.276571533203125,9.648999214172363,-1.0653365850448608,-1.3900582790374756
1766480056674438400,-2.2665615234375,9.648947715759277,-1.0669013261795044,-1.3892133235931396
1766480056694457900,-2.246542236328125,9.649040222167969,-1.0670604705810547,-1.3884518146514893
1766480056714477300,-2.226522705078125,9.647788047790527,-1.0736461877822876,-1.392065405845642
1766480056724456700,-2.216543212890625,9.646787643432617,-1.0817666053771973,-1.3927178382873535
1766480056744476200,-2.19652392578125,9.64648723602295,-1.0839967727661133,-1.393064260482788
1766480056754516500,-2.1864833984375,9.646566390991211,-1.083735704421997,-1.3927205801010132
1766480056764495600,-2.17650439453125,9.646730422973633,-1.084355354309082,-1.3910951614379883
1766480056774536000,-2.166464111328125,9.646866798400879,-1.0858442783355713,-1.3889919519424438
1766480056784545800,-2.1564541015625,9.646805763244629,-1.0873150825500488,-1.3882560729980469
1766480056794555400,-2.146444580078125,9.646941184997559,-1.0874048471450806,-1.3872514963150024
1766480056804565200,-2.136434814453125,9.64665699005127,-1.0892659425735474,-1.3877720832824707
1766480056814575000,-2.1264248046875,9.646097183227539,-1.092286467552185,-1.3892823457717896
1766480056824554200,-2.11644580078125,9.645659446716309,-1.0936199426651,-1.3912721872329712
1766480056904571400,-2.0364287109375,9.645479202270508,-1.0860893726348877,-1.3983986377716064
1766480056923591000,-2.0174091796875,9.645373344421387,-1.0844594240188599,-1.4003950357437134
1766480056943580000,-1.997420166015625,9.645159721374512,-1.0815322399139404,-1.404125690460205
1766480056983619000,-1.957380859375,9.634778022766113,-1.150876522064209,-1.4201825857162476
1766480057003638500,-1.937361572265625,9.635300636291504,-1.147077202796936,-1.419715404510498
1766480057013648400,-1.9273515625,9.635294914245605,-1.1466331481933594,-1.4201081991195679
1766480057023658000,-1.917342041015625,9.634510040283203,-1.1507718563079834,-1.422087550163269
1766480057033667800,-1.907332275390625,9.6336088180542,-1.1560214757919312,-1.4239308834075928
1766480057043677400,-1.897322509765625,9.632484436035156,-1.1631946563720703,-1.4256975650787354
1766480057053687300,-1.887312744140625,9.631343841552734,-1.1713985204696655,-1.4266849756240845
1766480057063666700,-1.877333251953125,9.630517959594727,-1.17832350730896,-1.4265589714050293
1766480057073706800,-1.867293212890625,9.630213737487793,-1.1813856363296509,-1.4260797500610352
1766480057113715500,-1.827284423828125,9.628827095031738,-1.1943676471710205,-1.4246294498443604
1766480057133704400,-1.807295654296875,9.629142761230469,-1.1902440786361694,-1.4259454011917114
1766480057143683600,-1.79731640625,9.62956714630127,-1.185800313949585,-1.426776647567749
1766480057153693400,-1.787306640625,9.629778861999512,-1.1823135614395142,-1.428243637084961
1766480057163672600,-1.777327392578125,9.629755020141602,-1.1793452501296997,-1.430859923362732
1766480057173682400,-1.767317626953125,9.629721641540527,-1.177996039390564,-1.4321962594985962
1766480057183692300,-1.7573076171875,9.629977226257324,-1.1734365224838257,-1.4342122077941895
1766480057203681300,-1.737318603515625,9.630326271057129,-1.1662050485610962,-1.4377650022506714
1766480057213721600,-1.7272783203125,9.630386352539062,-1.164166808128357,-1.4390124082565308
1766480057223761700,-1.71723828125,9.630661010742188,-1.161835789680481,-1.4390596151351929
1766480057243751000,-1.6972490234375,9.6310453414917,-1.1601821184158325,-1.4378235340118408
1766480057253791000,-1.687208984375,9.631383895874023,-1.1589710712432861,-1.4365313053131104
1766480057263770400,-1.677229736328125,9.631985664367676,-1.1547578573226929,-1.435890555381775
1766480057273780200,-1.6672197265625,9.632423400878906,-1.150545597076416,-1.4363291263580322
1766480057283759400,-1.65724072265625,9.632615089416504,-1.1472543478012085,-1.4376803636550903
1766480057313758200,-1.62724169921875,9.633315086364746,-1.1385949850082397,-1.439868450164795
1766480057323767800,-1.617232177734375,9.6334810256958,-1.1366796493530273,-1.4402724504470825
1766480057333777700,-1.607222412109375,9.633490562438965,-1.1357240676879883,-1.4409698247909546
1766480057343787500,-1.59721240234375,9.633078575134277,-1.1375911235809326,-1.4422463178634644
1766480057353766700,-1.5872333984375,9.632515907287598,-1.1400437355041504,-1.4440641403198242
1766480057363746000,-1.57725390625,9.631271362304688,-1.148790955543518,-1.4454330205917358
1766480057373755600,-1.567244384765625,9.630979537963867,-1.1509783267974854,-1.4456340074539185
1766480057383735000,-1.557264892578125,9.630233764648438,-1.1576706171035767,-1.4452621936798096
1766480057403724000,-1.53727587890625,9.629401206970215,-1.1663520336151123,-1.443828821182251
1766480057423713000,-1.517286865234375,9.628799438476562,-1.1709471940994263,-1.44412362575531
1766480057433722600,-1.50727734375,9.627996444702148,-1.1749792098999023,-1.4461978673934937
1766480057443732500,-1.497267578125,9.627432823181152,-1.177268147468567,-1.4480862617492676
1766480057453742300,-1.487257568359375,9.62723159790039,-1.1779255867004395,-1.4488933086395264
1766480057463721500,-1.477278564453125,9.626603126525879,-1.182136058807373,-1.449642539024353
1766480057473731300,-1.4672685546875,9.624260902404785,-1.1991350650787354,-1.4512319564819336
1766480057483710500,-1.45728955078125,9.621989250183105,-1.2168034315109253,-1.4515869617462158
1766480057493720300,-1.44727978515625,9.618739128112793,-1.2395824193954468,-1.4538509845733643
1766480057553687300,-1.387312744140625,9.58751106262207,-1.436360239982605,-1.4788109064102173
1766480057563697200,-1.377302734375,9.587910652160645,-1.4746787548065186,-1.437941312789917
1766480057573706800,-1.367293212890625,9.585637092590332,-1.4917808771133423,-1.4354567527770996
1766480057583686100,-1.35731396484375,9.583885192871094,-1.5079624652862549,-1.4302343130111694
1766480057603675100,-1.337324951171875,9.582975387573242,-1.5379856824874878,-1.4041271209716797
1766480057633704400,-1.307295654296875,9.5777587890625,-1.6138100624084473,-1.353713870048523
1766480057643653000,-1.297346923828125,9.577953338623047,-1.6240073442459106,-1.340073823928833
1766480057653663000,-1.2873369140625,9.578864097595215,-1.6292740106582642,-1.3271055221557617
1766480057663672600,-1.277327392578125,9.57973861694336,-1.6330363750457764,-1.316124439239502
1766480057673652000,-1.26734814453125,9.58028507232666,-1.6361407041549683,-1.3082683086395264
1766480057683631000,-1.257368896484375,9.580214500427246,-1.6429734230041504,-1.30020010471344
1766480057703620000,-1.2373798828125,9.580399513244629,-1.6616616249084473,-1.2748435735702515
1766480057733588500,-1.20741162109375,9.58459186553955,-1.6573773622512817,-1.2486337423324585
1766480057743567600,-1.197432373046875,9.586312294006348,-1.6485830545425415,-1.2470643520355225
1766480057753547000,-1.187452880859375,9.587238311767578,-1.64541494846344,-1.2441339492797852
1766480057763526100,-1.177473876953125,9.588333129882812,-1.639936923980713,-1.2429226636886597
1766480057773536000,-1.167464111328125,9.588800430297852,-1.6373610496520996,-1.2427213191986084
1766480057783484700,-1.157515380859375,9.589432716369629,-1.6350328922271729,-1.2409031391143799
1766480057793494500,-1.14750537109375,9.590221405029297,-1.6329851150512695,-1.2375034093856812
1766480057803473700,-1.1375263671875,9.591008186340332,-1.6300421953201294,-1.2352778911590576
1766480057813514000,-1.127486083984375,9.592367172241211,-1.6231651306152344,-1.2337788343429565
1766480057833472500,-1.107527587890625,9.592977523803711,-1.6176786422729492,-1.236238718032837
1766480057843451600,-1.09754833984375,9.59204387664795,-1.6209295988082886,-1.2392226457595825
1766480057853461500,-1.08753857421875,9.59050464630127,-1.6267263889312744,-1.2435306310653687
1766480057863471400,-1.077528564453125,9.58909797668457,-1.6351128816604614,-1.2433819770812988
1766480057873481000,-1.06751904296875,9.588448524475098,-1.6396973133087158,-1.242349624633789
1766480057883460400,-1.05753955078125,9.586114883422852,-1.653248906135559,-1.2423940896987915
1766480057893470000,-1.047530029296875,9.584599494934082,-1.6610523462295532,-1.2436871528625488
1766480057903449300,-1.037550537109375,9.582881927490234,-1.6681954860687256,-1.2473500967025757
1766480057913459000,-1.027541015625,9.581613540649414,-1.672022819519043,-1.2519595623016357
1766480057953467600,-0.987532470703125,9.571372032165527,-1.705980658531189,-1.2840758562088013
1766480057963416300,-0.977583740234375,9.568928718566895,-1.715904951095581,-1.289054274559021
1766480057973426200,-0.96757373046875,9.567946434020996,-1.7201822996139526,-1.2906445264816284
1766480057983405300,-0.9575947265625,9.566283226013184,-1.7167515754699707,-1.307430624961853
1766480057993384700,-0.947615234375,9.565420150756836,-1.7111929655075073,-1.3209654092788696
1766480058003333400,-0.93766650390625,9.564498901367188,-1.704994559288025,-1.3355705738067627
1766480058013373700,-0.927626220703125,9.564154624938965,-1.7018791437149048,-1.3419935703277588
1766480058053382100,-0.887617919921875,9.553919792175293,-1.7311650514602661,-1.3769794702529907
1766480058063361300,-0.877638671875,9.550820350646973,-1.7451155185699463,-1.3808659315109253
1766480058073371100,-0.86762890625,9.549707412719727,-1.751139521598816,-1.3809397220611572
1766480058083350500,-0.8576494140625,9.549396514892578,-1.754286289215088,-1.3790885210037231
1766480058093329700,-0.84767041015625,9.548301696777344,-1.7571640014648438,-1.3829996585845947
1766480058103308800,-0.837691162109375,9.547866821289062,-1.7591136693954468,-1.3835262060165405
1766480058113318700,-0.827681396484375,9.547660827636719,-1.760075569152832,-1.383722186088562
1766480058123298000,-0.817701904296875,9.548053741455078,-1.7599103450775146,-1.3812192678451538
1766480058153296600,-0.787703369140625,9.550951957702637,-1.7548021078109741,-1.3676153421401978
1766480058163276000,-0.777723876953125,9.550755500793457,-1.760759949684143,-1.361313819885254
1766480058173285600,-0.76771435546875,9.550292015075684,-1.7731202840805054,-1.348467230796814
1766480058183265000,-0.75773486328125,9.549628257751465,-1.782610535621643,-1.3406295776367188
1766480058193274600,-0.747725341796875,9.549513816833496,-1.7874853610992432,-1.3349429368972778
1766480058203254000,-0.73774609375,9.549610137939453,-1.7895022630691528,-1.3315496444702148
1766480058213263600,-0.727736328125,9.549450874328613,-1.791497826576233,-1.3300063610076904
1766480058223243000,-0.717757080078125,9.548956871032715,-1.7924748659133911,-1.3322316408157349
1766480058263251500,-0.67774853515625,9.551826477050781,-1.7737690210342407,-1.3366936445236206
1766480058273291800,-0.667708251953125,9.553115844726562,-1.764784574508667,-1.339362621307373
1766480058283271200,-0.657728759765625,9.554011344909668,-1.7610442638397217,-1.3379027843475342
1766480058293280800,-0.64771923828125,9.554466247558594,-1.7607303857803345,-1.3350670337677002
1766480058303260200,-0.63773974609375,9.554547309875488,-1.7639654874801636,-1.3302044868469238
1766480058313269800,-0.627730224609375,9.554888725280762,-1.76436448097229,-1.3272175788879395
1766480058323249200,-0.617750732421875,9.55455493927002,-1.7645082473754883,-1.3294256925582886
1766480058363196700,-0.57780322265625,9.552508354187012,-1.7710983753204346,-1.335355520248413
1766480058383216000,-0.557783935546875,9.549177169799805,-1.787872552871704,-1.3368322849273682
1766480058393256400,-0.54774365234375,9.545701026916504,-1.8026009798049927,-1.3418705463409424
1766480058403235600,-0.537764404296875,9.544942855834961,-1.805924415588379,-1.3427908420562744
1766480058413215000,-0.527784912109375,9.54504108428955,-1.8018391132354736,-1.3475751876831055
1766480058423224600,-0.517775390625,9.545599937438965,-1.7909705638885498,-1.3580589294433594
1766480058433204000,-0.507796142578125,9.545464515686035,-1.7847306728363037,-1.3671996593475342
1766480058463202800,-0.477797119140625,9.545737266540527,-1.7675760984420776,-1.387426495552063
1766480058483191800,-0.45780810546875,9.545539855957031,-1.762168288230896,-1.3956414461135864
1766480058493201400,-0.447798583984375,9.545825004577637,-1.7568305730819702,-1.4004162549972534
1766480058503150300,-0.437849609375,9.546102523803711,-1.7531036138534546,-1.4031873941421509
1766480058513190400,-0.4278095703125,9.545485496520996,-1.753124713897705,-1.4073528051376343
1766480058523169800,-0.417830322265625,9.544913291931152,-1.7548209428787231,-1.4091200828552246
1766480058533149000,-0.40785107421875,9.544902801513672,-1.7538458108901978,-1.410402774810791
1766480058543128300,-0.39787158203125,9.545859336853027,-1.7497097253799438,-1.4090683460235596
1766480058563117300,-0.377882568359375,9.547454833984375,-1.7440565824508667,-1.4052603244781494
1766480058573127000,-0.367873046875,9.547276496887207,-1.7478971481323242,-1.4016995429992676
1766480058583136800,-0.35786328125,9.546906471252441,-1.751474380493164,-1.39974844455719
1766480058593146600,-0.347853271484375,9.547735214233398,-1.7528408765792847,-1.3923697471618652
1766480058603156200,-0.33784375,9.548514366149902,-1.7526941299438477,-1.3871959447860718
1766480058613166000,-0.327833984375,9.548493385314941,-1.7553144693374634,-1.3840268850326538
1766480058623145200,-0.317854736328125,9.547616958618164,-1.7603403329849243,-1.383690595626831
1766480058633124600,-0.30787548828125,9.546624183654785,-1.7691025733947754,-1.3793556690216064
1766480058643134500,-0.297865478515625,9.546003341674805,-1.7741758823394775,-1.3771350383758545
1766480058663123500,-0.27787646484375,9.548789024353027,-1.7725870609283447,-1.3597642183303833
1766480058683143000,-0.257857177734375,9.550195693969727,-1.777077555656433,-1.343929409980774
1766480058693183200,-0.247816650390625,9.550296783447266,-1.780766248703003,-1.3383194208145142
1766480058703162400,-0.237837646484375,9.55055046081543,-1.782417893409729,-1.3342984914779663
1766480058713172200,-0.227827880859375,9.550615310668945,-1.783753752708435,-1.3320471048355103
1766480058723182000,-0.21781787109375,9.551084518432617,-1.7841349840164185,-1.3281664848327637
1766480058733191700,-0.207808349609375,9.551787376403809,-1.7840384244918823,-1.323240041732788
1766480058743201500,-0.197798583984375,9.552495002746582,-1.7839990854263306,-1.3181700706481934
1766480058783210000,-0.1577900390625,9.553354263305664,-1.78736412525177,-1.3073372840881348
1766480058793219800,-0.1477802734375,9.55344009399414,-1.7878448963165283,-1.3060520887374878
1766480058803199000,-0.137801025390625,9.553657531738281,-1.7900614738464355,-1.3014203310012817
1766480058813208800,-0.127791259765625,9.554055213928223,-1.79054594039917,-1.297829270362854
1766480058823188000,-0.11781201171875,9.55506420135498,-1.7911725044250488,-1.2895100116729736
1766480058833197800,-0.10780224609375,9.555867195129395,-1.7898738384246826,-1.2853591442108154
1766480058843177000,-0.097822998046875,9.556750297546387,-1.7877233028411865,-1.2817765474319458
1766480058863135500,-0.077864501953125,9.558770179748535,-1.7804162502288818,-1.276879906654358
1766480058883155200,-0.0578447265625,9.560226440429688,-1.7770007848739624,-1.2707149982452393
1766480058893164800,-0.047835205078125,9.560251235961914,-1.7796348333358765,-1.266837477684021
1766480058903174700,-0.037825439453125,9.560823440551758,-1.777843713760376,-1.26503324508667
1766480058913184500,-0.0278154296875,9.561777114868164,-1.7736338376998901,-1.2637333869934082
1766480058923194000,-0.017805908203125,9.562536239624023,-1.7695802450180054,-1.2636749744415283
1766480058933204000,-0.007796142578125,9.562427520751953,-1.769149899482727,-1.265099287033081
1766480058943213600,0.002213623046875,9.561918258666992,-1.7706857919692993,-1.266796588897705
1766480058993201400,0.052201416015625,9.565729141235352,-1.751711130142212,-1.2644089460372925
1766480059003180800,0.062180908203125,9.566268920898438,-1.750627040863037,-1.2618255615234375
1766480059013190400,0.0721904296875,9.567100524902344,-1.7475582361221313,-1.259765863418579
1766480059023169800,0.082169677734375,9.567482948303223,-1.7465100288391113,-1.2583171129226685
1766480059033210000,0.092210205078125,9.56840991973877,-1.7415924072265625,-1.2580814361572266
1766480059043189200,0.102189208984375,9.569297790527344,-1.73697829246521,-1.257708191871643
1766480059053168600,0.112168701171875,9.569901466369629,-1.7335011959075928,-1.2579174041748047
1766480059083198000,0.142197998046875,9.572181701660156,-1.7232693433761597,-1.2546156644821167
1766480059103187000,0.16218701171875,9.57501220703125,-1.711120367050171,-1.249639868736267
1766480059113196500,0.172196533203125,9.575763702392578,-1.7076421976089478,-1.2486367225646973
1766480059123206400,0.182206298828125,9.576330184936523,-1.704860806465149,-1.2480882406234741
1766480059133216300,0.19221630859375,9.575860023498535,-1.706733226776123,-1.2491415739059448
1766480059143195400,0.2021953125,9.574888229370117,-1.7102280855178833,-1.2518069744110107
1766480059153235700,0.212235595703125,9.573898315429688,-1.7166736125946045,-1.2505595684051514
1766480059163214800,0.22221484375,9.57332706451416,-1.7222546339035034,-1.2472527027130127
1766480059173224700,0.232224609375,9.574106216430664,-1.7221839427947998,-1.2413579225540161
1766480059203192800,0.26219287109375,9.575305938720703,-1.7207651138305664,-1.2340480089187622
1766480059213202700,0.27220263671875,9.57475471496582,-1.722741961479187,-1.2355678081512451
1766480059223212500,0.282212646484375,9.574394226074219,-1.7247848510742188,-1.235506534576416
1766480059233191700,0.292191650390625,9.574484825134277,-1.7261708974838257,-1.2328671216964722
1766480059243201500,0.302201416015625,9.574716567993164,-1.7285350561141968,-1.227744698524475
1766480059253211100,0.312211181640625,9.57479476928711,-1.7315267324447632,-1.2229080200195312
1766480059263190500,0.3221904296875,9.574664115905762,-1.7351423501968384,-1.2187987565994263
1766480059273200400,0.332200439453125,9.574012756347656,-1.7403193712234497,-1.216533899307251
1766480059303199000,0.362198974609375,9.572294235229492,-1.7448630332946777,-1.2235280275344849
1766480059313239300,0.3722392578125,9.572574615478516,-1.7433803081512451,-1.2234514951705933
1766480059323249200,0.382249267578125,9.573140144348145,-1.7413564920425415,-1.2219053506851196
1766480059333258800,0.3922587890625,9.574350357055664,-1.734800934791565,-1.2217473983764648
1766480059343268600,0.4022685546875,9.57623291015625,-1.7233279943466187,-1.223231315612793
1766480059353278500,0.412278564453125,9.577230453491211,-1.7182679176330566,-1.2225421667099
1766480059363257600,0.422257568359375,9.577942848205566,-1.7136517763137817,-1.2234352827072144
1766480059373267500,0.432267333984375,9.578853607177734,-1.7067809104919434,-1.2259122133255005
1766480059393256400,0.45225634765625,9.58008861541748,-1.6987637281417847,-1.2273921966552734
1766480059403235600,0.462235595703125,9.579721450805664,-1.699872374534607,-1.2287211418151855
1766480059413276000,0.47227587890625,9.578923225402832,-1.7051880359649658,-1.2275826930999756
1766480059423255300,0.48225537109375,9.578022956848145,-1.7144863605499268,-1.221641182899475
1766480059433234400,0.492234375,9.577521324157715,-1.7249252796173096,-1.2108299732208252
1766480059443244300,0.502244384765625,9.577112197875977,-1.7305041551589966,-1.2060980796813965
1766480059463263700,0.522263671875,9.576705932617188,-1.7376433610916138,-1.199035882949829
1766480059473273600,0.532273681640625,9.576448440551758,-1.74003267288208,-1.1976262331008911
1766480059483252700,0.542252685546875,9.576347351074219,-1.742032527923584,-1.1955238580703735
1766480059493232000,0.552232177734375,9.575892448425293,-1.746457576751709,-1.1927112340927124
1766480059533240600,0.592240478515625,9.570530891418457,-1.7747260332107544,-1.1940187215805054
1766480059543250400,0.60225048828125,9.569706916809082,-1.776394248008728,-1.1981326341629028
1766480059553260000,0.612260009765625,9.568912506103516,-1.7779662609100342,-1.20213782787323
1766480059563239400,0.622239501953125,9.56747817993164,-1.7828727960586548,-1.2062820196151733
1766480059573249000,0.6322490234375,9.56643009185791,-1.7866111993789673,-1.2090604305267334
1766480059583228400,0.642228515625,9.565995216369629,-1.7866042852401733,-1.212505578994751
1766480059593238000,0.652238037109375,9.566095352172852,-1.784597396850586,-1.2146669626235962
1766480059623236900,0.68223681640625,9.56118106842041,-1.7908235788345337,-1.2438451051712036
1766480059633246700,0.692246826171875,9.55944538116455,-1.7962197065353394,-1.2493963241577148
1766480059643256300,0.70225634765625,9.556884765625,-1.8040310144424438,-1.2577003240585327
1766480059653266200,0.71226611328125,9.5563325881958,-1.8054367303848267,-1.2598825693130493
1766480059663276000,0.722276123046875,9.556340217590332,-1.805693507194519,-1.2594507932662964
1766480059673285600,0.73228564453125,9.556462287902832,-1.80415940284729,-1.260721206665039
1766480059683295500,0.74229541015625,9.556625366210938,-1.7995816469192505,-1.2660187482833862
1766480059693305300,0.752305419921875,9.55689811706543,-1.7958159446716309,-1.2693026065826416
1766480059713324800,0.77232470703125,9.556774139404297,-1.7936640977859497,-1.2732728719711304
1766480059723334700,0.782334716796875,9.556793212890625,-1.7940961122512817,-1.2725253105163574
1766480059733344300,0.79234423828125,9.556571006774902,-1.7961359024047852,-1.271316409111023
1766480059743323600,0.80232373046875,9.556583404541016,-1.7974029779434204,-1.2694250345230103
1766480059753364000,0.812364013671875,9.556687355041504,-1.7985975742340088,-1.2669466733932495
1766480059763373600,0.82237353515625,9.556635856628418,-1.8002148866653442,-1.2650386095046997
1766480059773383400,0.832383544921875,9.556894302368164,-1.7991774082183838,-1.2645589113235474
1766480059783393000,0.84239306640625,9.558293342590332,-1.7914808988571167,-1.2649160623550415
1766480059793403000,0.85240283203125,9.559355735778809,-1.7864482402801514,-1.26400887966156
1766480059823401700,0.882401611328125,9.559612274169922,-1.7866675853729248,-1.2617532014846802
1766480059843421200,0.902421142578125,9.56026554107666,-1.7916187047958374,-1.2497220039367676
1766480059853431000,0.91243115234375,9.559711456298828,-1.7966195344924927,-1.246778964996338
1766480059863379700,0.922379638671875,9.558263778686523,-1.8076485395431519,-1.241929054260254
1766480059873389600,0.9323896484375,9.555900573730469,-1.8206654787063599,-1.2410964965820312
1766480059883368700,0.94236865234375,9.554388999938965,-1.827558159828186,-1.24260675907135
1766480059893409000,0.952408935546875,9.554481506347656,-1.8287266492843628,-1.2401738166809082
1766480059903388200,0.96238818359375,9.555535316467285,-1.8260395526885986,-1.2360059022903442
1766480059963446800,1.02244677734375,9.558761596679688,-1.8145519495010376,-1.2279516458511353
1766480059983435800,1.042435791015625,9.558101654052734,-1.8243519067764282,-1.2185372114181519
1766480059993415200,1.052415283203125,9.557319641113281,-1.8312970399856567,-1.2142384052276611
1766480060003424800,1.0624248046875,9.557205200195312,-1.8345640897750854,-1.2102015018463135
1766480060013465000,1.072465087890625,9.55758285522461,-1.835271954536438,-1.2061419486999512
1766480060023475000,1.082474853515625,9.558282852172852,-1.8338936567306519,-1.202687382698059
1766480060033454000,1.0924541015625,9.559914588928223,-1.827375054359436,-1.1996322870254517
1766480060053473800,1.112473876953125,9.562236785888672,-1.8213675022125244,-1.190226435661316
1766480060063453000,1.122452880859375,9.562943458557129,-1.8193734884262085,-1.1875972747802734
1766480060073462800,1.132462890625,9.564209938049316,-1.8148244619369507,-1.1843512058258057
1766480060083472400,1.142472412109375,9.565590858459473,-1.810613989830017,-1.1796385049819946
1766480060093482200,1.152482177734375,9.56661605834961,-1.8090835809707642,-1.1736546754837036
1766480060103461400,1.16246142578125,9.566732406616211,-1.8109186887741089,-1.1698640584945679
1766480060113471200,1.17247119140625,9.567055702209473,-1.812922716140747,-1.1641039848327637
1766480060123481000,1.182481201171875,9.567419052124023,-1.8119862079620361,-1.1625765562057495
1766480060133490700,1.19249072265625,9.567599296569824,-1.8112514019012451,-1.1622414588928223
1766480060143470000,1.202469970703125,9.56823444366455,-1.8074696063995361,-1.1629011631011963
1766480060163520000,1.22252001953125,9.569853782653809,-1.7975573539733887,-1.1649361848831177
1766480060173560300,1.232560302734375,9.570469856262207,-1.7927767038345337,-1.1672364473342896
1766480060183570200,1.242570068359375,9.570934295654297,-1.7888002395629883,-1.1695235967636108
1766480060193580000,1.252580078125,9.571398735046387,-1.7871674299240112,-1.1682236194610596
1766480060203589600,1.262589599609375,9.571733474731445,-1.7838767766952515,-1.1705126762390137
1766480060213599500,1.272599609375,9.571778297424316,-1.7808833122253418,-1.1746944189071655
1766480060223609000,1.282609130859375,9.572203636169434,-1.7756224870681763,-1.17918062210083
1766480060233619000,1.292618896484375,9.572807312011719,-1.771034598350525,-1.181176781654358
1766480060243628800,1.30262890625,9.574420928955078,-1.7584360837936401,-1.1869122982025146
1766480060283667700,1.342667724609375,9.576021194458008,-1.741701364517212,-1.19861900806427
1766480060293708000,1.3527080078125,9.57669448852539,-1.7367432117462158,-1.2004311084747314
1766480060303718000,1.3627177734375,9.576735496520996,-1.7358529567718506,-1.201393961906433
1766480060313697000,1.372697021484375,9.577611923217773,-1.7307636737823486,-1.2017490863800049
1766480060323707000,1.382706787109375,9.578627586364746,-1.7252317667007446,-1.201606035232544
1766480060333747200,1.392747314453125,9.579298973083496,-1.7219243049621582,-1.2009940147399902
1766480060353797000,1.412797119140625,9.580743789672852,-1.7166205644607544,-1.1970584392547607
1766480060373786000,1.4327861328125,9.582284927368164,-1.7117815017700195,-1.1916426420211792
1766480060383796000,1.4427958984375,9.582576751708984,-1.711501121520996,-1.1896950006484985
1766480060393805800,1.452805908203125,9.583300590515137,-1.7105399370193481,-1.185240626335144
1766480060403815400,1.4628154296875,9.582932472229004,-1.7139400243759155,-1.1833041906356812
1766480060413825300,1.4728251953125,9.582897186279297,-1.7158159017562866,-1.1808671951293945
1766480060423835100,1.482835205078125,9.58322811126709,-1.7141271829605103,-1.1806339025497437
1766480060433844700,1.4928447265625,9.583953857421875,-1.7098230123519897,-1.1809839010238647
1766480060443824000,1.50282421875,9.584617614746094,-1.7050237655639648,-1.1825305223464966
1766480060473853400,1.532853515625,9.583207130432129,-1.7148768901824951,-1.1797126531600952
1766480060483832600,1.54283251953125,9.58238697052002,-1.719923734664917,-1.1790271997451782
1766480060493873000,1.552872802734375,9.581149101257324,-1.726128101348877,-1.18002188205719
1766480060503882800,1.5628828125,9.579843521118164,-1.7330797910690308,-1.1804251670837402
1766480060513892400,1.572892333984375,9.578025817871094,-1.7416012287139893,-1.1826375722885132
1766480060523871700,1.582871826171875,9.577993392944336,-1.741219162940979,-1.1834660768508911
1766480060533881300,1.59288134765625,9.577973365783691,-1.7405985593795776,-1.1845357418060303
1766480060543891200,1.60289111328125,9.577666282653809,-1.7410300970077515,-1.186382532119751
1766480060573951000,1.632950927734375,9.574124336242676,-1.7555292844772339,-1.1935843229293823
1766480060583930400,1.642930419921875,9.571173667907715,-1.7692230939865112,-1.1970255374908447
1766480060593909500,1.652909423828125,9.566973686218262,-1.7888344526290894,-1.2014505863189697
1766480060603919400,1.66291943359375,9.55855655670166,-1.8313359022140503,-1.204411506652832
1766480060613929000,1.672928955078125,9.551542282104492,-1.8649896383285522,-1.2084002494812012
1766480060623938800,1.682938720703125,9.547761917114258,-1.8781592845916748,-1.2178478240966797
1766480060633918000,1.69291796875,9.53271484375,-1.9566459655761719,-1.2121405601501465
1766480060643927800,1.702927734375,9.527168273925781,-1.9799827337265015,-1.2178378105163574
1766480060653937700,1.712937744140625,9.503914833068848,-2.100912570953369,-1.1967252492904663
1766480060673957000,1.73295703125,9.473580360412598,-2.240567445755005,-1.1838631629943848
1766480060683967000,1.742967041015625,9.447769165039062,-2.355855703353882,-1.1661834716796875
1766480060693976600,1.7529765625,9.417657852172852,-2.4826769828796387,-1.1464853286743164
1766480060703986400,1.762986328125,9.362922668457031,-2.6976523399353027,-1.1084877252578735
1766480060713996300,1.772996337890625,9.34361457824707,-2.7650532722473145,-1.1053169965744019
1766480060724006000,1.783005859375,9.300352096557617,-2.91623592376709,-1.0813937187194824
1766480060734015700,1.793015625,9.25217056274414,-3.0739588737487793,-1.0575929880142212
1766480060743995000,1.802994873046875,9.196805953979492,-3.2424707412719727,-1.0370759963989258
1766480060754004700,1.813004638671875,9.094915390014648,-3.525970458984375,-1.0101608037948608
1766480060794013200,1.85301318359375,8.781411170959473,-4.263363361358643,-0.9385825991630554
1766480060804023000,1.86302294921875,8.687283515930176,-4.454925537109375,-0.9247312545776367
1766480060814033000,1.873032958984375,8.544312477111816,-4.725426197052002,-0.9140304327011108
1766480060824042500,1.88304248046875,8.439697265625,-4.910655498504639,-0.9095993638038635
1766480060834052400,1.89305224609375,8.383278846740723,-5.006873607635498,-0.9067780375480652
1766480060844062200,1.903062255859375,8.2508544921875,-5.223728656768799,-0.8980324268341064
1766480060854071800,1.91307177734375,8.087373733520508,-5.475189685821533,-0.8871718049049377
1766480060864051200,1.92305126953125,7.9042558670043945,-5.737303256988525,-0.8811860680580139
1766480060894049800,1.9530498046875,7.270308017730713,-6.52081823348999,-0.8899153470993042
1766480060914100000,1.973099853515625,7.027135848999023,-6.781434059143066,-0.8954920768737793
1766480060924109600,1.983109619140625,6.867652416229248,-6.9412946701049805,-0.907840371131897
1766480060934119400,1.993119384765625,6.688385486602783,-7.112576961517334,-0.9204069375991821
1766480060944129300,2.00312939453125,6.368684768676758,-7.397905349731445,-0.9387488961219788
1766480060954108400,2.0131083984375,6.238258361816406,-7.508058071136475,-0.9399893879890442
1766480060964118300,2.0231181640625,5.984346866607666,-7.710346698760986,-0.9531673192977905
1766480060974158600,2.03315869140625,5.7155890464782715,-7.910343647003174,-0.9637885689735413
1766480060994147600,2.053147705078125,5.107448101043701,-8.311237335205078,-1.0038392543792725
1766480061004157200,2.0631572265625,4.982250690460205,-8.386265754699707,-1.0090104341506958
1766480061014136600,2.073136474609375,4.761070251464844,-8.512195587158203,-1.0223139524459839
1766480061024146400,2.083146484375,4.453990459442139,-8.673627853393555,-1.0490703582763672
1766480061034156000,2.093156005859375,4.444448471069336,-8.67873477935791,-1.0473030805587769
1766480061044135400,2.103135498046875,4.140725135803223,-8.823719024658203,-1.0801746845245361
1766480061054145000,2.11314501953125,3.9315874576568604,-8.916759490966797,-1.0974544286727905
1766480061064124400,2.12312451171875,3.7483203411102295,-8.993624687194824,-1.1113992929458618
1766480061074164700,2.133164794921875,3.4901726245880127,-9.095023155212402,-1.1267750263214111
1766480061104132900,2.1631328125,3.071336507797241,-9.241130828857422,-1.157053828239441
1766480061164191500,2.22319140625,1.7914563417434692,-9.562952995300293,-1.2292299270629883
1766480061174201300,2.233201416015625,1.685615062713623,-9.582099914550781,-1.229810118675232
1766480061184180500,2.243180419921875,1.4849029779434204,-9.614418029785156,-1.2362960577011108
1766480061204169500,2.26316943359375,1.0979310274124146,-9.664052963256836,-1.2534099817276
1766480061264197600,2.32319775390625,-0.03419869765639305,-9.716200828552246,-1.3284069299697876
1766480061354254800,2.4132548828125,-1.1287033557891846,-9.599542617797852,-1.656872272491455
1766480061434302500,2.493302490234375,-1.605404257774353,-9.442529678344727,-2.1051700115203857
1766480061444281900,2.50328173828125,-1.6514499187469482,-9.422234535217285,-2.1597747802734375
1766480061454291500,2.51329150390625,-1.6739380359649658,-9.412787437438965,-2.1835250854492188
1766480061494269700,2.553269775390625,-1.6968439817428589,-9.360596656799316,-2.381255626678467
1766480061524299000,2.583299072265625,-1.6229844093322754,-9.352402687072754,-2.4635121822357178
1766480061534308600,2.59330859375,-1.5758204460144043,-9.351400375366211,-2.4976966381073
1766480061544288000,2.6032880859375,-1.5215563774108887,-9.351780891418457,-2.5297155380249023
1766480061554267100,2.61326708984375,-1.4796301126480103,-9.350093841552734,-2.5606372356414795
1766480061564246500,2.62324658203125,-1.4563955068588257,-9.344568252563477,-2.593907356262207
1766480061584296400,2.64329638671875,-1.4492615461349487,-9.326591491699219,-2.661719799041748
1766480061594306300,2.653306396484375,-1.4584954977035522,-9.316165924072266,-2.6929991245269775
1766480061604285400,2.663285400390625,-1.464184284210205,-9.307440757751465,-2.719947576522827
1766480061614325800,2.67332568359375,-1.460745096206665,-9.298218727111816,-2.7531425952911377
1766480061624335600,2.683335693359375,-1.443522572517395,-9.286864280700684,-2.8001441955566406
1766480061634314800,2.693314697265625,-1.4379442930221558,-9.28822135925293,-2.7985122203826904
1766480061644324600,2.70332470703125,-1.4335966110229492,-9.282305717468262,-2.820284843444824
1766480061654334200,2.713334228515625,-1.4330956935882568,-9.268280029296875,-2.866288423538208
1766480061664344000,2.723343994140625,-1.4361627101898193,-9.264015197753906,-2.8785154819488525
1766480061684333000,2.7433330078125,-1.375338077545166,-9.241944313049316,-2.977463483810425
1766480061694373400,2.753373291015625,-1.3206708431243896,-9.232279777526855,-3.0317094326019287
1766480061704352500,2.7633525390625,-1.2412652969360352,-9.215279579162598,-3.1158041954040527
1766480061714362400,2.7733623046875,-1.215912103652954,-9.209152221679688,-3.1438004970550537
1766480061724372200,2.783372314453125,-1.1810389757156372,-9.192298889160156,-3.205806255340576
1766480061734381800,2.7933818359375,-1.1772226095199585,-9.15649700164795,-3.3080408573150635
1766480061744391700,2.8033916015625,-1.1916090250015259,-9.126981735229492,-3.383586883544922
1766480061754401500,2.813401611328125,-1.2098643779754639,-9.093130111694336,-3.467219591140747
1766480061764411100,2.8234111328125,-1.2299656867980957,-9.056715965270996,-3.5543577671051025
1766480061784430800,2.843430908203125,-1.2532142400741577,-9.003143310546875,-3.6801185607910156
1766480061794410000,2.853409912109375,-1.2439712285995483,-8.970223426818848,-3.7627170085906982
1766480061814429400,2.873429443359375,-1.1637725830078125,-8.88862419128418,-3.9759793281555176
1766480061824439300,2.883439208984375,-1.142552137374878,-8.872345924377441,-4.018265247344971
1766480061834418400,2.89341845703125,-1.0599554777145386,-8.812146186828613,-4.170483589172363
1766480061844428300,2.90342822265625,-1.0078027248382568,-8.76414680480957,-4.283046722412109
1766480061854438100,2.913438232421875,-0.9687781929969788,-8.707897186279297,-4.4050445556640625
1766480061864447700,2.92344775390625,-0.9423879981040955,-8.642194747924805,-4.538145065307617
1766480061904487000,2.96348681640625,-0.8491265773773193,-8.318069458007812,-5.124364376068115
1766480061914496800,2.973496826171875,-0.8074662089347839,-8.22485637664795,-5.279212951660156
1766480061924506400,2.98350634765625,-0.7845840454101562,-8.17597770690918,-5.358005523681641
1766480061934516200,2.99351611328125,-0.7297959923744202,-8.072839736938477,-5.519696235656738
1766480061944525800,3.00352587890625,-0.5824988484382629,-7.84326696395874,-5.857834815979004
1766480061964515000,3.02351513671875,-0.4345608055591583,-7.639845371246338,-6.133050918579102
1766480061974524700,3.033524658203125,-0.33873263001441956,-7.487926006317139,-6.323500633239746
1766480062024604200,3.083604248046875,-0.19137798249721527,-6.478250980377197,-7.35975456237793
1766480062034613800,3.09361376953125,-0.23014813661575317,-6.22354793548584,-7.575283527374268
1766480062044623600,3.10362353515625,-0.25805431604385376,-5.984926700592041,-7.76430606842041
1766480062054633500,3.113633544921875,-0.2900043725967407,-5.744019508361816,-7.943080902099609
1766480062064612600,3.123612548828125,-0.32870614528656006,-5.501119613647461,-8.111720085144043
1766480062074622500,3.13362255859375,-0.3741748034954071,-5.2595415115356445,-8.268470764160156
1766480062084601600,3.1436015625,-0.42176827788352966,-5.02755880355835,-8.409289360046387
1766480062124610300,3.1836103515625,-0.5380244255065918,-4.376636505126953,-8.759336471557617
1766480062144629800,3.203629638671875,-0.6020845770835876,-4.112917423248291,-8.882104873657227
1766480062154670000,3.213670166015625,-0.6338939666748047,-4.031729221343994,-8.917046546936035
1766480062164679700,3.2236796875,-0.6476529240608215,-3.992464303970337,-8.933711051940918
1766480062174689500,3.233689453125,-0.694563090801239,-3.960329055786133,-8.944483757019043
1766480062194678500,3.253678466796875,-0.8248738050460815,-3.94321608543396,-8.940973281860352
1766480062214698000,3.273697998046875,-1.0503177642822266,-3.9454736709594727,-8.916305541992188
1766480062224707800,3.283707763671875,-1.157371163368225,-3.9521384239196777,-8.900084495544434
1766480062234717700,3.2937177734375,-1.2716901302337646,-3.957866668701172,-8.88192081451416
1766480062244696800,3.30369677734375,-1.3868749141693115,-3.9543542861938477,-8.866232872009277
1766480062254706700,3.313706787109375,-1.4976894855499268,-3.93971586227417,-8.854714393615723
1766480062264716300,3.32371630859375,-1.6020619869232178,-3.9176275730133057,-8.846240997314453
1766480062284705300,3.343705322265625,-1.7452210187911987,-3.876546621322632,-8.837250709533691
1766480062294715100,3.353715087890625,-1.8666720390319824,-3.829450845718384,-8.832964897155762
1766480062324714000,3.3837138671875,-2.051159620285034,-3.794544219970703,-8.807074546813965
1766480062334723600,3.3937236328125,-2.139307975769043,-3.7862300872802734,-8.789666175842285
1766480062344733400,3.4037333984375,-2.1773316860198975,-3.794036388397217,-8.776954650878906
1766480062354743300,3.413743408203125,-2.189822196960449,-3.817089319229126,-8.763840675354004
1766480062364722400,3.423722412109375,-2.174600601196289,-3.8572733402252197,-8.75002384185791
1766480062374732300,3.433732177734375,-2.1385130882263184,-3.911728620529175,-8.734729766845703
1766480062384742000,3.443741943359375,-2.1104798316955566,-3.9434053897857666,-8.727301597595215
1766480062394751700,3.453751708984375,-2.1093544960021973,-4.005723476409912,-8.699151992797852
1766480062444739600,3.503739501953125,-2.199895143508911,-4.1879472732543945,-8.590224266052246
1766480062454749400,3.51374951171875,-2.227534294128418,-4.221441268920898,-8.56667423248291
1766480062464728600,3.523728515625,-2.2542335987091064,-4.253098964691162,-8.544004440307617
1766480062474707700,3.533707763671875,-2.2814619541168213,-4.283239841461182,-8.521688461303711
1766480062484656600,3.54365673828125,-2.2938811779022217,-4.297881603240967,-8.510976791381836
1766480062494697000,3.553697021484375,-2.3417675495147705,-4.3390936851501465,-8.47695541381836
1766480062504706600,3.56370654296875,-2.357733726501465,-4.353307723999023,-8.46523666381836
1766480062524726300,3.583726318359375,-2.426588773727417,-4.403575420379639,-8.419654846191406
1766480062554724900,3.613724853515625,-2.493089437484741,-4.499812602996826,-8.349047660827637
1766480062564704300,3.623704345703125,-2.50944185256958,-4.527778625488281,-8.329005241394043
1766480062574713900,3.6337138671875,-2.530588150024414,-4.554441928863525,-8.30804443359375
1766480062584693200,3.643693359375,-2.5546762943267822,-4.579168319702148,-8.287055015563965
1766480062594702800,3.653702880859375,-2.5818092823028564,-4.60381555557251,-8.264959335327148
1766480062604682200,3.66368212890625,-2.6109185218811035,-4.630730152130127,-8.24074649810791
1766480062614691800,3.67369189453125,-2.6257290840148926,-4.644740104675293,-8.228141784667969
1766480062674689500,3.733689453125,-2.806234359741211,-4.839889049530029,-8.054248809814453
1766480062684699400,3.743699462890625,-2.84134840965271,-4.851773738861084,-8.03476333618164
1766480062694709000,3.753708984375,-2.8826959133148193,-4.8677568435668945,-8.010330200195312
1766480062704688400,3.7636884765625,-2.9316060543060303,-4.882594585418701,-7.983502388000488
1766480062714698000,3.773697998046875,-2.9865128993988037,-4.888765335083008,-7.959340572357178
1766480062724707800,3.783707763671875,-3.0430028438568115,-4.884371757507324,-7.940618515014648
1766480062744727300,3.803727294921875,-3.1358535289764404,-4.860131740570068,-7.919338703155518
1766480062754737200,3.813737060546875,-3.2057509422302246,-4.836495876312256,-7.905814170837402
1766480062764747000,3.8237470703125,-3.250685214996338,-4.831092834472656,-7.890753746032715
1766480062774787000,3.833787109375,-3.2682981491088867,-4.837900161743164,-7.879300117492676
1766480062784766500,3.843766357421875,-3.2592570781707764,-4.821374416351318,-7.893161773681641
1766480062794776300,3.8537763671875,-3.241687536239624,-4.829887390136719,-7.895193576812744
1766480062804786000,3.863785888671875,-3.2339155673980713,-4.852047443389893,-7.8847832679748535
1766480062814795800,3.873795654296875,-3.2448933124542236,-4.882312774658203,-7.861558437347412
1766480062824805400,3.883805419921875,-3.3006017208099365,-4.9324798583984375,-7.80686092376709
1766480062854834700,3.913834716796875,-3.4456470012664795,-4.997527599334717,-7.702118873596191
1766480062864844500,3.923844482421875,-3.502427101135254,-5.0170392990112305,-7.663729190826416
1766480062874854400,3.9338544921875,-3.542250633239746,-5.037283897399902,-7.632077217102051
1766480062884833500,3.94383349609375,-3.569528341293335,-5.055515766143799,-7.607275485992432
1766480062894873900,3.953873779296875,-3.592761278152466,-5.071342945098877,-7.585771083831787
1766480062904883700,3.9638837890625,-3.614323854446411,-5.0877556800842285,-7.564511299133301
1766480062914893300,3.973893310546875,-3.6311566829681396,-5.105898857116699,-7.544196605682373
1766480062924903200,3.983903076171875,-3.6415512561798096,-5.12896203994751,-7.523514270782471
1766480062934943500,3.993943603515625,-3.6453936100006104,-5.1547932624816895,-7.503973484039307
1766480062944953000,4.003953125,-3.642216920852661,-5.1811137199401855,-7.487370491027832
1766480062964942300,4.0239423828125,-3.6263346672058105,-5.240677833557129,-7.453548908233643
1766480062975013000,4.03401318359375,-3.6007511615753174,-5.293111801147461,-7.428860187530518
1766480062984961800,4.0439619140625,-3.606123685836792,-5.314669609069824,-7.410842418670654
1766480062994941000,4.05394091796875,-3.5939292907714844,-5.354959011077881,-7.387726306915283
1766480063004950800,4.06395068359375,-3.582244396209717,-5.393742561340332,-7.365151405334473
1766480063014960600,4.073960693359375,-3.5748202800750732,-5.4331583976745605,-7.339746952056885
1766480063024970200,4.08397021484375,-3.5675461292266846,-5.475424289703369,-7.311824321746826
1766480063034980000,4.09397998046875,-3.562805414199829,-5.516680717468262,-7.283067226409912
1766480063044989700,4.10398974609375,-3.5673904418945312,-5.558990478515625,-7.248569488525391
1766480063064979000,4.12397900390625,-3.582068920135498,-5.661247253417969,-7.161661624908447
1766480063084998400,4.143998291015625,-3.6235861778259277,-5.717162132263184,-7.096063137054443
1766480063095008300,4.15400830078125,-3.6544876098632812,-5.746646881103516,-7.05628776550293
1766480063104987400,4.1639873046875,-3.6917848587036133,-5.770835876464844,-7.017019748687744
1766480063114997200,4.173997314453125,-3.73649263381958,-5.786294937133789,-6.980529308319092
1766480063124976400,4.183976318359375,-3.7708537578582764,-5.80304479598999,-6.948073387145996
1766480063134986200,4.193986328125,-3.81681489944458,-5.826151371002197,-6.903495788574219
1766480063144995800,4.203995849609375,-3.83604097366333,-5.827080249786377,-6.892047882080078
1766480063164984800,4.22398486328125,-3.882681369781494,-5.853289604187012,-6.843549728393555
1766480063174994700,4.23399462890625,-3.9125685691833496,-5.867187023162842,-6.814569473266602
1766480063185004500,4.244004638671875,-3.9328207969665527,-5.869472980499268,-6.800924777984619
1766480063195014100,4.25401416015625,-3.9430441856384277,-5.866847515106201,-6.797272682189941
1766480063204993500,4.26399365234375,-3.956590414047241,-5.86745548248291,-6.788869380950928
1766480063215003100,4.274003173828125,-3.968869686126709,-5.864853858947754,-6.78394889831543
1766480063224982500,4.283982421875,-3.9827382564544678,-5.8587212562561035,-6.781117916107178
1766480063234961700,4.293961669921875,-3.998910903930664,-5.846461772918701,-6.782181739807129
1766480063244971500,4.303971435546875,-4.017117977142334,-5.827047348022461,-6.788125991821289
1766480063255011800,4.31401171875,-4.0364789962768555,-5.8037238121032715,-6.796618938446045
1766480063315009300,4.37400927734375,-4.111763954162598,-5.600683689117432,-6.920707702636719
1766480063324988700,4.38398876953125,-4.112466812133789,-5.570312023162842,-6.944756507873535
1766480063334998300,4.393998291015625,-4.110718727111816,-5.557186126708984,-6.956295967102051
1766480063344977700,4.403977783203125,-4.115667819976807,-5.497539043426514,-7.000624179840088
1766480063355018000,4.41401806640625,-4.116562366485596,-5.47920036315918,-7.014464378356934
1766480063365027600,4.424027587890625,-4.125833988189697,-5.434244155883789,-7.043924808502197
1766480063375068000,4.43406787109375,-4.1441779136657715,-5.381728172302246,-7.073416233062744
1766480063395057000,4.454056884765625,-4.200986862182617,-5.262105941772461,-7.129680633544922
1766480063405036300,4.464036376953125,-4.23112678527832,-5.178767204284668,-7.172750473022461
1766480063415015400,4.474015380859375,-4.241389274597168,-5.128917217254639,-7.202445030212402
1766480063425025300,4.484025390625,-4.245612144470215,-5.079098224639893,-7.235187530517578
1766480063435035000,4.494034912109375,-4.249236583709717,-5.021735668182373,-7.272999286651611
1766480063445014300,4.50401416015625,-4.253837585449219,-4.956586837768555,-7.314882755279541
1766480063455054600,4.5140546875,-4.260601997375488,-4.88315486907959,-7.3601975440979
1766480063465033700,4.52403369140625,-4.267529487609863,-4.840839862823486,-7.384096622467041
1766480063475074000,4.534073974609375,-4.2856621742248535,-4.747939109802246,-7.433748245239258
1766480063505103400,4.564103271484375,-4.306461334228516,-4.415701866149902,-7.62406587600708
1766480063515143700,4.574143798828125,-4.303952693939209,-4.369345664978027,-7.652139663696289
1766480063525153300,4.5841533203125,-4.2772321701049805,-4.235723495483398,-7.741726398468018
1766480063535163100,4.5941630859375,-4.266150951385498,-4.192928314208984,-7.7710795402526855
1766480063545142500,4.604142578125,-4.239177703857422,-4.066483020782471,-7.852611541748047
1766480063555152100,4.614152099609375,-4.226195335388184,-3.9925453662872314,-7.897420406341553
1766480063565162000,4.624161865234375,-4.219400405883789,-3.9336588382720947,-7.93053674697876
1766480063575171600,4.634171630859375,-4.2169189453125,-3.90950083732605,-7.943789958953857
1766480063615180300,4.67418017578125,-4.273872375488281,-3.9033238887786865,-7.916345119476318
1766480063635169300,4.694169189453125,-4.344659328460693,-4.014557361602783,-7.8216166496276855
1766480063645148400,4.7041484375,-4.3649516105651855,-4.0955810546875,-7.768128395080566
1766480063655127800,4.7141279296875,-4.388673782348633,-4.192584037780762,-7.702737808227539
1766480063665137400,4.724137451171875,-4.4008708000183105,-4.245029449462891,-7.666970252990723
1766480063675147300,4.734147216796875,-4.434950828552246,-4.424417972564697,-7.54494047164917
1766480063685157000,4.7441572265625,-4.452463626861572,-4.559919834136963,-7.453393459320068
1766480063735145000,4.79414501953125,-4.813663005828857,-5.01360559463501,-6.918298721313477
1766480063745154600,4.804154541015625,-4.961559772491455,-5.0210466384887695,-6.807525634765625
1766480063755164400,4.814164306640625,-5.118777751922607,-5.013791084289551,-6.695552349090576
1766480063765143600,4.8241435546875,-5.288198471069336,-4.986919403076172,-6.583012104034424
1766480063775153400,4.8341533203125,-5.401131629943848,-4.938748359680176,-6.527401447296143
1766480063785163300,4.844163330078125,-5.672616481781006,-4.849756240844727,-6.3617329597473145
1766480063815223000,4.87422314453125,-6.343101978302002,-4.434300899505615,-6.022658824920654
1766480063825232600,4.884232666015625,-6.47725248336792,-4.321771621704102,-5.961370944976807
1766480063835242500,4.894242431640625,-6.849914073944092,-3.994349718093872,-5.770115375518799
1766480063845252400,4.90425244140625,-7.10452127456665,-3.736661434173584,-5.63326358795166
1766480063855262000,4.914261962890625,-7.3507490158081055,-3.4631335735321045,-5.490318298339844
1766480063865241300,4.924241455078125,-7.575424671173096,-3.1849000453948975,-5.351611137390137
1766480063875251000,4.9342509765625,-7.780084609985352,-2.9098007678985596,-5.212841033935547
1766480063885200000,4.944199951171875,-7.96516752243042,-2.6416616439819336,-5.0742645263671875
1766480063925238800,4.98423876953125,-8.545577049255371,-1.6789052486419678,-4.508303642272949
1766480063945258500,5.004258544921875,-8.696407318115234,-1.3983508348464966,-4.3113298416137695
1766480063955268000,5.01426806640625,-8.778192520141602,-1.242848515510559,-4.1915459632873535
1766480063965247500,5.02424755859375,-8.848906517028809,-1.1113113164901733,-4.078263282775879
1766480063975257000,5.034257080078125,-8.91170597076416,-0.997146487236023,-3.9695844650268555
1766480063985267000,5.044266845703125,-8.990452766418457,-0.8553637266159058,-3.8223695755004883
1766480063995307300,5.054307373046875,-9.034687042236328,-0.7809184789657593,-3.732969284057617
1766480064025367000,5.084366943359375,-9.118644714355469,-0.6486971378326416,-3.5496387481689453
1766480064035377000,5.094376953125,-9.146942138671875,-0.6043136119842529,-3.484055280685425
1766480064045356000,5.10435595703125,-9.180564880371094,-0.5496838688850403,-3.403757333755493
1766480064055366000,5.114365966796875,-9.197583198547363,-0.534747838973999,-3.3598921298980713
1766480064065375500,5.12437548828125,-9.20478343963623,-0.5371299386024475,-3.3397414684295654
1766480064075355000,5.13435498046875,-9.216880798339844,-0.5477811098098755,-3.3044593334198
1766480064085364500,5.144364501953125,-9.232508659362793,-0.6026111841201782,-3.250851631164551
1766480064095343900,5.15434375,-9.236186027526855,-0.631356954574585,-3.2349135875701904
1766480064105323000,5.164322998046875,-9.246987342834473,-0.6720109581947327,-3.195629119873047
1766480064145331700,5.204331787109375,-9.266327857971191,-1.0592586994171143,-3.030444622039795
1766480064155341300,5.21434130859375,-9.259021759033203,-1.290995478630066,-2.9621329307556152
1766480064165320700,5.22432080078125,-9.246965408325195,-1.4738788604736328,-2.9140474796295166
1766480064175330300,5.234330322265625,-9.233272552490234,-1.6491104364395142,-2.863126754760742
1766480064185340200,5.244340087890625,-9.217596054077148,-1.8177071809768677,-2.8110902309417725
1766480064195350000,5.25435009765625,-9.198817253112793,-1.983952522277832,-2.759727716445923
1766480064205329200,5.2643291015625,-9.187967300415039,-2.069857120513916,-2.732635498046875
1766480064215339000,5.274339111328125,-9.16978931427002,-2.219355821609497,-2.6757853031158447
1766480064235358500,5.2943583984375,-9.126155853271484,-2.5425968170166016,-2.533555269241333
1766480064245368300,5.304368408203125,-9.106945037841797,-2.665139675140381,-2.476069211959839
1766480064255378000,5.3143779296875,-9.082216262817383,-2.800379514694214,-2.416938066482544
1766480064265387800,5.3243876953125,-9.049881935119629,-2.937401056289673,-2.375227928161621
1766480064275367000,5.334366943359375,-9.030320167541504,-3.0059850215911865,-2.363847494125366
1766480064285376800,5.344376708984375,-8.988468170166016,-3.141500949859619,-2.3470942974090576
1766480064295356000,5.35435595703125,-8.928009033203125,-3.332239866256714,-2.314568519592285
1766480064305365800,5.36436572265625,-8.899617195129395,-3.4064950942993164,-2.315816640853882
1766480064315375600,5.374375732421875,-8.816278457641602,-3.624561309814453,-2.30353045463562
1766480064345343700,5.40434375,-8.63211441040039,-3.9999301433563232,-2.378556966781616
1766480064365363500,5.424363525390625,-8.520186424255371,-4.233511924743652,-2.3778562545776367
1766480064375403500,5.434403564453125,-8.479666709899902,-4.312932014465332,-2.379974842071533
1766480064385383000,5.4443828125,-8.445780754089355,-4.375788688659668,-2.3857216835021973
1766480064395392800,5.454392822265625,-8.410959243774414,-4.4359965324401855,-2.397519826889038
1766480064405372000,5.464371826171875,-8.370650291442871,-4.503040790557861,-2.413573980331421
1766480064415381800,5.4743818359375,-8.309545516967773,-4.596169471740723,-2.4488883018493652
1766480064425330400,5.484330322265625,-8.267796516418457,-4.657694339752197,-2.473827838897705
1766480064465369300,5.524369384765625,-8.12177562713623,-4.872354507446289,-2.543085813522339
1766480064475379200,5.534379150390625,-8.102995872497559,-4.900941848754883,-2.5480644702911377
1766480064485358600,5.544358642578125,-8.066469192504883,-4.9606428146362305,-2.5484256744384766
1766480064495398700,5.554398681640625,-8.021679878234863,-5.03499174118042,-2.5439915657043457
1766480064505378000,5.5643779296875,-7.960807800292969,-5.1353230476379395,-2.5346388816833496
1766480064515387600,5.5743876953125,-7.87608003616333,-5.272809982299805,-2.5169970989227295
1766480064525397500,5.5843974609375,-7.777817249298096,-5.425826072692871,-2.497284412384033
1766480064555426800,5.6144267578125,-7.452170372009277,-5.890367031097412,-2.437042713165283
1766480064565406000,5.624406005859375,-7.378398418426514,-5.976515293121338,-2.4517152309417725
1766480064575415800,5.634415771484375,-7.338174819946289,-6.019583225250244,-2.467027187347412
1766480064585425700,5.64442578125,-7.309439182281494,-6.047173023223877,-2.4847841262817383
1766480064595435300,5.654435302734375,-7.273369312286377,-6.081040859222412,-2.507873296737671
1766480064605445000,5.664445068359375,-7.227939605712891,-6.114094257354736,-2.5583505630493164
1766480064615455000,5.674455078125,-7.184445381164551,-6.154111385345459,-2.584778070449829
1766480064625434000,5.68443408203125,-7.139156341552734,-6.1968207359313965,-2.6081271171569824
1766480064635444000,5.69444384765625,-7.087460041046143,-6.248023986816406,-2.6268882751464844
1766480064655463400,5.71446337890625,-6.991629123687744,-6.341999530792236,-2.6583032608032227
1766480064685431800,5.744431884765625,-6.717703819274902,-6.606675624847412,-2.7193222045898438
1766480064695441400,5.75444140625,-6.632004261016846,-6.685445308685303,-2.73709774017334
1766480064705390000,5.76439013671875,-6.551381587982178,-6.7606377601623535,-2.7465596199035645
1766480064715430400,5.774430419921875,-6.453002452850342,-6.849373817443848,-2.759568691253662
1766480064725440300,5.784440185546875,-6.362580299377441,-6.9337687492370605,-2.7587735652923584
1766480064735450000,5.7944501953125,-6.269521236419678,-7.021543502807617,-2.749798536300659
1766480064775489000,5.834489013671875,-5.836256980895996,-7.403665542602539,-2.7007863521575928
1766480064795447600,5.854447509765625,-5.557313919067383,-7.644802570343018,-2.6160426139831543
1766480064805457400,5.86445751953125,-5.501163482666016,-7.692149639129639,-2.595843553543091
1766480064815467000,5.874467041015625,-5.265013694763184,-7.876420974731445,-2.5322072505950928
1766480064825476900,5.884476806640625,-5.076201915740967,-8.013069152832031,-2.4886224269866943
1766480064835486700,5.89448681640625,-4.87439489364624,-8.150403022766113,-2.4457383155822754
1766480064845435400,5.904435302734375,-4.675800323486328,-8.277623176574707,-2.405881404876709
1766480064885474600,5.944474609375,-4.022299289703369,-8.628220558166504,-2.3548483848571777
1766480064895484200,5.954484130859375,-3.824873447418213,-8.72159194946289,-2.3397884368896484
1766480064905494000,5.964493896484375,-3.6147518157958984,-8.81696605682373,-2.3162691593170166
1766480064925452500,5.98445263671875,-3.0845000743865967,-9.030404090881348,-2.260094165802002
1766480064935492900,5.994492919921875,-2.975955009460449,-9.069613456726074,-2.248599052429199
1766480064945441500,6.004441650390625,-2.5943946838378906,-9.202613830566406,-2.1797850131988525
1766480064975501300,6.034501220703125,-2.462890625,-9.231606483459473,-2.2095296382904053
1766480064995520800,6.054520751953125,-2.3664963245391846,-9.253457069396973,-2.223442792892456
1766480065005469400,6.064469482421875,-2.304605007171631,-9.270990371704102,-2.2153937816619873
1766480065015509800,6.074509765625,-2.207435369491577,-9.297051429748535,-2.2051074504852295
1766480065025458700,6.084458740234375,-2.035813570022583,-9.335749626159668,-2.2067248821258545
1766480065035498800,6.094498779296875,-1.752779245376587,-9.381352424621582,-2.2557430267333984
1766480065045508600,6.104508544921875,-1.4248021841049194,-9.431355476379395,-2.2781317234039307
1766480065055518500,6.1145185546875,-1.2528791427612305,-9.452971458435059,-2.289546489715576
1766480065065497600,6.12449755859375,-0.9410089254379272,-9.484209060668945,-2.309694528579712
1766480065095496400,6.154496337890625,-0.29530197381973267,-9.491438865661621,-2.448624610900879
1766480065105506000,6.164506103515625,-0.17157025635242462,-9.48164176940918,-2.4978861808776855
1766480065115516000,6.174515869140625,-0.025075478479266167,-9.4672269821167,-2.557615041732788
1766480065125525800,6.18452587890625,0.15233288705348969,-9.447484016418457,-2.6252999305725098
1766480065135505000,6.1945048828125,0.35641607642173767,-9.429764747619629,-2.6688733100891113
1766480065145514800,6.2045146484375,0.464333713054657,-9.41844654083252,-2.692145586013794
1766480065155524600,6.214524658203125,0.8151125907897949,-9.377623558044434,-2.750663995742798
1766480065215522000,6.27452197265625,1.8875657320022583,-9.133343696594238,-3.0314197540283203
1766480065225532000,6.284531982421875,2.142896890640259,-9.058219909667969,-3.0865871906280518
1766480065235541500,6.29454150390625,2.230571746826172,-9.030106544494629,-3.1067843437194824
1766480065245551400,6.30455126953125,2.398158073425293,-8.977882385253906,-3.1331875324249268
1766480065255561200,6.314561279296875,2.552227020263672,-8.92996597290039,-3.1483731269836426
1766480065265570800,6.32457080078125,2.687882423400879,-8.888778686523438,-3.152031183242798
1766480065285590500,6.344590576171875,2.896766424179077,-8.829999923706055,-3.132128953933716
1766480065295600000,6.35460009765625,2.9726755619049072,-8.813971519470215,-3.1060423851013184
1766480065305610000,6.36460986328125,3.0650458335876465,-8.796186447143555,-3.0664310455322266
1766480065315589000,6.374589111328125,3.0900514125823975,-8.793684959411621,-3.048455238342285
1766480065325599000,6.384598876953125,3.133993148803711,-8.78945541381836,-3.015617847442627
1766480065335608800,6.39460888671875,3.175384521484375,-8.785195350646973,-2.9845681190490723
1766480065345588000,6.404587890625,3.212073802947998,-8.785857200622559,-2.9430758953094482
1766480065355597800,6.414597900390625,3.268521308898926,-8.781570434570312,-2.893298864364624
1766480065365577000,6.424576904296875,3.2823805809020996,-8.783236503601074,-2.872474193572998
1766480065375586800,6.4345869140625,3.3136396408081055,-8.779640197753906,-2.8474721908569336
1766480065405555000,6.464554931640625,3.4333579540252686,-8.768235206604004,-2.738703489303589
1766480065415564800,6.474564697265625,3.4838483333587646,-8.762306213378906,-2.6935434341430664
1766480065425513500,6.484513427734375,3.498969078063965,-8.771796226501465,-2.6425721645355225
1766480065435492900,6.494492919921875,3.540095329284668,-8.766805648803711,-2.6040797233581543
1766480065445502500,6.50450244140625,3.5692145824432373,-8.765620231628418,-2.568073272705078
1766480065455512300,6.51451220703125,3.5907607078552246,-8.767191886901855,-2.5324246883392334
1766480065465522000,6.52452197265625,3.6084582805633545,-8.770575523376465,-2.4952831268310547
1766480065475531800,6.53453173828125,3.6231470108032227,-8.772424697875977,-2.4673397541046143
1766480065485511200,6.54451123046875,3.6338467597961426,-8.774362564086914,-2.4446074962615967
1766480065495520800,6.554520751953125,3.631633758544922,-8.778355598449707,-2.433535575866699
1766480065505500200,6.564500244140625,3.6272826194763184,-8.786563873291016,-2.410295248031616
1766480065515479300,6.574479248046875,3.6342008113861084,-8.78921890258789,-2.3901097774505615
1766480065525458700,6.584458740234375,3.635889768600464,-8.794196128845215,-2.369138717651367
1766480065535468300,6.59446826171875,3.6547675132751465,-8.799896240234375,-2.3183794021606445
1766480065545478100,6.60447802734375,3.680736780166626,-8.80192756652832,-2.2690589427948
1766480065555487700,6.61448779296875,3.7014241218566895,-8.806459426879883,-2.217238187789917
1766480065565497600,6.62449755859375,3.7131507396698,-8.813904762268066,-2.167484760284424
1766480065575507500,6.634507568359375,3.7149596214294434,-8.827954292297363,-2.106349468231201
1766480065585517000,6.64451708984375,3.698819398880005,-8.845378875732422,-2.0611650943756104
1766480065595527000,6.65452685546875,3.6573386192321777,-8.876912117004395,-1.9986717700958252
1766480065605536800,6.664536865234375,3.6064887046813965,-8.91163158416748,-1.9355732202529907
1766480065615546400,6.67454638671875,3.5263423919677734,-8.95865535736084,-1.8648864030838013
1766480065625525800,6.68452587890625,3.45125412940979,-8.998220443725586,-1.814180612564087
1766480065635535400,6.694535400390625,3.385699987411499,-9.030502319335938,-1.7769246101379395
1766480065645545200,6.704545166015625,3.309513807296753,-9.065770149230957,-1.7405004501342773
1766480065655555000,6.71455517578125,3.2829835414886475,-9.078282356262207,-1.7254586219787598
1766480065665534200,6.7245341796875,3.238724708557129,-9.097975730895996,-1.7052544355392456
1766480065675513600,6.734513671875,3.195085048675537,-9.116806030273438,-1.686913251876831
1766480065685492700,6.74449267578125,3.132251739501953,-9.141631126403809,-1.6703213453292847
1766480065705481700,6.764481689453125,3.0135109424591064,-9.18958568572998,-1.6250118017196655
1766480065715522000,6.77452197265625,2.9789860248565674,-9.202814102172852,-1.6137738227844238
1766480065725532000,6.784531982421875,2.9346401691436768,-9.215569496154785,-1.6222113370895386
1766480065735541500,6.79454150390625,2.8994271755218506,-9.222879409790039,-1.6438384056091309
1766480065745551400,6.80455126953125,2.8717801570892334,-9.226040840148926,-1.6743547916412354
1766480065755561200,6.814561279296875,2.8506805896759033,-9.225998878479004,-1.7102514505386353
1766480065765540400,6.824540283203125,2.837073802947998,-9.222780227661133,-1.749776005744934
1766480065775550200,6.83455029296875,2.8348212242126465,-9.215011596679688,-1.7938100099563599
1766480065785559800,6.844559814453125,2.840651273727417,-9.203897476196289,-1.8410186767578125
1766480065805548800,6.864548828125,2.860309362411499,-9.173540115356445,-1.958365797996521
1766480065815528200,6.874528076171875,2.8624072074890137,-9.169085502624512,-1.9760847091674805
1766480065825507300,6.88450732421875,2.8668861389160156,-9.159536361694336,-2.013516426086426
1766480065835547600,6.894547607421875,2.859222888946533,-9.147491455078125,-2.078130006790161
1766480065845527000,6.904527099609375,2.854170083999634,-9.146523475646973,-2.0893075466156006
1766480065855536600,6.91453662109375,2.8070549964904785,-9.145203590393066,-2.1577961444854736
1766480065865546500,6.92454638671875,2.764514446258545,-9.146677017211914,-2.2059407234191895
1766480065875556000,6.93455615234375,2.7416350841522217,-9.14758586883545,-2.2305855751037598
1766480065885505000,6.944505126953125,2.6942455768585205,-9.147364616394043,-2.288490056991577
1766480065895484200,6.954484130859375,2.6493847370147705,-9.145195007324219,-2.348737955093384
1766480065905463600,6.964463623046875,2.606044054031372,-9.131730079650879,-2.4475338459014893
1766480065925421800,6.984421875,2.601008176803589,-9.106215476989746,-2.545975923538208
1766480065935462100,6.994462158203125,2.6190006732940674,-9.07303524017334,-2.644102096557617
1766480065945472000,7.004471923828125,2.6408214569091797,-9.047889709472656,-2.707794189453125
1766480065955481900,7.01448193359375,2.6634535789489746,-9.032631874084473,-2.7364120483398438
1766480065965461000,7.0244609375,2.6931185722351074,-8.994391441345215,-2.8316853046417236
1766480065985450000,7.044449951171875,2.730417490005493,-8.953950881958008,-2.922668218612671
1766480065995459800,7.0544599609375,2.73915433883667,-8.91861629486084,-3.0208821296691895
1766480066015448800,7.07444873046875,2.750985622406006,-8.8817138671875,-3.1173126697540283
1766480066025458700,7.084458740234375,2.769327402114868,-8.840727806091309,-3.216017961502075
1766480066035468300,7.09446826171875,2.7846169471740723,-8.824620246887207,-3.2469022274017334
1766480066045478100,7.10447802734375,2.8400747776031494,-8.771137237548828,-3.3423850536346436
1766480066055487700,7.11448779296875,2.894002914428711,-8.73011302947998,-3.402980089187622
1766480066065467100,7.124467041015625,2.9272654056549072,-8.708191871643066,-3.4305830001831055
1766480066075507500,7.134507568359375,3.016592502593994,-8.637262344360352,-3.5310401916503906
1766480066085486600,7.144486572265625,3.048240900039673,-8.612028121948242,-3.5653321743011475
1766480066095527000,7.15452685546875,3.1088263988494873,-8.55785083770752,-3.642634153366089
1766480066105536800,7.164536865234375,3.1690585613250732,-8.50050163269043,-3.7241036891937256
1766480066135566000,7.194566162109375,3.386047601699829,-8.300984382629395,-3.974761724472046
1766480066145545200,7.204545166015625,3.477177619934082,-8.22671890258789,-4.049781799316406
1766480066155555000,7.21455517578125,3.573397397994995,-8.153770446777344,-4.113060474395752
1766480066165564700,7.224564697265625,3.677241802215576,-8.083731651306152,-4.159515857696533
1766480066175574500,7.234574462890625,3.7783970832824707,-8.020919799804688,-4.190341472625732
1766480066185553700,7.2445537109375,3.8917953968048096,-7.949214458465576,-4.223069190979004
1766480066195563500,7.2545634765625,3.9536008834838867,-7.914640426635742,-4.230592250823975
1766480066205573400,7.264573486328125,3.9835565090179443,-7.900351047515869,-4.229200839996338
1766480066215583000,7.2745830078125,4.030095100402832,-7.880313396453857,-4.222486972808838
1766480066235633200,7.294633056640625,4.12440824508667,-7.8555755615234375,-4.177268981933594
1766480066245612300,7.3046123046875,4.145108222961426,-7.855930328369141,-4.156060695648193
1766480066255622100,7.3146220703125,4.186016082763672,-7.854919910430908,-4.116783142089844
1766480066265601300,7.324601318359375,4.229496479034424,-7.856357574462891,-4.069322109222412
1766480066275641600,7.3346416015625,4.273600101470947,-7.854730606079102,-4.026157379150391
1766480066285651500,7.3446513671875,4.324885368347168,-7.843690395355225,-3.992777109146118
1766480066295661300,7.354661376953125,4.384549140930176,-7.823925971984863,-3.966395616531372
1766480066305640400,7.364640380859375,4.481040000915527,-7.78709077835083,-3.930887460708618
1766480066315619600,7.37461962890625,4.5027756690979,-7.7806596755981445,-3.918766736984253
1766480066335639300,7.394639404296875,4.630270957946777,-7.731542587280273,-3.8670735359191895
1766480066345618400,7.404618408203125,4.697598457336426,-7.707083225250244,-3.834559440612793
1766480066355658800,7.41465869140625,4.75675630569458,-7.6890034675598145,-3.7977492809295654
1766480066365607400,7.424607421875,4.799903869628906,-7.681833744049072,-3.757758617401123
1766480066375647700,7.434647705078125,4.818717002868652,-7.690624237060547,-3.7154626846313477
1766480066385657600,7.44465771484375,4.8259687423706055,-7.706920623779297,-3.672027349472046
1766480066395667200,7.454667236328125,4.828597545623779,-7.726959705352783,-3.626173973083496
1766480066405646600,7.464646484375,4.814453125,-7.753746509552002,-3.5875961780548096
1766480066415656400,7.474656494140625,4.821551322937012,-7.773320198059082,-3.535325765609741
1766480066425666000,7.484666015625,4.834361553192139,-7.791140556335449,-3.4781432151794434
1766480066455695400,7.5146953125,4.868976593017578,-7.847189903259277,-3.299252510070801
1766480066465705200,7.524705322265625,4.88176155090332,-7.877593517303467,-3.2066071033477783
1766480066475745500,7.53474560546875,4.884970188140869,-7.886643409729004,-3.1793572902679443
1766480066485755100,7.544755126953125,4.890822410583496,-7.92195987701416,-3.081040620803833
1766480066495765000,7.554764892578125,4.890740871429443,-7.933719158172607,-3.0507619380950928
1766480066505744100,7.564744140625,4.886745929718018,-7.9606170654296875,-2.986417293548584
1766480066515723500,7.5747236328125,4.878246307373047,-7.989569664001465,-2.922306776046753
1766480066525733000,7.584733154296875,4.866794109344482,-8.020041465759277,-2.857205867767334
1766480066555762400,7.614762451171875,4.826833248138428,-8.121737480163574,-2.62858510017395
1766480066565772300,7.624772216796875,4.819315433502197,-8.144701957702637,-2.570686101913452
1766480066575751400,7.63475146484375,4.815145492553711,-8.164390563964844,-2.5154531002044678
1766480066585761300,7.64476123046875,4.80412483215332,-8.171940803527832,-2.5120012760162354
1766480066595740700,7.65474072265625,4.802933216094971,-8.18713092803955,-2.464367389678955
1766480066605750300,7.664750244140625,4.813392162322998,-8.196303367614746,-2.4129366874694824
1766480066615729700,7.674729736328125,4.8360748291015625,-8.199125289916992,-2.3573544025421143
1766480066625708800,7.684708740234375,4.865722179412842,-8.198753356933594,-2.296865224838257
1766480066635749000,7.6947490234375,4.8947248458862305,-8.198481559753418,-2.2353906631469727
1766480066685675800,7.74467578125,5.186715126037598,-8.113836288452148,-1.8531113862991333
1766480066695685600,7.754685546875,5.244616985321045,-8.084234237670898,-1.8192130327224731
1766480066705695500,7.764695556640625,5.44692325592041,-7.975719451904297,-1.6997994184494019
1766480066715735600,7.774735595703125,5.582019805908203,-7.899445056915283,-1.6156153678894043
1766480066725745400,7.784745361328125,5.6523003578186035,-7.858127593994141,-1.5721732378005981
1766480066735724800,7.794724853515625,5.777375221252441,-7.783849716186523,-1.4845893383026123
1766480066745734400,7.804734375,5.889540195465088,-7.715340614318848,-1.3990063667297363
1766480066755713800,7.8147138671875,5.983900547027588,-7.656645774841309,-1.3187493085861206
1766480066775702800,7.834702880859375,6.126903057098389,-7.564361572265625,-1.1882193088531494
1766480066785682000,7.844681884765625,6.213806629180908,-7.502516746520996,-1.1274909973144531
1766480066795691800,7.85469189453125,6.269519329071045,-7.459390640258789,-1.1049960851669312
1766480066805701400,7.864701416015625,6.295363426208496,-7.438575267791748,-1.0983525514602661
1766480066815680800,7.8746806640625,6.36367654800415,-7.377091407775879,-1.1191635131835938
1766480066825690600,7.884690673828125,6.417956352233887,-7.32314920425415,-1.1626313924789429
1766480066835700200,7.8947001953125,6.478305339813232,-7.258511066436768,-1.2312465906143188
1766480066845710000,7.9047099609375,6.50862979888916,-7.224242210388184,-1.2721821069717407
1766480066855719700,7.9147197265625,6.568620204925537,-7.15084981918335,-1.3743969202041626
1766480066865699000,7.924698974609375,6.627979755401611,-7.070539951324463,-1.499243974685669
1766480066885657600,7.94465771484375,6.767486572265625,-6.841236591339111,-1.8891782760620117
1766480066895667200,7.954667236328125,6.788248538970947,-6.793483257293701,-1.9846060276031494
1766480066905616100,7.9646162109375,6.858060836791992,-6.635251998901367,-2.260716199874878
1766480066915656400,7.974656494140625,6.867056846618652,-6.580740928649902,-2.3890926837921143
1766480066925666000,7.984666015625,6.902157783508301,-6.470813274383545,-2.580538511276245
1766480066935706400,7.994706298828125,6.933218479156494,-6.322975158691406,-2.849712610244751
1766480066945655000,8.004655029296876,6.928776264190674,-6.208254814147949,-3.1016151905059814
1766480066965674800,8.0246748046875,6.862673282623291,-6.15868616104126,-3.338365077972412
1766480066995673300,8.05467333984375,6.644375801086426,-6.150486946105957,-3.7675161361694336
1766480067005683200,8.06468310546875,6.564511775970459,-6.156350612640381,-3.895759344100952
1766480067015693000,8.074693115234375,6.4928483963012695,-6.153448104858398,-4.018506050109863
1766480067025702700,8.08470263671875,6.4839935302734375,-6.0883355140686035,-4.130422115325928
1766480067035712500,8.09471240234375,6.555234432220459,-5.957629680633545,-4.2078447341918945
1766480067045722000,8.10472216796875,6.595797538757324,-5.861379146575928,-4.279026508331299
1766480067065711400,8.12471142578125,6.475140571594238,-5.894993305206299,-4.414973258972168
1766480067105750300,8.164750244140626,6.33083963394165,-5.994908809661865,-4.489089488983154
1766480067115729700,8.174729736328125,6.292987823486328,-6.037246227264404,-4.48557186126709
1766480067125739300,8.1847392578125,6.241274833679199,-6.090735912322998,-4.485512733459473
1766480067135749000,8.1947490234375,6.1900715827941895,-6.143905162811279,-4.483954429626465
1766480067145759000,8.204759033203125,6.142022609710693,-6.199353218078613,-4.473696708679199
1766480067155738000,8.214738037109376,6.076387882232666,-6.288890838623047,-4.4382147789001465
1766480067165748000,8.224748046875,6.0239787101745605,-6.350652694702148,-4.421683311462402
1766480067175757600,8.234757568359376,5.97692346572876,-6.399481773376465,-4.415133953094482
1766480067205726000,8.264725830078126,5.946230888366699,-6.4274001121521,-4.416021823883057
1766480067225715000,8.28471484375,5.940225601196289,-6.436713695526123,-4.410537242889404
1766480067235724800,8.294724853515625,5.9368896484375,-6.440285682678223,-4.40981388092041
1766480067245704000,8.304703857421876,5.951654434204102,-6.429332256317139,-4.405892848968506
1766480067255683000,8.31468310546875,5.9764404296875,-6.415340423583984,-4.392714500427246
1766480067265693000,8.32469287109375,5.9832539558410645,-6.417262077331543,-4.380618572235107
1766480067285651500,8.3446513671875,6.029782295227051,-6.384992599487305,-4.363941669464111
1766480067325660000,8.384659912109376,6.098200798034668,-6.250917911529541,-4.461879730224609
1766480067335669800,8.394669677734376,6.157527446746826,-6.157325267791748,-4.510275840759277
1766480067345649000,8.40464892578125,6.207479476928711,-6.073068141937256,-4.555812358856201
1766480067355658800,8.41465869140625,6.243889331817627,-6.002237796783447,-4.599713325500488
1766480067365638000,8.424637939453126,6.264467716217041,-5.963812828063965,-4.62166166305542
1766480067375647700,8.434647705078126,6.283748149871826,-5.886581897735596,-4.693936824798584
1766480067385627100,8.444627197265625,6.304907321929932,-5.839919567108154,-4.7237548828125
1766480067425635600,8.484635498046876,6.3476881980896,-5.598499298095703,-4.95318603515625
1766480067435614700,8.49461474609375,6.376716613769531,-5.47822380065918,-5.0494489669799805
1766480067445624600,8.50462451171875,6.396972179412842,-5.393458843231201,-5.114658832550049
1766480067455603700,8.514603759765626,6.414926052093506,-5.306772708892822,-5.182399749755859
1766480067465613600,8.524613525390626,6.429769515991211,-5.238415241241455,-5.233303546905518
1766480067475623400,8.53462353515625,6.436940670013428,-5.156528472900391,-5.305318355560303
1766480067485633000,8.544633056640626,6.4311394691467285,-5.062211990356445,-5.4023003578186035
1766480067525611300,8.584611328125,6.400094985961914,-4.852771759033203,-5.626701354980469
1766480067535620900,8.594620849609376,6.392155170440674,-4.807177543640137,-5.674661159515381
1766480067545569500,8.604569580078126,6.381485462188721,-4.771448612213135,-5.716668605804443
1766480067555609900,8.61460986328125,6.363795280456543,-4.7513885498046875,-5.7529826164245605
1766480067565589200,8.62458935546875,6.341287612915039,-4.741239070892334,-5.786114692687988
1766480067575598800,8.634598876953126,6.3227219581604,-4.728346824645996,-5.816898822784424
1766480067585608700,8.644608642578126,6.317954063415527,-4.716696739196777,-5.831520080566406
1766480067595618600,8.65461865234375,6.3220415115356445,-4.67072057723999,-5.864003658294678
1766480067635596500,8.694596435546876,6.387203693389893,-4.519711494445801,-5.911534309387207
1766480067655616000,8.714615966796876,6.449375152587891,-4.43483304977417,-5.9083170890808105
1766480067665595400,8.724595458984375,6.466681957244873,-4.425108432769775,-5.896678447723389
1766480067675574500,8.734574462890626,6.479897499084473,-4.419161319732666,-5.886624336242676
1766480067685553700,8.7445537109375,6.494528770446777,-4.409529209136963,-5.877716064453125
1766480067695594000,8.754593994140626,6.515721797943115,-4.39468240737915,-5.865366458892822
1766480067705543000,8.76454296875,6.542163372039795,-4.3756818771362305,-5.850119113922119
1766480067745551400,8.80455126953125,6.609194755554199,-4.296224117279053,-5.833644390106201
1766480067755561200,8.814561279296875,6.595077037811279,-4.3120503425598145,-5.837941646575928
1766480067765570800,8.82457080078125,6.571704387664795,-4.339950084686279,-5.843622207641602
1766480067775580700,8.83458056640625,6.542857646942139,-4.373447895050049,-5.851012706756592
1766480067785590500,8.844590576171875,6.510886192321777,-4.409979820251465,-5.859251976013184
1766480067795600100,8.85460009765625,6.477257251739502,-4.4464240074157715,-5.8689727783203125
1766480067805579500,8.86457958984375,6.443594455718994,-4.480490207672119,-5.88010835647583
1766480067835578000,8.894578125,6.335330486297607,-4.566093444824219,-5.931674957275391
1766480067845588000,8.904587890625,6.315317630767822,-4.574150562286377,-5.946788787841797
1766480067855597800,8.914597900390625,6.250776767730713,-4.608892440795898,-5.988012790679932
1766480067865607400,8.924607421875,6.232063293457031,-4.619241237640381,-5.999532222747803
1766480067875617300,8.9346171875,6.172358989715576,-4.6687493324279785,-6.022884845733643
1766480067885596400,8.944596435546876,6.132263660430908,-4.71008825302124,-6.031648635864258
1766480067895606300,8.954606201171876,6.09579610824585,-4.762082576751709,-6.027787208557129
1766480067905616100,8.9646162109375,6.0687055587768555,-4.809202671051025,-6.017703056335449
1766480067915625700,8.974625732421876,6.04686164855957,-4.853296279907227,-6.004279136657715
1766480067955634400,9.014634521484375,5.970501899719238,-4.993918418884277,-5.965256214141846
1766480067975623400,9.03462353515625,5.920655250549316,-5.076392650604248,-5.945291519165039
1766480067985633000,9.044633056640626,5.883658409118652,-5.1331939697265625,-5.933236122131348
1766480067995612400,9.0546123046875,5.8596038818359375,-5.168914318084717,-5.926023960113525
1766480068005622000,9.0646220703125,5.851235866546631,-5.182257175445557,-5.922637939453125
1766480068015601400,9.074601318359376,5.809325695037842,-5.23416805267334,-5.918243408203125
1766480068045630700,9.104630615234376,5.727902889251709,-5.320033073425293,-5.921043872833252
1766480068055640600,9.114640625,5.666062831878662,-5.395792007446289,-5.911982536315918
1766480068065619700,9.12461962890625,5.616082668304443,-5.45423698425293,-5.906039237976074
1766480068075598800,9.134598876953126,5.565500259399414,-5.517554759979248,-5.895098686218262
1766480068085608700,9.144608642578126,5.521320819854736,-5.5675764083862305,-5.889608860015869
1766480068095618600,9.15461865234375,5.482693672180176,-5.616058349609375,-5.8796563148498535
1766480068105597700,9.16459765625,5.440037727355957,-5.66715145111084,-5.870243549346924
1766480068115607600,9.174607666015625,5.3893022537231445,-5.728585243225098,-5.857397079467773
1766480068125617200,9.1846171875,5.360917091369629,-5.7606964111328125,-5.851951599121094
1766480068155555000,9.21455517578125,5.199558258056641,-5.951417446136475,-5.806514263153076
1766480068165564700,9.224564697265626,5.151835918426514,-6.009159088134766,-5.789556503295898
1766480068185553700,9.2445537109375,5.0606303215026855,-6.118138313293457,-5.755760669708252
1766480068195563500,9.2545634765625,5.000286102294922,-6.193221092224121,-5.728135585784912
1766480068205512200,9.26451220703125,4.983254432678223,-6.214654922485352,-5.7197585105896
1766480068215491600,9.27449169921875,4.960897922515869,-6.24635648727417,-5.704639911651611
1766480068225501200,9.284501220703126,4.945315361022949,-6.272091865539551,-5.689912796020508
1766480068235480600,9.29448046875,4.916651248931885,-6.320174217224121,-5.661477088928223
1766480068245490400,9.304490478515625,4.89333438873291,-6.350781440734863,-5.647411346435547
1766480068285468400,9.344468505859375,4.828812122344971,-6.406733989715576,-5.639742374420166
1766480068295447600,9.354447509765626,4.798377513885498,-6.429771900177002,-5.639504909515381
1766480068305427000,9.364427001953125,4.767658233642578,-6.450042724609375,-5.642410755157471
1766480068315467000,9.374467041015626,4.738912105560303,-6.4675798416137695,-5.646549224853516
1766480068325446400,9.3844462890625,4.7128753662109375,-6.480988502502441,-5.652960300445557
1766480068335425500,9.394425537109376,4.689876556396484,-6.491302967071533,-5.660250663757324
1766480068375403500,9.434403564453126,4.614345550537109,-6.507162094116211,-5.70395040512085
1766480068385383000,9.4443828125,4.603199481964111,-6.508838176727295,-5.7110395431518555
1766480068395362000,9.454362060546876,4.586254596710205,-6.506422996520996,-5.727400302886963
1766480068405372000,9.464371826171876,4.573589324951172,-6.505720615386963,-5.738316535949707
1766480068415351000,9.47435107421875,4.558816909790039,-6.505448341369629,-5.7503662109375
1766480068425300000,9.484300048828125,4.544895648956299,-6.505266189575195,-5.76158332824707
1766480068435279000,9.494279052734376,4.529590606689453,-6.506642818450928,-5.772069454193115
1766480068475318300,9.534318359375,4.4981255531311035,-6.512060642242432,-5.790538311004639
1766480068485267000,9.544266845703126,4.4948320388793945,-6.512328624725342,-5.792793273925781
1766480068495276800,9.55427685546875,4.490743160247803,-6.516738414764404,-5.7910051345825195
1766480068505225500,9.5642255859375,4.486317157745361,-6.52293586730957,-5.787456512451172
1766480068515204600,9.57420458984375,4.479628086090088,-6.5296549797058105,-5.785060405731201
1766480068525184000,9.58418408203125,4.475905895233154,-6.536495685577393,-5.780214309692383
1766480068535163100,9.5941630859375,4.473704814910889,-6.542138576507568,-5.775533676147461
1766480068585181400,9.644181396484376,4.513876438140869,-6.52432107925415,-5.764420509338379
1766480068595160800,9.654160888671875,4.514961242675781,-6.523643970489502,-5.764337539672852
1766480068605170400,9.66417041015625,4.512834072113037,-6.5226664543151855,-5.767109394073486
1766480068615180300,9.67418017578125,4.506824970245361,-6.527215957641602,-5.766659736633301
1766480068625159400,9.684159423828126,4.512077331542969,-6.512344837188721,-5.779352188110352
1766480068635138800,9.694138916015625,4.514379024505615,-6.512173652648926,-5.77774715423584
1766480068645148400,9.7041484375,4.548936367034912,-6.483612537384033,-5.782762050628662
1766480068675116800,9.73411669921875,4.612196445465088,-6.429461479187012,-5.793103218078613
1766480068685126700,9.744126708984375,4.6180419921875,-6.41402530670166,-5.805545806884766
1766480068695136300,9.75413623046875,4.619701385498047,-6.396951198577881,-5.823037147521973
1766480068705115600,9.76411572265625,4.615629196166992,-6.37893009185791,-5.8459906578063965
1766480068715125200,9.774125244140626,4.609009742736816,-6.360410213470459,-5.871336460113525
1766480068725074000,9.784073974609376,4.601729393005371,-6.342545986175537,-5.896317958831787
1766480068735083800,9.794083740234376,4.596710205078125,-6.321612358093262,-5.922657489776611
1766480068745093600,9.80409375,4.595916748046875,-6.297893047332764,-5.948487281799316
1766480068795050800,9.85405078125,4.6377668380737305,-6.188845157623291,-6.029901027679443
1766480068805030100,9.864030029296876,4.658394813537598,-6.157002925872803,-6.046574592590332
1766480068815039700,9.874039794921876,4.686005592346191,-6.121488571166992,-6.061279773712158
1766480068825049600,9.884049560546876,4.699735164642334,-6.101332664489746,-6.0709662437438965
1766480068835059500,9.8940595703125,4.700451374053955,-6.089687824249268,-6.082091808319092
1766480068845038600,9.90403857421875,4.687485694885254,-6.084205627441406,-6.097565174102783
1766480068875037400,9.934037353515626,4.640905380249023,-6.085489273071289,-6.131817817687988
1766480068905036300,9.964036376953125,4.533627033233643,-6.116718769073486,-6.18080472946167
1766480068915046000,9.9740458984375,4.4807538986206055,-6.142396450042725,-6.193885326385498
1766480068924994800,9.983994873046875,4.431325435638428,-6.1724138259887695,-6.199601173400879
1766480068935035000,9.994034912109376,4.3838791847229,-6.2020463943481445,-6.203758716583252
1766480068945014300,10.00401416015625,4.346548557281494,-6.2272539138793945,-6.204771995544434
1766480068965003300,10.024003173828126,4.290306568145752,-6.264143466949463,-6.206784725189209
1766480068975013000,10.03401318359375,4.2624711990356445,-6.281162261962891,-6.208763599395752
1766480068984992300,10.0439921875,4.235320568084717,-6.296337604522705,-6.211970806121826
1766480068995002000,10.054002197265625,4.209254264831543,-6.309177398681641,-6.216658115386963
1766480069005011700,10.06401171875,4.18344783782959,-6.321584701538086,-6.221471786499023
1766480069015021600,10.074021484375,4.154311180114746,-6.331063747406006,-6.231348991394043
1766480069025000700,10.084000732421876,4.128578186035156,-6.336709499359131,-6.242703437805176
1766480069035010600,10.094010498046876,4.106557369232178,-6.3402814865112305,-6.253592491149902
1766480069044989700,10.10398974609375,4.097707271575928,-6.3418755531311035,-6.257779598236084
1766480069054999600,10.11399951171875,4.079080581665039,-6.346043586730957,-6.265717029571533
1766480069095008300,10.15400830078125,4.007058620452881,-6.349990367889404,-6.308048248291016
1766480069104987400,10.1639873046875,4.0070576667785645,-6.340105056762695,-6.317986011505127
1766480069114966500,10.173966552734376,4.016634941101074,-6.325685501098633,-6.326351642608643
1766480069124946000,10.18394580078125,4.031231880187988,-6.306064605712891,-6.336649417877197
1766480069134925000,10.193925048828126,4.0567169189453125,-6.279398441314697,-6.346857070922852
1766480069144935000,10.203934814453126,4.101839542388916,-6.241985321044922,-6.354755878448486
1766480069154944800,10.21394482421875,4.16880989074707,-6.194041728973389,-6.358087062835693
1766480069194861600,10.253861572265626,4.367067337036133,-6.07398796081543,-6.340803623199463
1766480069204841000,10.263841064453125,4.408248424530029,-6.054513931274414,-6.330924034118652
1766480069214850600,10.2738505859375,4.4588751792907715,-6.038791179656982,-6.31045389175415
1766480069224860400,10.2838603515625,4.494393825531006,-6.035274028778076,-6.288583755493164
1766480069234870300,10.293870361328125,4.515472412109375,-6.028571128845215,-6.279905796051025
1766480069244849400,10.303849365234376,4.582828998565674,-6.019553184509277,-6.239636421203613
1766480069254828800,10.313828857421875,4.634927749633789,-6.010925769805908,-6.209397315979004
1766480069264838400,10.32383837890625,4.700019359588623,-5.995429515838623,-6.175356864929199
1766480069284797000,10.343796875,4.771390914916992,-5.977811813354492,-6.1375885009765625
1766480069294776300,10.3537763671875,4.7871012687683105,-5.9718451499938965,-6.131161212921143
1766480069304786000,10.363785888671876,4.7944135665893555,-5.97177267074585,-6.125513553619385
1766480069314795800,10.373795654296876,4.79832649230957,-5.972605228424072,-6.12163782119751
1766480069324775000,10.38377490234375,4.79931116104126,-5.971394062042236,-6.122047424316406
1766480069334754300,10.39375439453125,4.800070285797119,-5.970771312713623,-6.122058868408203
1766480069344733400,10.4037333984375,4.796749591827393,-5.970402717590332,-6.125020503997803
1766480069354743300,10.413743408203125,4.794155597686768,-5.970231056213379,-6.127218246459961
1766480069364753000,10.4237529296875,4.788085460662842,-5.964345932006836,-6.137686252593994
1766480069424720100,10.48372021484375,4.874207496643066,-5.877345561981201,-6.15380334854126
1766480069434729700,10.493729736328126,4.876593589782715,-5.858813762664795,-6.169563293457031
1766480069444709000,10.503709228515625,4.857370376586914,-5.860462665557861,-6.183147430419922
1766480069454688300,10.513688232421876,4.843279838562012,-5.85853385925293,-6.196015357971191
1766480069464667600,10.523667724609375,4.864889621734619,-5.842935085296631,-6.193812847137451
1766480069474646800,10.533646728515626,4.905600547790527,-5.81450891494751,-6.1884541511535645
1766480069504584400,10.56358447265625,4.957859039306641,-5.768761157989502,-6.189621448516846
1766480069514594300,10.57359423828125,4.93009614944458,-5.785714626312256,-6.195969581604004
1766480069524573400,10.583573486328126,4.891758918762207,-5.8088483810424805,-6.204704761505127
1766480069534552800,10.593552734375,4.866201877593994,-5.82211971282959,-6.2123589515686035
1766480069544562700,10.603562744140625,4.807981014251709,-5.852766513824463,-6.2288713455200195
1766480069554572300,10.613572265625,4.744998455047607,-5.883647918701172,-6.248044490814209
1766480069564551700,10.6235517578125,4.680927753448486,-5.911772727966309,-6.269789218902588
1766480069574530800,10.63353076171875,4.582051753997803,-5.94962739944458,-6.306910991668701
1766480069614508800,10.6735087890625,4.3008832931518555,-6.0483574867248535,-6.410161972045898
1766480069624488200,10.68348828125,4.269053936004639,-6.058194160461426,-6.422138690948486
1766480069634467300,10.69346728515625,4.206707000732422,-6.077406406402588,-6.44508695602417
1766480069644446700,10.70344677734375,4.117016315460205,-6.0961103439331055,-6.4852142333984375
1766480069664405000,10.723405029296876,4.032284736633301,-6.1131672859191895,-6.522290229797363
1766480069674384400,10.73338427734375,3.9816555976867676,-6.118949890136719,-6.547921657562256
1766480069684363500,10.743363525390626,3.9351937770843506,-6.126141548156738,-6.569248676300049
1766480069714332000,10.773331787109376,3.8250279426574707,-6.142650604248047,-6.618714332580566
1766480069724311000,10.78331103515625,3.809641122817993,-6.143115997314453,-6.627152442932129
1766480069734321000,10.79332080078125,3.809718608856201,-6.139228820800781,-6.630708694458008
1766480069754310000,10.813309814453126,3.863372325897217,-6.1062235832214355,-6.630140781402588
1766480069764289000,10.8232890625,3.920921802520752,-6.0838942527771,-6.616872787475586
1766480069774268400,10.833268310546876,3.9824306964874268,-6.064465045928955,-6.597946643829346
1766480069784247600,10.84324755859375,4.045197010040283,-6.047664642333984,-6.575145244598389
1766480069794227000,10.85322705078125,4.101088047027588,-6.037614822387695,-6.549706935882568
1766480069824225500,10.8832255859375,4.236663341522217,-6.007299900054932,-6.491027355194092
1766480069834265900,10.893265869140626,4.242329120635986,-6.007579803466797,-6.487065315246582
1766480069844275700,10.903275634765626,4.2491960525512695,-6.00994873046875,-6.480373382568359
1766480069854254800,10.9132548828125,4.263510227203369,-6.012660980224609,-6.468444347381592
1766480069864234200,10.923234130859376,4.281953811645508,-6.016007423400879,-6.453132152557373
1766480069874243800,10.933243896484376,4.304106712341309,-6.014461040496826,-6.439822673797607
1766480069884223200,10.94322314453125,4.337494850158691,-6.004165172576904,-6.4270148277282715
1766480069894263600,10.953263671875,4.379493713378906,-5.992899417877197,-6.409023761749268
1766480069904242700,10.96324267578125,4.413271427154541,-5.9808526039123535,-6.397096157073975
1766480069924262400,10.983262451171875,4.444858074188232,-5.978655815124512,-6.377249717712402
1766480069934272000,10.99327197265625,4.44395112991333,-5.979815483093262,-6.376794338226318
1766480069944251400,11.00325146484375,4.445135116577148,-5.982354640960693,-6.373585224151611
1766480069954230500,11.01323046875,4.451438903808594,-5.98019552230835,-6.371211528778076
1766480069964240400,11.023240478515625,4.463554859161377,-5.974599361419678,-6.367985725402832
1766480069974250000,11.03325,4.477477550506592,-5.96613883972168,-6.3661417961120605
1766480069984229400,11.0432294921875,4.495438575744629,-5.949776649475098,-6.368798732757568
1766480069994239000,11.053239013671876,4.511920928955078,-5.9358086585998535,-6.370175361633301
1766480070004248800,11.063248779296876,4.522861003875732,-5.929937839508057,-6.367885112762451
1766480070014258700,11.0732587890625,4.53148889541626,-5.923427581787109,-6.3678107261657715
1766480070044257300,11.10325732421875,4.548391342163086,-5.899289608001709,-6.378157615661621
1766480070054297600,11.113297607421876,4.5536065101623535,-5.891452312469482,-6.381680965423584
1766480070064277000,11.123277099609375,4.553287029266357,-5.889699459075928,-6.383528232574463
1766480070074286600,11.13328662109375,4.553832530975342,-5.889205455780029,-6.383594989776611
1766480070084266000,11.143265869140626,4.555605411529541,-5.889261722564697,-6.38227653503418
1766480070094245000,11.1532451171875,4.560891151428223,-5.889769077301025,-6.378031253814697
1766480070104255000,11.1632548828125,4.565053939819336,-5.892009258270264,-6.372980117797852
1766480070114264800,11.173264892578125,4.574509143829346,-5.894894599914551,-6.363526344299316
1766480070124274400,11.1832744140625,4.587960720062256,-5.89575719833374,-6.353034496307373
1766480070134253800,11.19325390625,4.593903541564941,-5.89898681640625,-6.345737934112549
1766480070154273300,11.213273193359376,4.595160007476807,-5.905018329620361,-6.3392157554626465
1766480070164283100,11.223283203125,4.597571849822998,-5.908995151519775,-6.333759307861328
1766480070184272100,11.243272216796875,4.611800193786621,-5.89926290512085,-6.332486152648926
1766480070194251300,11.253251220703126,4.624938488006592,-5.893368244171143,-6.328392505645752
1766480070204261000,11.26326123046875,4.6470465660095215,-5.88914155960083,-6.316119194030762
1766480070214270700,11.273270751953126,4.6615705490112305,-5.884640693664551,-6.3096089363098145
1766480070234290400,11.29329052734375,4.683622360229492,-5.885040283203125,-6.292882919311523
1766480070264228000,11.32322802734375,4.6998610496521,-5.8972272872924805,-6.269321918487549
1766480070274268400,11.333268310546876,4.6994524002075195,-5.907018184661865,-6.260406017303467
1766480070284247600,11.34324755859375,4.701832294464111,-5.913944244384766,-6.252074718475342
1766480070294257400,11.35325732421875,4.70759916305542,-5.919044017791748,-6.242900848388672
1766480070304236500,11.363236572265626,4.714289665222168,-5.923811435699463,-6.233323574066162
1766480070314276900,11.37327685546875,4.728210926055908,-5.92416524887085,-6.222433090209961
1766480070324225500,11.3832255859375,4.778366565704346,-5.912769317626953,-6.19489860534668
1766480070344245200,11.403245361328125,4.8419623374938965,-5.898573398590088,-6.158945560455322
1766480070354254800,11.4132548828125,4.946788787841797,-5.871851444244385,-6.100905418395996
1766480070364234200,11.423234130859376,4.987293243408203,-5.856838226318359,-6.082329750061035
1766480070374274600,11.433274658203125,5.064795017242432,-5.8352556228637695,-6.038876533508301
1766480070384253700,11.443253662109376,5.135656833648682,-5.821402549743652,-5.992220401763916
1766480070394263600,11.453263671875,5.198338508605957,-5.818032264709473,-5.941226482391357
1766480070404242700,11.46324267578125,5.280093193054199,-5.834831237792969,-5.851985931396484
1766480070414283000,11.473282958984376,5.298255443572998,-5.844217777252197,-5.826147079467773
1766480070424292900,11.48329296875,5.342527866363525,-5.8684468269348145,-5.761001110076904
1766480070434302500,11.493302490234376,5.412560939788818,-5.909181594848633,-5.652978420257568
1766480070454291500,11.51329150390625,5.482850551605225,-5.959039211273193,-5.531599521636963
1766480070464270800,11.523270751953126,5.535150051116943,-5.991570472717285,-5.443674564361572
1766480070474311200,11.533311279296875,5.5896830558776855,-6.023492336273193,-5.351949214935303
1766480070484259800,11.543259765625,5.682898998260498,-6.066665172576904,-5.202945232391357
1766480070494300200,11.553300048828126,5.7501630783081055,-6.093443393707275,-5.096661567687988
1766480070504279300,11.563279296875,5.783942222595215,-6.1069183349609375,-5.042019367218018
1766480070514289200,11.5732890625,5.8475494384765625,-6.133618354797363,-4.935107231140137
1766480070524299000,11.583299072265625,5.903347969055176,-6.1626081466674805,-4.831474304199219
1766480070534308600,11.59330859375,5.976965427398682,-6.204547882080078,-4.685067653656006
1766480070544318500,11.603318359375,6.013473033905029,-6.242959976196289,-4.586282253265381
1766480070554328300,11.613328369140625,6.049289226531982,-6.2783966064453125,-4.4897918701171875
1766480070564277000,11.623277099609375,6.068704128265381,-6.293450355529785,-4.442264080047607
1766480070574256000,11.633256103515626,6.120753288269043,-6.299487590789795,-4.361562252044678
1766480070584266000,11.643265869140626,6.1817193031311035,-6.291317939758301,-4.286731243133545
1766480070594275600,11.653275634765626,6.238215923309326,-6.284911632537842,-4.2136616706848145
1766480070604285400,11.663285400390626,6.309902667999268,-6.286079406738281,-4.1037445068359375
1766480070614264800,11.673264892578125,6.356663227081299,-6.291706562042236,-4.0221428871154785
1766480070624274400,11.6832744140625,6.393139839172363,-6.2967119216918945,-3.95595383644104
1766480070644263400,11.703263427734376,6.436258316040039,-6.304714679718018,-3.8724069595336914
1766480070654273300,11.713273193359376,6.456369876861572,-6.313815593719482,-3.8237967491149902
1766480070664283100,11.723283203125,6.483485698699951,-6.329719066619873,-3.7509279251098633
1766480070674262300,11.73326220703125,6.494007110595703,-6.33354377746582,-3.7261881828308105
1766480070684272000,11.743272216796875,6.510385036468506,-6.344923973083496,-3.677936553955078
1766480070694251300,11.753251220703126,6.519115447998047,-6.373105049133301,-3.6131789684295654
1766480070704230700,11.763230712890625,6.520246982574463,-6.383176326751709,-3.5933034420013428
1766480070714240300,11.773240234375,6.509859561920166,-6.417759895324707,-3.5502755641937256
1766480070724250000,11.78325,6.506007194519043,-6.427756309509277,-3.539238691329956
1766480070734259700,11.793259765625,6.476556777954102,-6.467606067657471,-3.5206058025360107
1766480070754249000,11.8132490234375,6.413829803466797,-6.528412818908691,-3.5232083797454834
1766480070764228000,11.82322802734375,6.375682353973389,-6.556877136230469,-3.5395500659942627
1766480070774238000,11.833238037109375,6.3424530029296875,-6.571521759033203,-3.571943759918213
1766480070784247600,11.84324755859375,6.3036088943481445,-6.591052532196045,-3.6045711040496826
1766480070794257400,11.85325732421875,6.260484218597412,-6.616527557373047,-3.632943868637085
1766480070804267300,11.863267333984375,6.217082500457764,-6.642829418182373,-3.6593823432922363
1766480070814276900,11.87327685546875,6.174658298492432,-6.669155120849609,-3.683253049850464
1766480070824225500,11.8832255859375,6.154613494873047,-6.680849075317383,-3.695589780807495
1766480070834235400,11.8932353515625,6.100407600402832,-6.71556282043457,-3.722452402114868
1766480070894263600,11.953263671875,6.028170108795166,-6.775019645690918,-3.7323787212371826
1766480070904273200,11.963273193359376,6.034269332885742,-6.7719292640686035,-3.7281301021575928
1766480070914283000,11.973282958984376,6.052411079406738,-6.769892692565918,-3.7023324966430664
1766480070924262400,11.983262451171875,6.077922344207764,-6.758833885192871,-3.6806814670562744
1766480070934272000,11.99327197265625,6.108414173126221,-6.744837284088135,-3.6557931900024414
1766480070944281900,12.00328173828125,6.142642498016357,-6.734190464019775,-3.61787486076355
1766480070994300200,12.053300048828126,6.239367961883545,-6.726124286651611,-3.4640908241271973
1766480071004309800,12.063309814453126,6.246938228607178,-6.7255964279174805,-3.4514498710632324
1766480071014319600,12.073319580078126,6.2684807777404785,-6.714249134063721,-3.4344425201416016
1766480071024329500,12.08332958984375,6.281253814697266,-6.707895755767822,-3.423502206802368
1766480071034339000,12.093339111328126,6.2941365242004395,-6.699882507324219,-3.4155256748199463
1766480071044349000,12.103348876953126,6.3079833984375,-6.689892768859863,-3.4095559120178223
1766480071054358800,12.11335888671875,6.3113603591918945,-6.689847946166992,-3.4033899307250977
1766480071074347800,12.13334765625,6.337042331695557,-6.671290874481201,-3.3920738697052
1766480071104346600,12.1633466796875,6.363080024719238,-6.657614231109619,-3.3701305389404297
1766480071114356200,12.173356201171876,6.338916301727295,-6.6872124671936035,-3.357041120529175
1766480071124366000,12.183365966796876,6.32567834854126,-6.7057929039001465,-3.3449270725250244
1766480071134345200,12.19334521484375,6.310297966003418,-6.72559118270874,-3.3342106342315674
1766480071144294000,12.2032939453125,6.307358741760254,-6.730733871459961,-3.3293893337249756
1766480071154273300,12.213273193359376,6.311936378479004,-6.727110385894775,-3.328035354614258
1766480071164283100,12.223283203125,6.317769527435303,-6.721710205078125,-3.3278796672821045
1766480071214270700,12.273270751953126,6.289318084716797,-6.740219593048096,-3.3442940711975098
1766480071224280600,12.283280517578126,6.281084060668945,-6.7459611892700195,-3.348189353942871
1766480071234259700,12.293259765625,6.2622175216674805,-6.754167079925537,-3.3669354915618896
1766480071244269600,12.30326953125,6.249227523803711,-6.763511657714844,-3.3723084926605225
1766480071254279400,12.313279541015625,6.219798564910889,-6.77671480178833,-3.4000930786132812
1766480071264258600,12.323258544921876,6.207082271575928,-6.783688068389893,-3.409414768218994
1766480071304297700,12.363297607421876,6.085229396820068,-6.833377838134766,-3.5277912616729736
1766480071314276900,12.37327685546875,6.0466132164001465,-6.85005521774292,-3.56168532371521
1766480071324286700,12.38328662109375,6.00740385055542,-6.86619758605957,-3.5967800617218018
1766480071334296600,12.393296630859375,5.968906879425049,-6.880479335784912,-3.633392333984375
1766480071344275700,12.403275634765626,5.928001880645752,-6.895891189575195,-3.6709482669830322
1766480071354285600,12.41328564453125,5.875617504119873,-6.922098159790039,-3.7056801319122314
1766480071364295200,12.423295166015626,5.831742286682129,-6.938706398010254,-3.7437305450439453
1766480071404242700,12.46324267578125,5.700756549835205,-6.958388805389404,-3.9054572582244873
1766480071414252500,12.47325244140625,5.645328998565674,-6.9615302085876465,-3.9796664714813232
1766480071424262400,12.483262451171875,5.626133918762207,-6.962892532348633,-4.00438928604126
1766480071434241500,12.493241455078126,5.588395118713379,-6.961750030517578,-4.058850288391113
1766480071444251400,12.50325146484375,5.551296234130859,-6.956068515777588,-4.119054317474365
1766480071454261000,12.513260986328126,5.512838840484619,-6.948466777801514,-4.183038234710693
1766480071504218400,12.56321826171875,5.353830814361572,-6.838502883911133,-4.554310321807861
1766480071514228200,12.573228271484375,5.330530643463135,-6.811677932739258,-4.6213483810424805
1766480071524237800,12.58323779296875,5.304494380950928,-6.788818359375,-4.684513092041016
1766480071534217200,12.59321728515625,5.276747703552246,-6.769660472869873,-4.743207931518555
1766480071544196400,12.6031962890625,5.253014087677002,-6.750636577606201,-4.796367645263672
1766480071554236700,12.613236572265626,5.234682559967041,-6.725326061248779,-4.85164737701416
1766480071564246500,12.62324658203125,5.230494499206543,-6.690354824066162,-4.904228687286377
1766480071574256000,12.633256103515626,5.237423896789551,-6.647061347961426,-4.955435752868652
1766480071594245000,12.6532451171875,5.248356819152832,-6.580197811126709,-5.032508373260498
1766480071624213500,12.683213623046875,5.2235331535339355,-6.496615409851074,-5.165180206298828
1766480071634223000,12.69322314453125,5.211169242858887,-6.458672523498535,-5.22490930557251
1766480071644202500,12.703202392578126,5.208795547485352,-6.443220138549805,-5.246308326721191
1766480071654181600,12.713181640625,5.21337890625,-6.396202087402344,-5.2990241050720215
1766480071664191500,12.72319140625,5.216803073883057,-6.36592435836792,-5.332012176513672
1766480071674201300,12.733201416015625,5.216617584228516,-6.35162878036499,-5.349214553833008
1766480071684211000,12.7432109375,5.200729846954346,-6.315340995788574,-5.407333850860596
1766480071724250000,12.78325,5.150509834289551,-6.290686130523682,-5.4836039543151855
1766480071734229200,12.793229248046876,5.1266326904296875,-6.287562847137451,-5.509500503540039
1766480071744208600,12.803208740234375,5.118871212005615,-6.2867584228515625,-5.517627239227295
1766480071754218200,12.81321826171875,5.095658302307129,-6.294933319091797,-5.52977991104126
1766480071764228000,12.82322802734375,5.050095558166504,-6.316746234893799,-5.546678066253662
1766480071774238000,12.833238037109375,5.0149736404418945,-6.3339972496032715,-5.558858871459961
1766480071784247600,12.84324755859375,4.978761672973633,-6.353861331939697,-5.568731784820557
1766480071834265900,12.893265869140626,4.876082420349121,-6.457329273223877,-5.540495872497559
1766480071844275700,12.903275634765626,4.858081340789795,-6.487576007843018,-5.5209431648254395
1766480071854285600,12.91328564453125,4.845641136169434,-6.51841402053833,-5.495491981506348
1766480071864203800,12.923203857421875,4.843698978424072,-6.550552845001221,-5.458865642547607
1766480071874213400,12.93321337890625,4.844099521636963,-6.5898613929748535,-5.410989761352539
1766480071884192800,12.94319287109375,4.835381984710693,-6.632901191711426,-5.366013526916504
1766480071914222000,12.97322216796875,4.784440994262695,-6.76374626159668,-5.24702262878418
1766480071934180600,12.9931806640625,4.698014736175537,-6.9035468101501465,-5.141993522644043
1766480071944190200,13.003190185546876,4.677909851074219,-6.931097030639648,-5.123223781585693
1766480071954169600,13.013169677734375,4.656036853790283,-6.965629577636719,-5.096245765686035
1766480071964179200,13.02317919921875,4.6222734451293945,-7.008391857147217,-5.068275451660156
