time,seconds_elapsed,z,y,x
1766480055005074200,-3.93592578125,-0.012217304669320583,-0.042760565876960754,0.00366519158706069
1766480055025124400,-3.915875732421875,0.04642575979232788,-0.025656340643763542,-0.00366519158706069
1766480055035134000,-3.905865966796875,0.03420845419168472,-0.004886921960860491,-0.01466076634824276
1766480055045113300,-3.89588671875,0,0.03176499158143997,-0.028099801391363144
1766480055065071900,-3.87592822265625,-0.10995574295520782,0.018325956538319588,0.21380282938480377
1766480055075051000,-3.865948974609375,-0.12339477986097336,0.010995574295520782,0.28955012559890747
1766480055085030100,-3.855969970703125,-0.11728613078594208,-0.013439035043120384,0.28955012559890747
1766480055095009500,-3.845990478515625,-0.06841690838336945,0.019547687843441963,0.14905111491680145
1766480055104988700,-3.83601123046875,-0.05009094998240471,0.0806342139840126,-0.01466076634824276
1766480055124977700,-3.816022216796875,0.02076941914856434,0.10506882518529892,-0.09407325088977814
1766480055144997400,-3.796002685546875,-0.03787364438176155,0.1258382350206375,-0.13072516024112701
1766480055154976500,-3.7860234375,-0.042760565876960754,0.1062905490398407,-0.11362093687057495
1766480055164956000,-3.776044189453125,-0.028099801391363144,0.05253441259264946,-0.03176499158143997
1766480055174996000,-3.766004150390625,-0.013439035043120384,-0.004886921960860491,0.06108652427792549
1766480055184975400,-3.756024658203125,-0.019547687843441963,-0.01710422709584236,0.02932153269648552
1766480055195015700,-3.745984375,-0.042760565876960754,-0.01466076634824276,-0.04153883829712868
1766480055204994800,-3.736005126953125,-0.04886921867728233,-0.01466076634824276,-0.06230825558304787
1766480055215035100,-3.72596484375,-0.02932153269648552,-0.013439035043120384,-0.059864792972803116
1766480055225014300,-3.71598583984375,-0.019547687843441963,-0.009773843921720982,-0.03787364438176155
1766480055245003300,-3.695996826171875,-0.024434609338641167,0,-0.025656340643763542
1766480055255043600,-3.685956298828125,-0.00733038317412138,-0.0012217304902151227,-0.015882495790719986
1766480055265053400,-3.675946533203125,0.0024434609804302454,0.0012217304902151227,-0.01466076634824276
1766480055275032600,-3.665967529296875,-0.006108652334660292,0.0024434609804302454,-0.012217304669320583
1766480055285012000,-3.655988037109375,-0.00733038317412138,0.00855211354792118,-0.025656340643763542
1766480055295021800,-3.645978271484375,0.0012217304902151227,0.00733038317412138,-0.03176499158143997
1766480055305031400,-3.635968505859375,-0.00366519158706069,0.00855211354792118,-0.03176499158143997
1766480055315041300,-3.625958740234375,-0.01466076634824276,0.01466076634824276,-0.039095375686883926
1766480055325020400,-3.6159794921875,-0.013439035043120384,0.019547687843441963,-0.036651913076639175
1766480055335030300,-3.6059697265625,-0.01466076634824276,0.02321287989616394,-0.03176499158143997
1766480055345009400,-3.595990478515625,-0.02321287989616394,0.021991148591041565,-0.0354301854968071
1766480055374977800,-3.566022216796875,-0.03176499158143997,0.02321287989616394,0.0024434609804302454
1766480055384987600,-3.556012451171875,-0.039095375686883926,0.024434609338641167,0.006108652334660292
1766480055394997200,-3.546002685546875,-0.0403171069920063,0.025656340643763542,-0.00366519158706069
1766480055404976600,-3.5360234375,-0.039095375686883926,0.02076941914856434,-0.0012217304902151227
1766480055415016700,-3.5259833984375,-0.039095375686883926,0.02076941914856434,-0.004886921960860491
1766480055424965600,-3.516034423828125,-0.0403171069920063,0.028099801391363144,-0.03420845419168472
1766480055434944800,-3.50605517578125,-0.019547687843441963,0.03420845419168472,-0.051312681287527084
1766480055454933800,-3.486066162109375,0.004886921960860491,0.042760565876960754,-0.04398229718208313
1766480055464913200,-3.4760869140625,0.0012217304902151227,0.04153883829712868,-0.05497787147760391
1766480055474922800,-3.4660771484375,0.0012217304902151227,0.036651913076639175,-0.05619960278272629
1766480055484902100,-3.456097900390625,0.00366519158706069,0.03176499158143997,-0.05497787147760391
1766480055494911700,-3.446088134765625,0,0.02076941914856434,-0.039095375686883926
1766480055504891100,-3.43610888671875,0,0.02076941914856434,-0.039095375686883926
1766480055514870300,-3.426129638671875,-0.006108652334660292,0.01466076634824276,-0.018325956538319588
1766480055524849700,-3.416150390625,-0.004886921960860491,0.02076941914856434,-0.012217304669320583
1766480055534890000,-3.406110107421875,-0.010995574295520782,0.021991148591041565,-0.009773843921720982
1766480055544838700,-3.396161376953125,-0.009773843921720982,0.024434609338641167,-0.025656340643763542
1766480055554848300,-3.38615185546875,0.004886921960860491,0.01710422709584236,-0.02076941914856434
1766480055574837200,-3.366162841796875,0.00855211354792118,0.0024434609804302454,-0.009773843921720982
1766480055584816600,-3.356183349609375,0.009773843921720982,-0.009773843921720982,-0.015882495790719986
1766480055594826500,-3.346173583984375,0.006108652334660292,-0.018325956538319588,-0.009773843921720982
1766480055604836000,-3.336163818359375,-0.00366519158706069,-0.013439035043120384,-0.019547687843441963
1766480055614846000,-3.326154052734375,-0.004886921960860491,-0.00855211354792118,-0.0354301854968071
1766480055624825000,-3.3161748046875,-0.0012217304902151227,-0.006108652334660292,-0.02321287989616394
1766480055634804500,-3.306195556640625,-0.00733038317412138,-0.010995574295520782,-0.01466076634824276
1766480055644814000,-3.29618603515625,-0.015882495790719986,-0.00733038317412138,-0.025656340643763542
1766480055654824000,-3.286176025390625,-0.02076941914856434,-0.0012217304902151227,-0.0354301854968071
1766480055674813000,-3.26618701171875,-0.021991148591041565,0.004886921960860491,-0.039095375686883926
1766480055694802000,-3.246197998046875,0.012217304669320583,0.006108652334660292,-0.013439035043120384
1766480055704781300,-3.23621875,0.0354301854968071,0.010995574295520782,-0.009773843921720982
1766480055714791000,-3.226208984375,0.0403171069920063,0.010995574295520782,-0.0024434609804302454
1766480055724770300,-3.216229736328125,0.03420845419168472,0.006108652334660292,0.00366519158706069
1766480055744728800,-3.196271240234375,0.012217304669320583,0.010995574295520782,-0.019547687843441963
1766480055754708000,-3.1862919921875,0,0.015882495790719986,-0.02687807008624077
1766480055764687000,-3.17631298828125,0.0012217304902151227,0.021991148591041565,-0.036651913076639175
1766480055784706800,-3.156293212890625,-0.0012217304902151227,0.01466076634824276,-0.0403171069920063
1766480055804726300,-3.136273681640625,0,0.013439035043120384,-0.039095375686883926
1766480055814736100,-3.126263916015625,0.00366519158706069,0.009773843921720982,-0.024434609338641167
1766480055824745700,-3.116254150390625,0.012217304669320583,0.00366519158706069,0
1766480055834755600,-3.106244384765625,0.010995574295520782,0.00366519158706069,0.010995574295520782
1766480055844734700,-3.096265380859375,0.00366519158706069,0.006108652334660292,-0.0012217304902151227
1766480055854744600,-3.08625537109375,-0.00366519158706069,0.006108652334660292,-0.00733038317412138
1766480055864724000,-3.076276123046875,-0.004886921960860491,0.006108652334660292,0.00366519158706069
1766480055874764000,-3.066236083984375,-0.004886921960860491,0,0.006108652334660292
1766480055884743400,-3.056256591796875,-0.006108652334660292,-0.00855211354792118,0.00855211354792118
1766480055894753000,-3.0462470703125,-0.013439035043120384,-0.00855211354792118,0.0012217304902151227
1766480055904732400,-3.036267578125,-0.01466076634824276,-0.00366519158706069,-0.015882495790719986
1766480055914742300,-3.0262578125,-0.015882495790719986,0.00733038317412138,-0.028099801391363144
1766480055924752000,-3.016248046875,-0.019547687843441963,0.01466076634824276,-0.03176499158143997
1766480055934731300,-3.006268798828125,-0.00366519158706069,0.013439035043120384,-0.018325956538319588
1766480055944710400,-2.99628955078125,0.004886921960860491,0.00733038317412138,0
1766480055954720300,-2.98627978515625,0.00366519158706069,0.006108652334660292,0
1766480055964699400,-2.976300537109375,-0.004886921960860491,0.004886921960860491,-0.010995574295520782
1766480055974709200,-2.966290771484375,-0.009773843921720982,0.00366519158706069,-0.01466076634824276
1766480056004708000,-2.9362919921875,-0.0012217304902151227,0.006108652334660292,0.013439035043120384
1766480056014717700,-2.9262822265625,-0.00733038317412138,0.009773843921720982,0.00855211354792118
1766480056024697000,-2.916302978515625,-0.006108652334660292,0.010995574295520782,-0.009773843921720982
1766480056034706700,-2.906293212890625,0.006108652334660292,0.013439035043120384,-0.013439035043120384
1766480056044716500,-2.896283447265625,0.012217304669320583,0.01710422709584236,-0.015882495790719986
1766480056054726400,-2.886273681640625,0.00855211354792118,0.019547687843441963,-0.030543262138962746
1766480056064736000,-2.876263916015625,0.015882495790719986,0.018325956538319588,-0.03787364438176155
1766480056074715400,-2.86628466796875,0.012217304669320583,0.010995574295520782,-0.030543262138962746
1766480056084755700,-2.856244384765625,0,0.006108652334660292,-0.039095375686883926
1766480056114754300,-2.82624560546875,0,-0.009773843921720982,-0.024434609338641167
1766480056124633600,-2.816366455078125,0.00733038317412138,-0.00366519158706069,-0.010995574295520782
1766480056134613000,-2.806386962890625,0.01466076634824276,0.00855211354792118,0.0012217304902151227
1766480056144592100,-2.796407958984375,0.01466076634824276,0.00855211354792118,0.0012217304902151227
1766480056154571300,-2.7864287109375,0.018325956538319588,0.015882495790719986,0.00366519158706069
1766480056164581000,-2.7764189453125,0.018325956538319588,0.015882495790719986,-0.006108652334660292
1766480056174591000,-2.766408935546875,0.012217304669320583,0.018325956538319588,-0.012217304669320583
1766480056184570000,-2.756429931640625,-0.0024434609804302454,0.02076941914856434,-0.019547687843441963
1766480056224548000,-2.716451904296875,0.004886921960860491,-0.00733038317412138,0.030543262138962746
1766480056234588400,-2.70641162109375,0.004886921960860491,0,0.025656340643763542
1766480056244598300,-2.696401611328125,0,0,0.009773843921720982
1766480056254608000,-2.68639208984375,-0.00733038317412138,0.006108652334660292,-0.00366519158706069
1766480056264556800,-2.676443115234375,-0.00855211354792118,0.00855211354792118,-0.00733038317412138
1766480056274566400,-2.66643359375,-0.0024434609804302454,0.013439035043120384,-0.009773843921720982
1766480056284576300,-2.656423828125,0.00733038317412138,0.018325956538319588,-0.013439035043120384
1766480056294586000,-2.646413818359375,0.01710422709584236,0.013439035043120384,-0.009773843921720982
1766480056324584700,-2.616415283203125,0.012217304669320583,0.01710422709584236,-0.03176499158143997
1766480056334594600,-2.606405517578125,0.006108652334660292,0.015882495790719986,-0.030543262138962746
1766480056344543200,-2.596456787109375,0.006108652334660292,0.018325956538319588,-0.01466076634824276
1766480056354553000,-2.586447021484375,0.010995574295520782,0.019547687843441963,-0.006108652334660292
1766480056364562700,-2.576437255859375,0.015882495790719986,0.018325956538319588,-0.012217304669320583
1766480056374603000,-2.56639697265625,0.010995574295520782,0.013439035043120384,-0.018325956538319588
1766480056384552000,-2.556447998046875,0.00366519158706069,0.00855211354792118,-0.01466076634824276
1766480056394531000,-2.546468994140625,0.004886921960860491,0.00366519158706069,0.0024434609804302454
1766480056404541000,-2.536458984375,0.006108652334660292,-0.0024434609804302454,0.01710422709584236
1766480056424530000,-2.516469970703125,0,-0.0012217304902151227,0.0024434609804302454
1766480056434509000,-2.506490966796875,-0.00366519158706069,-0.0012217304902151227,0.0012217304902151227
1766480056444519000,-2.496481201171875,-0.004886921960860491,-0.00366519158706069,0
1766480056454528500,-2.486471435546875,-0.00366519158706069,-0.006108652334660292,0.006108652334660292
1766480056464508000,-2.4764921875,-0.00733038317412138,-0.00733038317412138,0.004886921960860491
1766480056474517800,-2.466482177734375,-0.01710422709584236,-0.00733038317412138,-0.00855211354792118
1766480056484497000,-2.456503173828125,-0.021991148591041565,-0.010995574295520782,-0.015882495790719986
1766480056494537200,-2.446462890625,-0.02076941914856434,-0.012217304669320583,-0.010995574295520782
1766480056504516400,-2.436483642578125,-0.010995574295520782,-0.01710422709584236,0.00366519158706069
1766480056534545700,-2.406454345703125,-0.01466076634824276,-0.0024434609804302454,0.013439035043120384
1766480056544555500,-2.396444580078125,-0.009773843921720982,0.00366519158706069,0.00855211354792118
1766480056554534700,-2.38646533203125,-0.0012217304902151227,0.00855211354792118,0.00733038317412138
1766480056564514000,-2.37648583984375,0.0024434609804302454,0.010995574295520782,0.004886921960860491
1766480056574523600,-2.366476318359375,0.0012217304902151227,0.00855211354792118,0.00366519158706069
1766480056584503000,-2.3564970703125,0,0.00733038317412138,0.0024434609804302454
1766480056594482200,-2.346517822265625,0.00366519158706069,0.00366519158706069,0.012217304669320583
1766480056604492000,-2.336508056640625,-0.0012217304902151227,-0.00366519158706069,0.02687807008624077
1766480056614502000,-2.326498046875,-0.00855211354792118,-0.0024434609804302454,0.03176499158143997
1766480056634491000,-2.306509033203125,-0.018325956538319588,-0.0024434609804302454,0.018325956538319588
1766480056644470000,-2.296530029296875,-0.02321287989616394,-0.0024434609804302454,0.015882495790719986
1766480056654449400,-2.286550537109375,-0.024434609338641167,-0.00733038317412138,0.010995574295520782
1766480056664428500,-2.276571533203125,-0.02076941914856434,-0.010995574295520782,0.006108652334660292
1766480056674438400,-2.2665615234375,-0.018325956538319588,-0.009773843921720982,0
1766480056694457900,-2.246542236328125,0,0,0.0012217304902151227
1766480056714477300,-2.226522705078125,0.00366519158706069,0.01466076634824276,-0.045204028487205505
1766480056724456700,-2.216543212890625,0.0024434609804302454,0.006108652334660292,-0.02321287989616394
1766480056744476200,-2.19652392578125,-0.004886921960860491,-0.00366519158706069,0
1766480056754516500,-2.1864833984375,-0.0012217304902151227,-0.009773843921720982,-0.0024434609804302454
1766480056764495600,-2.17650439453125,0.00366519158706069,-0.00855211354792118,-0.006108652334660292
1766480056774536000,-2.166464111328125,0.00366519158706069,-0.0012217304902151227,-0.004886921960860491
1766480056784545800,-2.1564541015625,0.004886921960860491,0.00733038317412138,-0.004886921960860491
1766480056794555400,-2.146444580078125,0.004886921960860491,0.00733038317412138,-0.004886921960860491
1766480056804565200,-2.136434814453125,0.006108652334660292,0.012217304669320583,-0.00366519158706069
1766480056814575000,-2.1264248046875,0.009773843921720982,0.015882495790719986,-0.00366519158706069
1766480056824554200,-2.11644580078125,0.015882495790719986,0.010995574295520782,0.006108652334660292
1766480056904571400,-2.0364287109375,-0.01466076634824276,0.0012217304902151227,0
1766480056923591000,-2.0174091796875,-0.004886921960860491,0.004886921960860491,0.01466076634824276
1766480056933600800,-2.007399169921875,-0.00855211354792118,0.006108652334660292,0.025656340643763542
1766480056983619000,-1.957380859375,0.015882495790719986,-0.00855211354792118,0.010995574295520782
1766480057003638500,-1.937361572265625,0.03420845419168472,-0.004886921960860491,-0.00366519158706069
1766480057013648400,-1.9273515625,0.03176499158143997,0.00366519158706069,-0.02687807008624077
1766480057023658000,-1.917342041015625,0.030543262138962746,0.009773843921720982,-0.05009094998240471
1766480057033667800,-1.907332275390625,0.018325956538319588,0.01466076634824276,-0.06963863968849182
1766480057043677400,-1.897322509765625,-0.009773843921720982,0.013439035043120384,-0.08674286305904388
1766480057053687300,-1.887312744140625,-0.030543262138962746,0.00366519158706069,-0.07941248267889023
1766480057063666700,-1.877333251953125,-0.02687807008624077,-0.00366519158706069,-0.05864306539297104
1766480057073706800,-1.867293212890625,-0.028099801391363144,-0.013439035043120384,-0.0403171069920063
1766480057083716600,-1.857283447265625,-0.0354301854968071,-0.00855211354792118,-0.028099801391363144
1766480057113715500,-1.827284423828125,0.00366519158706069,0.0024434609804302454,-0.00733038317412138
1766480057133704400,-1.807295654296875,0.02321287989616394,0.0024434609804302454,0.0354301854968071
1766480057143683600,-1.79731640625,0.015882495790719986,0.009773843921720982,0.0354301854968071
1766480057153693400,-1.787306640625,0.012217304669320583,0.018325956538319588,0.025656340643763542
1766480057163672600,-1.777327392578125,0.010995574295520782,0.02687807008624077,0.024434609338641167
1766480057173682400,-1.767317626953125,0.01466076634824276,0.018325956538319588,0.02932153269648552
1766480057183692300,-1.7573076171875,0.01710422709584236,0.012217304669320583,0.0354301854968071
1766480057203681300,-1.737318603515625,-0.009773843921720982,0.00733038317412138,0.010995574295520782
1766480057213721600,-1.7272783203125,-0.00733038317412138,-0.0012217304902151227,0.01710422709584236
1766480057223761700,-1.71723828125,-0.010995574295520782,-0.004886921960860491,0.025656340643763542
1766480057243751000,-1.6972490234375,0.00733038317412138,-0.010995574295520782,0.0024434609804302454
1766480057253791000,-1.687208984375,0.018325956538319588,-0.010995574295520782,0.013439035043120384
1766480057263770400,-1.677229736328125,0.02076941914856434,-0.0012217304902151227,0.028099801391363144
1766480057273780200,-1.6672197265625,0.018325956538319588,0.00855211354792118,0.02687807008624077
1766480057283759400,-1.65724072265625,0.01710422709584236,0.013439035043120384,0.021991148591041565
1766480057293738500,-1.647261474609375,0.01466076634824276,0.00733038317412138,0.03420845419168472
1766480057313758200,-1.62724169921875,0.00366519158706069,0,0.015882495790719986
1766480057323767800,-1.617232177734375,0.00366519158706069,0,0.004886921960860491
1766480057333777700,-1.607222412109375,0.013439035043120384,0.0024434609804302454,-0.00733038317412138
1766480057343787500,-1.59721240234375,0.013439035043120384,0.00733038317412138,-0.036651913076639175
1766480057353766700,-1.5872333984375,0.00855211354792118,0.00855211354792118,-0.06352998316287994
1766480057363746000,-1.57725390625,-0.0012217304902151227,0.004886921960860491,-0.06230825558304787
1766480057373755600,-1.567244384765625,-0.013439035043120384,0.0012217304902151227,-0.05619960278272629
1766480057383735000,-1.557264892578125,-0.02321287989616394,0,-0.05864306539297104
1766480057393744600,-1.54725537109375,-0.0403171069920063,-0.0012217304902151227,-0.04764748737215996
1766480057413703200,-1.527296875,-0.059864792972803116,0.006108652334660292,-0.03176499158143997
1766480057433722600,-1.50727734375,-0.03298672288656235,0.012217304669320583,-0.03298672288656235
1766480057443732500,-1.497267578125,-0.03298672288656235,0.012217304669320583,-0.03298672288656235
1766480057453742300,-1.487257568359375,-0.021991148591041565,0.00733038317412138,-0.05375614017248154
1766480057463721500,-1.477278564453125,-0.02321287989616394,0.009773843921720982,-0.09773843735456467
1766480057473731300,-1.4672685546875,-0.024434609338641167,0.01710422709584236,-0.15027284622192383
1766480057483710500,-1.45728955078125,-0.021991148591041565,0.03176499158143997,-0.20036379992961884
1766480057493720300,-1.44727978515625,-0.004886921960860491,0.04886921867728233,-0.23579397797584534
1766480057553687300,-1.387312744140625,0.46792277693748474,-0.39217549562454224,-0.4043927788734436
1766480057563697200,-1.377302734375,0.20402899384498596,-0.27488934993743896,-0.2932153046131134
1766480057573706800,-1.367293212890625,0.1661553531885147,-0.16737708449363708,-0.2626720666885376
1766480057583686100,-1.35731396484375,0.2480112910270691,-0.19792033731937408,-0.28588494658470154
1766480057593695700,-1.34730419921875,0.26022860407829285,-0.25045475363731384,-0.28588494658470154
1766480057603675100,-1.337324951171875,0.31520646810531616,-0.23945917189121246,-0.2968805134296417
1766480057633704400,-1.307295654296875,0.3286454975605011,-0.18081611394882202,-0.17104226350784302
1766480057643653000,-1.297346923828125,0.3078760802745819,-0.16859880089759827,-0.1062905490398407
1766480057653663000,-1.2873369140625,0.2834414839744568,-0.15027284622192383,-0.06108652427792549
1766480057663672600,-1.277327392578125,0.2480112910270691,-0.11972958594560623,-0.05009094998240471
1766480057673652000,-1.26734814453125,0.2223549485206604,-0.1014036312699318,-0.06108652427792549
1766480057683631000,-1.257368896484375,0.1966986060142517,-0.08796459436416626,-0.051312681287527084
1766480057703620000,-1.2373798828125,0.13927727937698364,-0.051312681287527084,0.01466076634824276
1766480057713599500,-1.227400390625,0.1062905490398407,-0.03787364438176155,0.04764748737215996
1766480057733588500,-1.20741162109375,0.06963863968849182,-0.0012217304902151227,0.059864792972803116
1766480057743567600,-1.197432373046875,0.06230825558304787,-0.0012217304902151227,0.05009094998240471
1766480057753547000,-1.187452880859375,0.0806342139840126,-0.010995574295520782,0.024434609338641167
1766480057763526100,-1.177473876953125,0.07208210229873657,-0.02076941914856434,0.006108652334660292
1766480057773536000,-1.167464111328125,0.08185594528913498,-0.0354301854968071,0.00733038317412138
1766480057783484700,-1.157515380859375,0.09896016865968704,-0.05009094998240471,0.009773843921720982
1766480057793494500,-1.14750537109375,0.11239920556545258,-0.045204028487205505,0.012217304669320583
1766480057803473700,-1.1375263671875,0.1270599663257599,-0.045204028487205505,0.02076941914856434
1766480057813514000,-1.127486083984375,0.12950342893600464,-0.0354301854968071,0.028099801391363144
1766480057833472500,-1.107527587890625,0.1258382350206375,-0.024434609338641167,-0.04886921867728233
1766480057843451600,-1.09754833984375,0.12461651116609573,-0.021991148591041565,-0.08307767659425735
1766480057853461500,-1.08753857421875,0.1258382350206375,-0.019547687843441963,-0.10873401165008545
1766480057863471400,-1.077528564453125,0.13316862285137177,-0.02687807008624077,-0.11972958594560623
1766480057873481000,-1.06751904296875,0.13927727937698364,-0.02932153269648552,-0.1160643994808197
1766480057883460400,-1.05753955078125,0.15393804013729095,-0.009773843921720982,-0.11362093687057495
1766480057893470000,-1.047530029296875,0.1661553531885147,0.009773843921720982,-0.10873401165008545
1766480057903449300,-1.037550537109375,0.15393804013729095,0.028099801391363144,-0.10018189996480942
1766480057913459000,-1.027541015625,0.1417207419872284,0.04886921867728233,-0.09529497474431992
1766480057923468800,-1.01753125,0.13805554807186127,0.06475171446800232,-0.10018189996480942
1766480057953467600,-0.987532470703125,0.10751228034496307,0.0757472887635231,-0.09040805697441101
1766480057963416300,-0.977583740234375,0.09773843735456467,0.09529497474431992,-0.051312681287527084
1766480057973426200,-0.96757373046875,0.08429940044879913,0.1160643994808197,0.009773843921720982
1766480057983405300,-0.9575947265625,0.0659734457731247,0.14294247329235077,0.05619960278272629
1766480057993384700,-0.947615234375,0.039095375686883926,0.16982053220272064,0.06841690838336945
1766480058003333400,-0.93766650390625,-0.0012217304902151227,0.17470745742321014,0.051312681287527084
1766480058013373700,-0.927626220703125,-0.03298672288656235,0.16371189057826996,0.018325956538319588
1766480058053382100,-0.887617919921875,-0.09529497474431992,0.08796459436416626,-0.0708603709936142
1766480058063361300,-0.877638671875,-0.10873401165008545,0.07696902006864548,-0.02076941914856434
1766480058073371100,-0.86762890625,-0.10873401165008545,0.07696902006864548,-0.02076941914856434
1766480058083350500,-0.8576494140625,-0.13316862285137177,0.06352998316287994,0.0012217304902151227
1766480058093329700,-0.84767041015625,-0.13316862285137177,0.06352998316287994,0.0012217304902151227
1766480058103308800,-0.837691162109375,-0.13927727937698364,0.045204028487205505,0.00855211354792118
1766480058113318700,-0.827681396484375,-0.15271630883216858,0.01710422709584236,0.015882495790719986
1766480058123298000,-0.817701904296875,-0.15882496535778046,-0.006108652334660292,0.018325956538319588
1766480058143287000,-0.797712890625,-0.14905111491680145,-0.04886921867728233,0.036651913076639175
1766480058153296600,-0.787703369140625,-0.1612684279680252,-0.059864792972803116,0.00855211354792118
1766480058163276000,-0.777723876953125,-0.16737708449363708,-0.06108652427792549,-0.013439035043120384
1766480058173285600,-0.76771435546875,-0.17470745742321014,-0.059864792972803116,-0.012217304669320583
1766480058183265000,-0.75773486328125,-0.18325957655906677,-0.051312681287527084,0.010995574295520782
1766480058193274600,-0.747725341796875,-0.1820378452539444,-0.039095375686883926,0.03298672288656235
1766480058203254000,-0.73774609375,-0.1869247704744339,-0.028099801391363144,0.024434609338641167
1766480058213263600,-0.727736328125,-0.1869247704744339,-0.021991148591041565,0.0024434609804302454
1766480058223243000,-0.717757080078125,-0.18325957655906677,-0.02321287989616394,-0.00733038317412138
1766480058263251500,-0.67774853515625,-0.13927727937698364,-0.03420845419168472,0.02321287989616394
1766480058273291800,-0.667708251953125,-0.1270599663257599,-0.036651913076639175,-0.0024434609804302454
1766480058283271200,-0.657728759765625,-0.10873401165008545,-0.039095375686883926,-0.02321287989616394
1766480058293280800,-0.64771923828125,-0.08796459436416626,-0.03787364438176155,-0.03298672288656235
1766480058303260200,-0.63773974609375,-0.0708603709936142,-0.03298672288656235,-0.036651913076639175
1766480058313269800,-0.627730224609375,-0.059864792972803116,-0.019547687843441963,-0.03420845419168472
1766480058323249200,-0.617750732421875,-0.03787364438176155,-0.00855211354792118,-0.028099801391363144
1766480058333258800,-0.6077412109375,-0.025656340643763542,-0.00855211354792118,-0.02687807008624077
1766480058383216000,-0.557783935546875,0,0.01710422709584236,-0.036651913076639175
1766480058393256400,-0.54774365234375,-0.009773843921720982,0.03787364438176155,-0.0012217304902151227
1766480058403235600,-0.537764404296875,-0.019547687843441963,0.05009094998240471,0.04886921867728233
1766480058413215000,-0.527784912109375,-0.02932153269648552,0.06719517707824707,0.07696902006864548
1766480058423224600,-0.517775390625,-0.03176499158143997,0.07941248267889023,0.06841690838336945
1766480058433204000,-0.507796142578125,-0.02932153269648552,0.08307767659425735,0.04398229718208313
1766480058463202800,-0.477797119140625,-0.0024434609804302454,0.04398229718208313,0.00855211354792118
1766480058483191800,-0.45780810546875,0.018325956538319588,0.02076941914856434,0.009773843921720982
1766480058493201400,-0.447798583984375,0.024434609338641167,0.01466076634824276,0.01466076634824276
1766480058503150300,-0.437849609375,0.030543262138962746,0.012217304669320583,-0.00366519158706069
1766480058513190400,-0.4278095703125,0.03787364438176155,0.00733038317412138,-0.02076941914856434
1766480058523169800,-0.417830322265625,0.0403171069920063,0.0024434609804302454,-0.01466076634824276
1766480058543128300,-0.39787158203125,0.036651913076639175,-0.02321287989616394,0.03420845419168472
1766480058563117300,-0.377882568359375,0.051312681287527084,-0.0403171069920063,-0.02321287989616394
1766480058573127000,-0.367873046875,0.059864792972803116,-0.05009094998240471,-0.036651913076639175
1766480058583136800,-0.35786328125,0.06230825558304787,-0.05619960278272629,-0.030543262138962746
1766480058593146600,-0.347853271484375,0.06352998316287994,-0.05864306539297104,-0.012217304669320583
1766480058603156200,-0.33784375,0.06841690838336945,-0.05864306539297104,-0.012217304669320583
1766480058613166000,-0.327833984375,0.07330382615327835,-0.05742133408784866,-0.03420845419168472
1766480058623145200,-0.317854736328125,0.0757472887635231,-0.05497787147760391,-0.051312681287527084
1766480058633124600,-0.30787548828125,0.06841690838336945,-0.05375614017248154,-0.045204028487205505
1766480058643134500,-0.297865478515625,0.05742133408784866,-0.05497787147760391,-0.025656340643763542
1766480058663123500,-0.27787646484375,0.05009094998240471,-0.051312681287527084,-0.036651913076639175
1766480058683143000,-0.257857177734375,0.059864792972803116,-0.042760565876960754,-0.042760565876960754
1766480058693183200,-0.247816650390625,0.06352998316287994,-0.03787364438176155,-0.03420845419168472
1766480058703162400,-0.237837646484375,0.06352998316287994,-0.03787364438176155,-0.03420845419168472
1766480058713172200,-0.227827880859375,0.06841690838336945,-0.036651913076639175,-0.021991148591041565
1766480058723182000,-0.21781787109375,0.07452555745840073,-0.04153883829712868,-0.010995574295520782
1766480058733191700,-0.207808349609375,0.0806342139840126,-0.04886921867728233,-0.00855211354792118
1766480058743201500,-0.197798583984375,0.07819075137376785,-0.045204028487205505,-0.00855211354792118
1766480058783210000,-0.1577900390625,0.05253441259264946,-0.042760565876960754,-0.015882495790719986
1766480058793219800,-0.1477802734375,0.04764748737215996,-0.04886921867728233,-0.01466076634824276
1766480058803199000,-0.137801025390625,0.04764748737215996,-0.05497787147760391,-0.018325956538319588
1766480058813208800,-0.127791259765625,0.045204028487205505,-0.059864792972803116,-0.01710422709584236
1766480058823188000,-0.11781201171875,0.05253441259264946,-0.059864792972803116,-0.004886921960860491
1766480058833197800,-0.10780224609375,0.05253441259264946,-0.051312681287527084,0
1766480058843177000,-0.097822998046875,0.05009094998240471,-0.04398229718208313,-0.0012217304902151227
1766480058863135500,-0.077864501953125,0.04886921867728233,-0.0403171069920063,-0.0024434609804302454
1766480058883155200,-0.0578447265625,0.0659734457731247,-0.04153883829712868,-0.024434609338641167
1766480058893164800,-0.047835205078125,0.0659734457731247,-0.02932153269648552,-0.013439035043120384
1766480058903174700,-0.037825439453125,0.0659734457731247,-0.021991148591041565,0.015882495790719986
1766480058913184500,-0.0278154296875,0.06352998316287994,-0.015882495790719986,0.024434609338641167
1766480058923194000,-0.017805908203125,0.06108652427792549,-0.010995574295520782,0.009773843921720982
1766480058933204000,-0.007796142578125,0.05742133408784866,-0.00855211354792118,-0.00733038317412138
1766480058943213600,0.002213623046875,0.05009094998240471,-0.009773843921720982,-0.010995574295520782
1766480058993201400,0.052201416015625,0.05497787147760391,-0.01466076634824276,0.01466076634824276
1766480059003180800,0.062180908203125,0.05742133408784866,-0.010995574295520782,0.015882495790719986
1766480059013190400,0.0721904296875,0.059864792972803116,-0.004886921960860491,0.02932153269648552
1766480059023169800,0.082169677734375,0.059864792972803116,-0.0024434609804302454,0.04642575979232788
1766480059033210000,0.092210205078125,0.05742133408784866,-0.0024434609804302454,0.05375614017248154
1766480059043189200,0.102189208984375,0.051312681287527084,-0.006108652334660292,0.03787364438176155
1766480059053168600,0.112168701171875,0.045204028487205505,-0.00733038317412138,0.021991148591041565
1766480059083198000,0.142197998046875,0.02321287989616394,-0.018325956538319588,0.024434609338641167
1766480059103187000,0.16218701171875,0.02932153269648552,-0.01710422709584236,0.010995574295520782
1766480059113196500,0.172196533203125,0.03420845419168472,-0.013439035043120384,-0.006108652334660292
1766480059123206400,0.182206298828125,0.039095375686883926,-0.012217304669320583,-0.02076941914856434
1766480059133216300,0.19221630859375,0.04153883829712868,-0.013439035043120384,-0.024434609338641167
1766480059143195400,0.2021953125,0.04153883829712868,-0.019547687843441963,-0.02687807008624077
1766480059153235700,0.212235595703125,0.0403171069920063,-0.02687807008624077,-0.021991148591041565
1766480059163214800,0.22221484375,0.03787364438176155,-0.030543262138962746,0
1766480059173224700,0.232224609375,0.03176499158143997,-0.03176499158143997,0.015882495790719986
1766480059203192800,0.26219287109375,0.03298672288656235,-0.015882495790719986,-0.028099801391363144
1766480059213202700,0.27220263671875,0.0354301854968071,-0.019547687843441963,-0.030543262138962746
1766480059223212500,0.282212646484375,0.03298672288656235,-0.03176499158143997,-0.028099801391363144
1766480059233191700,0.292191650390625,0.024434609338641167,-0.0403171069920063,-0.025656340643763542
1766480059243201500,0.302201416015625,0.024434609338641167,-0.03420845419168472,-0.028099801391363144
1766480059253211100,0.312211181640625,0.02932153269648552,-0.02321287989616394,-0.028099801391363144
1766480059263190500,0.3221904296875,0.018325956538319588,-0.006108652334660292,-0.025656340643763542
1766480059273200400,0.332200439453125,0.018325956538319588,0.013439035043120384,-0.02321287989616394
1766480059303199000,0.362198974609375,-0.015882495790719986,0.02076941914856434,0.013439035043120384
1766480059313239300,0.3722392578125,-0.013439035043120384,0.02076941914856434,0.03298672288656235
1766480059323249200,0.382249267578125,-0.015882495790719986,0.018325956538319588,0.05497787147760391
1766480059333258800,0.3922587890625,-0.019547687843441963,0.02076941914856434,0.06719517707824707
1766480059343268600,0.4022685546875,-0.015882495790719986,0.018325956538319588,0.05375614017248154
1766480059353278500,0.412278564453125,-0.01466076634824276,0.013439035043120384,0.02321287989616394
1766480059363257600,0.422257568359375,-0.01466076634824276,0.013439035043120384,0.02321287989616394
1766480059373267500,0.432267333984375,-0.013439035043120384,0.00366519158706069,0.00733038317412138
1766480059393256400,0.45225634765625,0.01466076634824276,-0.036651913076639175,-0.03298672288656235
1766480059403235600,0.462235595703125,0.021991148591041565,-0.04886921867728233,-0.06230825558304787
1766480059413276000,0.47227587890625,0.03298672288656235,-0.059864792972803116,-0.06108652427792549
1766480059423255300,0.48225537109375,0.04398229718208313,-0.07208210229873657,-0.045204028487205505
1766480059433234400,0.492234375,0.04886921867728233,-0.06719517707824707,-0.030543262138962746
1766480059443244300,0.502244384765625,0.05497787147760391,-0.05253441259264946,-0.009773843921720982
1766480059463263700,0.522263671875,0.05253441259264946,-0.02687807008624077,-0.00733038317412138
1766480059473273600,0.532273681640625,0.051312681287527084,-0.01466076634824276,-0.00733038317412138
1766480059483252700,0.542252685546875,0.045204028487205505,-0.00733038317412138,-0.013439035043120384
1766480059503241700,0.56224169921875,0.028099801391363144,0.012217304669320583,-0.02932153269648552
1766480059533240600,0.592240478515625,0.009773843921720982,0.04398229718208313,-0.021991148591041565
1766480059543250400,0.60225048828125,0.0012217304902151227,0.04764748737215996,-0.018325956538319588
1766480059553260000,0.612260009765625,0,0.04764748737215996,-0.02076941914856434
1766480059563239400,0.622239501953125,0.00733038317412138,0.05253441259264946,-0.024434609338641167
1766480059573249000,0.6322490234375,0.013439035043120384,0.05253441259264946,-0.013439035043120384
1766480059583228400,0.642228515625,0.024434609338641167,0.051312681287527084,0.004886921960860491
1766480059593238000,0.652238037109375,0.03420845419168472,0.05864306539297104,0.006108652334660292
1766480059623236900,0.68223681640625,0.04642575979232788,0.051312681287527084,-0.04764748737215996
1766480059633246700,0.692246826171875,0.05009094998240471,0.04398229718208313,-0.04398229718208313
1766480059643256300,0.70225634765625,0.04886921867728233,0.03176499158143997,-0.025656340643763542
1766480059653266200,0.71226611328125,0.04642575979232788,0.018325956538319588,-0.00366519158706069
1766480059663276000,0.722276123046875,0.042760565876960754,0.01466076634824276,0.00855211354792118
1766480059673285600,0.73228564453125,0.045204028487205505,0.025656340643763542,0.015882495790719986
1766480059683295500,0.74229541015625,0.05375614017248154,0.02321287989616394,0.010995574295520782
1766480059693305300,0.752305419921875,0.05375614017248154,0.013439035043120384,0.0012217304902151227
1766480059713324800,0.77232470703125,0.04886921867728233,-0.009773843921720982,-0.028099801391363144
1766480059723334700,0.782334716796875,0.04153883829712868,-0.012217304669320583,-0.024434609338641167
1766480059733344300,0.79234423828125,0.0403171069920063,-0.01466076634824276,-0.010995574295520782
1766480059743323600,0.80232373046875,0.03420845419168472,-0.013439035043120384,-0.004886921960860491
1766480059753364000,0.812364013671875,0.021991148591041565,-0.009773843921720982,-0.00366519158706069
1766480059763373600,0.82237353515625,0.018325956538319588,0.0024434609804302454,0.00733038317412138
1766480059773383400,0.832383544921875,0.01466076634824276,0.00855211354792118,0.02687807008624077
1766480059783393000,0.84239306640625,0.0024434609804302454,0.0024434609804302454,0.03787364438176155
1766480059793403000,0.85240283203125,0.0024434609804302454,-0.00733038317412138,0.03298672288656235
1766480059823401700,0.882401611328125,0.009773843921720982,-0.028099801391363144,-0.018325956538319588
1766480059843421200,0.902421142578125,0.004886921960860491,-0.0403171069920063,-0.02076941914856434
1766480059853431000,0.91243115234375,0.00855211354792118,-0.03176499158143997,-0.039095375686883926
1766480059863379700,0.922379638671875,0.009773843921720982,-0.024434609338641167,-0.04886921867728233
1766480059873389600,0.9323896484375,0.004886921960860491,-0.00733038317412138,-0.02932153269648552
1766480059883368700,0.94236865234375,0,-0.0012217304902151227,0.009773843921720982
1766480059893409000,0.952408935546875,-0.012217304669320583,-0.00733038317412138,0.028099801391363144
1766480059903388200,0.96238818359375,-0.01710422709584236,-0.009773843921720982,0.02687807008624077
1766480059963446800,1.02244677734375,-0.00366519158706069,-0.036651913076639175,-0.004886921960860491
1766480059983435800,1.042435791015625,0.010995574295520782,-0.04153883829712868,-0.028099801391363144
1766480059993415200,1.052415283203125,0.01466076634824276,-0.0403171069920063,-0.00366519158706069
1766480060003424800,1.0624248046875,0.012217304669320583,-0.0403171069920063,0.02321287989616394
1766480060013465000,1.072465087890625,0.012217304669320583,-0.0403171069920063,0.02321287989616394
1766480060023475000,1.082474853515625,0.004886921960860491,-0.04153883829712868,0.02932153269648552
1766480060033454000,1.0924541015625,0.0012217304902151227,-0.04398229718208313,0.01710422709584236
1766480060053473800,1.112473876953125,0.006108652334660292,-0.05253441259264946,-0.00855211354792118
1766480060063453000,1.122452880859375,0.010995574295520782,-0.05619960278272629,-0.004886921960860491
1766480060073462800,1.132462890625,0.02321287989616394,-0.059864792972803116,0.00855211354792118
1766480060083472400,1.142472412109375,0.03176499158143997,-0.06230825558304787,0.0012217304902151227
1766480060093482200,1.152482177734375,0.02932153269648552,-0.05619960278272629,-0.012217304669320583
1766480060103461400,1.16246142578125,0.030543262138962746,-0.045204028487205505,-0.00855211354792118
1766480060113471200,1.17247119140625,0.0354301854968071,-0.028099801391363144,0.00855211354792118
1766480060123481000,1.182481201171875,0.02932153269648552,-0.013439035043120384,0.02687807008624077
1766480060133490700,1.19249072265625,0.015882495790719986,-0.0012217304902151227,0.03420845419168472
1766480060143470000,1.202469970703125,0.0012217304902151227,0.006108652334660292,0.02932153269648552
1766480060163520000,1.22252001953125,-0.004886921960860491,0.01466076634824276,0.03176499158143997
1766480060173560300,1.232560302734375,-0.00366519158706069,0.015882495790719986,0.028099801391363144
1766480060183570200,1.242570068359375,-0.006108652334660292,0.015882495790719986,0.024434609338641167
1766480060193580000,1.252580078125,-0.00366519158706069,0.019547687843441963,0.02687807008624077
1766480060203589600,1.262589599609375,-0.004886921960860491,0.030543262138962746,0.025656340643763542
1766480060213599500,1.272599609375,-0.010995574295520782,0.04764748737215996,0.04153883829712868
1766480060223609000,1.282609130859375,-0.012217304669320583,0.051312681287527084,0.06475171446800232
1766480060233619000,1.292618896484375,-0.01710422709584236,0.04398229718208313,0.07208210229873657
1766480060243628800,1.30262890625,-0.018325956538319588,0.0354301854968071,0.0659734457731247
1766480060283667700,1.342667724609375,-0.013439035043120384,0.004886921960860491,0.04153883829712868
1766480060293708000,1.3527080078125,-0.009773843921720982,0.0024434609804302454,0.03298672288656235
1766480060303718000,1.3627177734375,-0.00855211354792118,-0.00366519158706069,0.02932153269648552
1766480060313697000,1.372697021484375,-0.006108652334660292,-0.0024434609804302454,0.039095375686883926
1766480060323707000,1.382706787109375,-0.00855211354792118,-0.00855211354792118,0.036651913076639175
1766480060333747200,1.392747314453125,-0.01710422709584236,-0.010995574295520782,0.021991148591041565
1766480060353797000,1.412797119140625,-0.01710422709584236,-0.019547687843441963,0.0024434609804302454
1766480060373786000,1.4327861328125,-0.004886921960860491,-0.02687807008624077,0.00733038317412138
1766480060383796000,1.4427958984375,0.0012217304902151227,-0.02932153269648552,0.006108652334660292
1766480060393805800,1.452805908203125,0.006108652334660292,-0.028099801391363144,0.00855211354792118
1766480060403815400,1.4628154296875,0.00855211354792118,-0.025656340643763542,0.009773843921720982
1766480060413825300,1.4728251953125,0.00855211354792118,-0.015882495790719986,0.02076941914856434
1766480060423835100,1.482835205078125,-0.0012217304902151227,-0.009773843921720982,0.0354301854968071
1766480060433844700,1.4928447265625,-0.006108652334660292,-0.00733038317412138,0.03298672288656235
1766480060443824000,1.50282421875,-0.010995574295520782,-0.009773843921720982,0.0012217304902151227
1766480060473853400,1.532853515625,-0.01466076634824276,-0.00366519158706069,-0.06719517707824707
1766480060483832600,1.54283251953125,-0.010995574295520782,-0.00855211354792118,-0.06108652427792549
1766480060493873000,1.552872802734375,-0.00733038317412138,-0.009773843921720982,-0.0659734457731247
1766480060513892400,1.572892333984375,-0.004886921960860491,-0.012217304669320583,-0.05375614017248154
1766480060523871700,1.582871826171875,-0.0024434609804302454,-0.018325956538319588,-0.039095375686883926
1766480060533881300,1.59288134765625,0.00733038317412138,-0.02076941914856434,-0.04642575979232788
1766480060543891200,1.60289111328125,0.02321287989616394,-0.028099801391363144,-0.07452555745840073
1766480060573951000,1.632950927734375,0.07696902006864548,-0.05375614017248154,-0.2028072625398636
1766480060583930400,1.642930419921875,0.10018189996480942,-0.06352998316287994,-0.2638937830924988
1766480060593909500,1.652909423828125,0.12950342893600464,-0.07452555745840073,-0.33475416898727417
1766480060603919400,1.66291943359375,0.17104226350784302,-0.10018189996480942,-0.4105014503002167
1766480060613929000,1.672928955078125,0.21624629199504852,-0.14049901068210602,-0.50335294008255
1766480060623938800,1.682938720703125,0.2724458873271942,-0.18814650177955627,-0.6157521605491638
1766480060633918000,1.69291796875,0.34208452701568604,-0.2541199326515198,-0.7538077235221863
1766480060643927800,1.702927734375,0.4251621961593628,-0.32620203495025635,-0.9162978529930115
1766480060653937700,1.712937744140625,0.5106833577156067,-0.3995058834552765,-1.086118459701538
1766480060673957000,1.73295703125,0.7379252314567566,-0.5387831330299377,-1.4062118530273438
1766480060683967000,1.742967041015625,0.8576548099517822,-0.6059783101081848,-1.5601497888565063
1766480060693976600,1.7529765625,0.9529497623443604,-0.6572909951210022,-1.7055357694625854
1766480060703986400,1.762986328125,0.9529497623443604,-0.6572909951210022,-1.7055357694625854
1766480060713996300,1.772996337890625,1.036027431488037,-0.7049384713172913,-1.8008307218551636
1766480060724006000,1.783005859375,1.1166616678237915,-0.740368664264679,-1.8839083909988403
1766480060734015700,1.793015625,1.1740829944610596,-0.7745771408081055,-1.9828685522079468
1766480060743995000,1.802994873046875,1.2082914113998413,-0.799011766910553,-2.1197023391723633
1766480060754004700,1.813004638671875,1.225395679473877,-0.8038986921310425,-2.2650883197784424
1766480060794013200,1.85301318359375,1.2192870378494263,-0.7464773058891296,-2.261423110961914
1766480060804023000,1.86302294921875,1.1936306953430176,-0.7086036801338196,-2.180788993835449
1766480060814033000,1.873032958984375,1.1447614431381226,-0.6829473376274109,-2.2088887691497803
1766480060824042500,1.88304248046875,1.0885618925094604,-0.6670648455619812,-2.350609540939331
1766480060834052400,1.89305224609375,1.0250319242477417,-0.6743952035903931,-2.6120598316192627
1766480060844062200,1.903062255859375,0.9492846131324768,-0.6780604124069214,-2.90649676322937
1766480060854071800,1.91307177734375,0.8979719281196594,-0.6609562039375305,-3.1141910552978516
1766480060864051200,1.92305126953125,0.8710938692092896,-0.6401867866516113,-3.143512487411499
1766480060894049800,1.9530498046875,0.7929030656814575,-0.5742133259773254,-2.4776694774627686
1766480060914100000,1.973099853515625,0.8405506014823914,-0.5668829679489136,-2.350609540939331
1766480060924109600,1.983109619140625,0.8454375267028809,-0.5791002511978149,-2.5277602672576904
1766480060934119400,1.993119384765625,0.8038986921310425,-0.5937610268592834,-2.785545587539673
1766480060944129300,2.00312939453125,0.7611380815505981,-0.5937610268592834,-3.0335566997528076
1766480060954108400,2.0131083984375,0.7342600226402283,-0.5974262356758118,-3.1691689491271973
1766480060964118300,2.0231181640625,0.7098253965377808,-0.6096435189247131,-3.1398472785949707
1766480060974158600,2.03315869140625,0.6866125464439392,-0.6243042945861816,-3.009122133255005
1766480060994147600,2.053147705078125,0.6438519954681396,-0.6389650702476501,-2.674368143081665
1766480061004157200,2.0631572265625,0.6194173693656921,-0.6548475623130798,-2.5192081928253174
1766480061014136600,2.073136474609375,0.5949827432632446,-0.6780604124069214,-2.4055874347686768
1766480061024146400,2.083146484375,0.5937610268592834,-0.6682865619659424,-2.331061840057373
1766480061034156000,2.093156005859375,0.5619960427284241,-0.6536257863044739,-2.263866662979126
1766480061044135400,2.103135498046875,0.4960225820541382,-0.6438519954681396,-2.124589204788208
1766480061054145000,2.11314501953125,0.44837507605552673,-0.6572909951210022,-2.001194477081299
1766480061064124400,2.12312451171875,0.4190535545349121,-0.6963863968849182,-1.9156733751296997
1766480061074164700,2.133164794921875,0.4178318381309509,-0.7452555894851685,-1.8753563165664673
1766480061104132900,2.1631328125,0.4508185386657715,-0.9089674949645996,-2.0366246700286865
1766480061114142700,2.173142822265625,0.42760565876960754,-0.9431759119033813,-2.1600193977355957
1766480061164191500,2.22319140625,0.3066543638706207,-1.0580185651779175,-2.1319196224212646
1766480061174201300,2.233201416015625,0.27977627515792847,-1.0494664907455444,-2.14902400970459
1766480061184180500,2.243180419921875,0.2590068578720093,-1.0396926403045654,-2.1282544136047363
1766480061204169500,2.26316943359375,0.24678955972194672,-1.009149432182312,-1.986533761024475
1766480061264197600,2.32319775390625,0.2834414839744568,-0.8454375267028809,-1.577254056930542
1766480061354254800,2.4132548828125,0.5791002511978149,-0.49357911944389343,-1.1276572942733765
1766480061434302500,2.493302490234375,0.6145304441452026,-0.18081611394882202,-0.5473352670669556
1766480061444281900,2.50328173828125,0.5962044596672058,-0.15271630883216858,-0.5424483418464661
1766480061454291500,2.51329150390625,0.5717698931694031,-0.12461651116609573,-0.47280970215797424
1766480061494269700,2.553269775390625,0.4447098970413208,-0.09529497474431992,0.00733038317412138
1766480061524299000,2.583299072265625,0.43615779280662537,-0.13805554807186127,0.3982841372489929
1766480061534308600,2.59330859375,0.43127086758613586,-0.14782938361167908,0.4593706727027893
1766480061544288000,2.6032880859375,0.3995058834552765,-0.1612684279680252,0.3530801236629486
1766480061554267100,2.61326708984375,0.41172316670417786,-0.16737708449363708,0.19303341209888458
1766480061564246500,2.62324658203125,0.43737950921058655,-0.1869247704744339,0.06841690838336945
1766480061584296400,2.64329638671875,0.43737950921058655,-0.17592918872833252,-0.12217304855585098
1766480061594306300,2.653306396484375,0.4153883755207062,-0.15027284622192383,-0.1014036312699318
1766480061604285400,2.663285400390625,0.39217549562454224,-0.12339477986097336,0.0012217304902151227
1766480061614325800,2.67332568359375,0.3640756905078888,-0.09773843735456467,0.09040805697441101
1766480061624335600,2.683335693359375,0.35552358627319336,-0.06230825558304787,0.11484266817569733
1766480061634314800,2.693314697265625,0.37262779474258423,-0.012217304669320583,0.09407325088977814
1766480061644324600,2.70332470703125,0.37262779474258423,0.019547687843441963,0.028099801391363144
1766480061654334200,2.713334228515625,0.43127086758613586,0.051312681287527084,0.06230825558304787
1766480061664344000,2.723343994140625,0.5265658497810364,0.09773843735456467,0.24923302233219147
1766480061684333000,2.7433330078125,0.608421802520752,0.17104226350784302,0.646295428276062
1766480061694373400,2.753373291015625,0.6279694437980652,0.2064724564552307,0.6682865619659424
1766480061704352500,2.7633525390625,0.656069278717041,0.24923302233219147,0.5925393104553223
1766480061714362400,2.7733623046875,0.6792821288108826,0.2932153046131134,0.42638394236564636
1766480061724372200,2.783372314453125,0.6792821288108826,0.3078760802745819,0.13316862285137177
1766480061734381800,2.7933818359375,0.7709119319915771,0.31520646810531616,-0.0659734457731247
1766480061744391700,2.8033916015625,0.8649851679801941,0.2968805134296417,-0.16859880089759827
1766480061754401500,2.813401611328125,0.9101892113685608,0.2981022298336029,-0.2223549485206604
1766480061764411100,2.8234111328125,0.9321803450584412,0.3225368559360504,-0.1966986060142517
1766480061784430800,2.843430908203125,0.9529497623443604,0.32986724376678467,0.21868975460529327
1766480061794410000,2.853409912109375,0.9859365224838257,0.34697145223617554,0.4141666293144226
1766480061814429400,2.873429443359375,1.0396926403045654,0.35552358627319336,0.6340781450271606
1766480061824439300,2.883439208984375,1.1655309200286865,0.3836233615875244,0.7916813492774963
1766480061834418400,2.89341845703125,1.282817006111145,0.4129449129104614,0.8576548099517822
1766480061844428300,2.90342822265625,1.3622294664382935,0.4447098970413208,0.750142514705658
1766480061854438100,2.913438232421875,1.500285029411316,0.4715879559516907,0.6010913848876953
1766480061864447700,2.92344775390625,1.645671010017395,0.48747047781944275,0.4996877610683441
1766480061904487000,2.96348681640625,1.8839083909988403,0.6243042945861816,0.8234463334083557
1766480061914496800,2.973496826171875,1.957212209701538,0.6426302194595337,0.9859365224838257
1766480061924506400,2.98350634765625,2.03540301322937,0.6511823534965515,1.1191051006317139
1766480061934516200,2.99351611328125,2.113593816757202,0.6597344875335693,1.2889256477355957
1766480061944525800,3.00352587890625,2.222327709197998,0.6878342628479004,1.5344934463500977
1766480061964515000,3.02351513671875,2.4715607166290283,0.7000515460968018,1.891238808631897
1766480061974524700,3.033524658203125,2.5839600563049316,0.7293730974197388,1.8264870643615723
1766480062024604200,3.083604248046875,3.02011775970459,0.8307767510414124,0.7672467231750488
1766480062034613800,3.09361376953125,3.02011775970459,0.8307767510414124,0.7672467231750488
1766480062044623600,3.10362353515625,3.0641000270843506,0.8295549750328064,0.6621779203414917
1766480062054633500,3.113633544921875,3.081204414367676,0.8429940342903137,0.5949827432632446
1766480062064612600,3.123612548828125,3.032335042953491,0.8820894360542297,0.5436700582504272
1766480062074622500,3.13362255859375,2.9187140464782715,0.9260717034339905,0.5534439086914062
1766480062084601600,3.1436015625,2.722015619277954,0.9419541954994202,0.646295428276062
1766480062124610300,3.1836103515625,1.4257594347000122,0.6426302194595337,0.8429940342903137
1766480062144629800,3.203629638671875,0.789237916469574,0.6145304441452026,0.5204572081565857
1766480062154670000,3.213670166015625,0.5375614166259766,0.6133087277412415,0.3481931984424591
1766480062164679700,3.2236796875,0.294437050819397,0.6010913848876953,0.10873401165008545
1766480062174689500,3.233689453125,0.09773843735456467,0.5778785347938538,-0.20402899384498596
1766480062194678500,3.253678466796875,-0.06475171446800232,0.5338962078094482,-0.8246681094169617
1766480062214698000,3.273697998046875,-0.16493362188339233,0.5522221922874451,-1.2327260971069336
1766480062224707800,3.283707763671875,-0.2272418737411499,0.5827654600143433,-1.3854423761367798
1766480062234717700,3.2937177734375,-0.17348572611808777,0.6218608021736145,-1.4025466442108154
1766480062244696800,3.30369677734375,-0.042760565876960754,0.6414085030555725,-1.2986994981765747
1766480062254706700,3.313706787109375,0.06352998316287994,0.6707300543785095,-1.1349875926971436
1766480062264716300,3.32371630859375,0.14416420459747314,0.7073819637298584,-0.9297369122505188
1766480062284705300,3.343705322265625,0.27122417092323303,0.7538077235221863,-0.43127086758613586
1766480062294715100,3.353715087890625,0.31154128909111023,0.7721336483955383,-0.1918116807937622
1766480062324714000,3.3837138671875,0.4031710624694824,0.9639453291893005,0.5974262356758118
1766480062334723600,3.3937236328125,0.4092797040939331,1.0299187898635864,1.0812314748764038
1766480062344733400,3.4037333984375,0.3982841372489929,1.0751228332519531,1.6200146675109863
1766480062354743300,3.413743408203125,0.33719760179519653,1.0580185651779175,2.079385280609131
1766480062364722400,3.423722412109375,0.23579397797584534,0.998153805732727,2.2711970806121826
1766480062374732300,3.433732177734375,0.12828169763088226,0.9578366875648499,2.1783454418182373
1766480062384742000,3.443741943359375,0.03298672288656235,0.940732479095459,1.9132299423217773
1766480062394751700,3.453751708984375,-0.04886921867728233,0.9053022861480713,1.6102408170700073
1766480062444739600,3.503739501953125,-0.3139847218990326,0.5729916095733643,0.34086281061172485
1766480062454749400,3.51374951171875,-0.35185837745666504,0.45326200127601624,0.14905111491680145
1766480062464728600,3.523728515625,-0.4056145250797272,0.3286454975605011,-0.06841690838336945
1766480062474707700,3.533707763671875,-0.44226643443107605,0.2076941877603531,-0.3090978264808655
1766480062484656600,3.54365673828125,-0.4801400899887085,0.09651670604944229,-0.5558874011039734
1766480062494697000,3.553697021484375,-0.513126790523529,0.010995574295520782,-0.7806857824325562
1766480062504706600,3.56370654296875,-0.5400048494338989,-0.05497787147760391,-0.9529497623443604
1766480062524726300,3.583726318359375,-0.5778785347938538,-0.15882496535778046,-0.950506329536438
1766480062554724900,3.613724853515625,-0.6133087277412415,-0.3323107063770294,-0.9431759119033813
1766480062564704300,3.623704345703125,-0.656069278717041,-0.36651915311813354,-1.1032226085662842
1766480062574713900,3.6337138671875,-0.6829473376274109,-0.39706242084503174,-1.2302825450897217
1766480062584693200,3.643693359375,-0.6976081132888794,-0.4190535545349121,-1.312138557434082
1766480062594702800,3.653702880859375,-0.7257078886032104,-0.42149701714515686,-1.359786033630371
1766480062604682200,3.66368212890625,-0.7660250067710876,-0.3799581825733185,-1.320690631866455
1766480062614691800,3.67369189453125,-0.8014551997184753,-0.34208452701568604,-1.2021827697753906
1766480062674689500,3.733689453125,-0.7709119319915771,-0.1918116807937622,-1.235169529914856
1766480062684699400,3.743699462890625,-0.685390830039978,-0.1111774742603302,-1.2510520219802856
1766480062694709000,3.753708984375,-0.685390830039978,-0.1111774742603302,-1.2510520219802856
1766480062704688400,3.7636884765625,-0.5558874011039734,-0.012217304669320583,-1.243721604347229
1766480062714698000,3.773697998046875,-0.42149701714515686,0.024434609338641167,-1.1850786209106445
1766480062724707800,3.783707763671875,-0.2785545587539673,0.051312681287527084,-1.1618657112121582
1766480062744727300,3.803727294921875,-0.17837265133857727,0.11972958594560623,-1.3451253175735474
1766480062754737200,3.813737060546875,-0.2541199326515198,0.07696902006864548,-1.1264355182647705
1766480062764747000,3.8237470703125,-0.39706242084503174,0.02076941914856434,-0.5143485069274902
1766480062774787000,3.833787109375,-0.44104471802711487,0.02076941914856434,0.18448130786418915
1766480062784766500,3.843766357421875,-0.46181413531303406,0.0708603709936142,0.5656611919403076
1766480062794776300,3.8537763671875,-0.5253441333770752,0.16737708449363708,0.4789183437824249
1766480062804786000,3.863785888671875,-0.5632177591323853,0.27122417092323303,0.15515977144241333
1766480062814795800,3.873795654296875,-0.5754350423812866,0.36163222789764404,-0.14905111491680145
1766480062824805400,3.883805419921875,-0.5534439086914062,0.43249258399009705,-0.36651915311813354
1766480062854834700,3.913834716796875,-0.4789183437824249,0.44837507605552673,-0.6279694437980652
1766480062864844500,3.923844482421875,-0.4605923891067505,0.3237585723400116,-0.5803219676017761
1766480062874854400,3.9338544921875,-0.4508185386657715,0.16371189057826996,-0.6096435189247131
1766480062884833500,3.94383349609375,-0.43615779280662537,0.01466076634824276,-0.6927211880683899
1766480062894873900,3.953873779296875,-0.4251621961593628,-0.1160643994808197,-0.7574729323387146
1766480062904883700,3.9638837890625,-0.4337143301963806,-0.251676470041275,-0.7525860071182251
1766480062914893300,3.973893310546875,-0.45692721009254456,-0.37751471996307373,-0.6951646208763123
1766480062924903200,3.983903076171875,-0.47280970215797424,-0.485027015209198,-0.6450737118721008
1766480062934943500,3.993943603515625,-0.485027015209198,-0.5766568183898926,-0.6157521605491638
1766480062944953000,4.003953125,-0.5106833577156067,-0.6414085030555725,-0.5925393104553223
1766480062964942300,4.0239423828125,-0.6255260109901428,-0.7354817390441895,-0.4911356568336487
1766480062975013000,4.03401318359375,-0.6805039048194885,-0.7538077235221863,-0.4740314185619354
1766480062984961800,4.0439619140625,-0.7134906053543091,-0.7574729323387146,-0.504574716091156
1766480062994941000,4.05394091796875,-0.720820963382721,-0.7318165898323059,-0.5619960427284241
1766480063004950800,4.06395068359375,-0.7391469478607178,-0.6890559792518616,-0.5998696684837341
1766480063014960600,4.073960693359375,-0.7635815739631653,-0.6487388610839844,-0.5937610268592834
1766480063024970200,4.08397021484375,-0.779464066028595,-0.5949827432632446,-0.5705481171607971
1766480063034980000,4.09397998046875,-0.788016140460968,-0.5326744914054871,-0.5497786998748779
1766480063044989700,4.10398974609375,-0.7953465580940247,-0.485027015209198,-0.5351179838180542
1766480063064979000,4.12397900390625,-0.7831292152404785,-0.36651915311813354,-0.5241223573684692
1766480063084998400,4.143998291015625,-0.7513642311096191,-0.2638937830924988,-0.5448917746543884
1766480063095008300,4.15400830078125,-0.7318165898323059,-0.22357667982578278,-0.5510004758834839
1766480063104987400,4.1639873046875,-0.7122688889503479,-0.18081611394882202,-0.5375614166259766
1766480063114997200,4.173997314453125,-0.6805039048194885,-0.14049901068210602,-0.5167919993400574
1766480063124976400,4.183976318359375,-0.6401867866516113,-0.10018189996480942,-0.4691445231437683
1766480063134986200,4.193986328125,-0.5876523852348328,-0.06108652427792549,-0.4031710624694824
1766480063144995800,4.203995849609375,-0.5314527750015259,-0.0403171069920063,-0.3384193480014801
1766480063164984800,4.22398486328125,-0.4129449129104614,-0.019547687843441963,-0.2932153046131134
1766480063174994700,4.23399462890625,-0.3433062732219696,0.006108652334660292,-0.27611109614372253
1766480063185004500,4.244004638671875,-0.27488934993743896,0.018325956538319588,-0.23335053026676178
1766480063195014100,4.25401416015625,-0.21380282938480377,0.013439035043120384,-0.18081611394882202
1766480063204993500,4.26399365234375,-0.16004669666290283,0.00855211354792118,-0.16493362188339233
1766480063215003100,4.274003173828125,-0.10384709388017654,0.00733038317412138,-0.18936823308467865
1766480063224982500,4.283982421875,-0.036651913076639175,-0.0024434609804302454,-0.2370157092809677
1766480063234961700,4.293961669921875,0.03420845419168472,-0.0012217304902151227,-0.29077184200286865
1766480063244971500,4.303971435546875,0.10873401165008545,0.024434609338641167,-0.30054569244384766
1766480063255011800,4.31401171875,0.1820378452539444,0.036651913076639175,-0.2577851414680481
1766480063315009300,4.37400927734375,0.47769662737846375,0.025656340643763542,-0.028099801391363144
1766480063324988700,4.38398876953125,0.5119050741195679,0.01466076634824276,-0.021991148591041565
1766480063334998300,4.393998291015625,0.5473352670669556,0,-0.06841690838336945
1766480063344977700,4.403977783203125,0.5778785347938538,-0.018325956538319588,-0.1918116807937622
1766480063355018000,4.41401806640625,0.5778785347938538,-0.018325956538319588,-0.1918116807937622
1766480063365027600,4.424027587890625,0.5998696684837341,-0.045204028487205505,-0.3799581825733185
1766480063375068000,4.43406787109375,0.6120869517326355,-0.06230825558304787,-0.5583308339118958
1766480063395057000,4.454056884765625,0.6157521605491638,-0.07696902006864548,-0.5057964324951172
1766480063405036300,4.464036376953125,0.6010913848876953,-0.09285151958465576,-0.36529740691185
1766480063415015400,4.474015380859375,0.6096435189247131,-0.10506882518529892,-0.26633724570274353
1766480063425025300,4.484025390625,0.6377432942390442,-0.11850785464048386,-0.251676470041275
1766480063435035000,4.494034912109375,0.6646214127540588,-0.1466076523065567,-0.29077184200286865
1766480063445014300,4.50401416015625,0.6927211880683899,-0.1918116807937622,-0.3689626157283783
1766480063455054600,4.5140546875,0.7318165898323059,-0.2321287989616394,-0.46670106053352356
1766480063465033700,4.52403369140625,0.7831292152404785,-0.26145032048225403,-0.5375614166259766
1766480063475074000,4.534073974609375,0.8442157506942749,-0.28955012559890747,-0.5558874011039734
1766480063505103400,4.564103271484375,1.0580185651779175,-0.2968805134296417,-0.26022860407829285
1766480063515143700,4.574143798828125,1.1301007270812988,-0.27977627515792847,-0.09407325088977814
1766480063525153300,4.5841533203125,1.1887437105178833,-0.24190263450145721,0.0403171069920063
1766480063535163100,4.5941630859375,1.1936306953430176,-0.17348572611808777,0.12339477986097336
1766480063545142500,4.604142578125,1.1325441598892212,-0.10384709388017654,0.17104226350784302
1766480063555152100,4.614152099609375,0.9761626720428467,-0.024434609338641167,0.17470745742321014
1766480063565162000,4.624161865234375,0.7305948138237,0.03787364438176155,0.15515977144241333
1766480063575171600,4.634171630859375,0.44226643443107605,0.09773843735456467,0.15760323405265808
1766480063585151000,4.64415087890625,0.16982053220272064,0.1918116807937622,0.16004669666290283
1766480063615180300,4.67418017578125,-0.1270599663257599,0.6243042945861816,0.42760565876960754
1766480063635169300,4.694169189453125,-0.4447098970413208,0.675616979598999,0.8087855577468872
1766480063645148400,4.7041484375,-0.6633996367454529,0.7379252314567566,0.8784242272377014
1766480063655127800,4.7141279296875,-0.7831292152404785,0.8808676600456238,0.9456194043159485
1766480063665137400,4.724137451171875,-0.8258898258209229,0.9834930300712585,1.1398745775222778
1766480063675147300,4.734147216796875,-0.901637077331543,1.0543533563613892,1.3781119585037231
1766480063685157000,4.7441572265625,-1.0018190145492554,1.1447614431381226,1.4587461948394775
1766480063715186400,4.7741865234375,-0.9431759119033813,1.3524556159973145,0.28955012559890747
1766480063735145000,4.79414501953125,-0.7354817390441895,1.4587461948394775,-0.6255260109901428
1766480063745154600,4.804154541015625,-0.5656611919403076,1.5931365489959717,-0.7440338730812073
1766480063755164400,4.814164306640625,-0.4642575979232788,1.6982053518295288,-0.685390830039978
1766480063765143600,4.8241435546875,-0.38606682419776917,1.7763961553573608,-0.7452555894851685
1766480063775153400,4.8341533203125,-0.2064724564552307,1.8496999740600586,-0.9395107626914978
1766480063785163300,4.844163330078125,0.03298672288656235,1.9559905529022217,-1.2107349634170532
1766480063815223000,4.87422314453125,0.6829473376274109,2.2968533039093018,-1.7324138879776
1766480063825232600,4.884232666015625,0.8943067193031311,2.395813465118408,-1.7910568714141846
1766480063835242500,4.894242431640625,1.1398745775222778,2.459343433380127,-1.987755537033081
1766480063845252400,4.90425244140625,1.3622294664382935,2.4947736263275146,-2.230879783630371
1766480063855262000,4.914261962890625,1.5601497888565063,2.500882387161255,-2.372600555419922
1766480063865241300,4.924241455078125,1.7177530527114868,2.492330312728882,-2.3652701377868652
1766480063875251000,4.9342509765625,1.8399261236190796,2.4410176277160645,-2.2736403942108154
1766480063885200000,4.944199951171875,1.910786509513855,2.3909265995025635,-2.122145891189575
1766480063925238800,4.98423876953125,1.9645426273345947,1.9633208513259888,-1.3658946752548218
1766480063945258500,5.004258544921875,1.7825047969818115,1.6322319507598877,-0.9297369122505188
1766480063955268000,5.01426806640625,1.6273449659347534,1.4978415966033936,-0.7525860071182251
1766480063965247500,5.02424755859375,1.4795156717300415,1.3927727937698364,-0.6414085030555725
1766480063975257000,5.034257080078125,1.313360333442688,1.264491081237793,-0.5656611919403076
1766480063985267000,5.044266845703125,1.1508700847625732,1.1386528015136719,-0.44226643443107605
1766480063995307300,5.054307373046875,1.007927656173706,1.0250319242477417,-0.3384193480014801
1766480064025367000,5.084366943359375,0.7244861721992493,0.7574729323387146,-0.2528982162475586
1766480064035377000,5.094376953125,0.6279694437980652,0.6536257863044739,-0.2883284091949463
1766480064045356000,5.10435595703125,0.5387831330299377,0.5558874011039734,-0.25534167885780334
1766480064055366000,5.114365966796875,0.4288274049758911,0.4593706727027893,-0.06230825558304787
1766480064065375500,5.12437548828125,0.34086281061172485,0.4043927788734436,0.18814650177955627
1766480064075355000,5.13435498046875,0.26633724570274353,0.394618958234787,0.4398229718208313
1766480064085364500,5.144364501953125,0.2382374405860901,0.4056145250797272,0.5338962078094482
1766480064095343900,5.15434375,0.2480112910270691,0.46181413531303406,0.4764748811721802
1766480064105323000,5.164322998046875,0.2822197377681732,0.5119050741195679,0.48380526900291443
1766480064155341300,5.21434130859375,0.45204028487205505,0.6096435189247131,1.9327776432037354
1766480064165320700,5.22432080078125,0.4398229718208313,0.6145304441452026,2.0231857299804688
1766480064175330300,5.234330322265625,0.40072759985923767,0.616973876953125,1.9230037927627563
1766480064185340200,5.244340087890625,0.3323107063770294,0.598647952079773,1.910786509513855
1766480064195350000,5.25435009765625,0.27122417092323303,0.6010913848876953,1.853365182876587
1766480064205329200,5.2643291015625,0.2431243658065796,0.6194173693656921,1.6273449659347534
1766480064215339000,5.274339111328125,0.2590068578720093,0.6145304441452026,1.441641926765442
1766480064235358500,5.2943583984375,0.1966986060142517,0.607200026512146,1.216843605041504
1766480064245368300,5.304368408203125,0.09040805697441101,0.5668829679489136,1.197295904159546
1766480064255378000,5.3143779296875,0,0.4948008358478546,1.2693779468536377
1766480064265387800,5.3243876953125,-0.0659734457731247,0.4141666293144226,1.2620476484298706
1766480064275367000,5.334366943359375,-0.10751228034496307,0.3591887652873993,1.197295904159546
1766480064285376800,5.344376708984375,-0.1466076523065567,0.3066543638706207,1.2034045457839966
1766480064295356000,5.35435595703125,-0.18814650177955627,0.2370157092809677,1.2400563955307007
1766480064305365800,5.36436572265625,-0.2577851414680481,0.16737708449363708,1.431868076324463
1766480064315375600,5.374375732421875,-0.32620203495025635,0.10751228034496307,1.6872098445892334
1766480064335364600,5.394364501953125,-0.45692721009254456,-0.07208210229873657,1.6578882932662964
1766480064365363500,5.424363525390625,-0.5070181488990784,-0.22968533635139465,0.8112290501594543
1766480064375403500,5.434403564453125,-0.475253164768219,-0.24190263450145721,0.6499606370925903
1766480064385383000,5.4443828125,-0.46547931432724,-0.2638937830924988,0.6426302194595337
1766480064395392800,5.454392822265625,-0.43737950921058655,-0.2822197377681732,0.720820963382721
1766480064405372000,5.464371826171875,-0.39706242084503174,-0.31642818450927734,0.7623597979545593
1766480064415381800,5.4743818359375,-0.3836233615875244,-0.36529740691185,0.789237916469574
1766480064425330400,5.484330322265625,-0.3286454975605011,-0.3787364661693573,0.7061602473258972
1766480064465369300,5.524369384765625,-0.3139847218990326,-0.23090706765651703,0.47280970215797424
1766480064475379200,5.534379150390625,-0.32009339332580566,-0.18936823308467865,0.5155702829360962
1766480064485358600,5.544358642578125,-0.3323107063770294,-0.1661553531885147,0.6218608021736145
1766480064495398700,5.554398681640625,-0.3628539443016052,-0.15393804013729095,0.8539896011352539
1766480064505378000,5.5643779296875,-0.4202753007411957,-0.1258382350206375,1.2302825450897217
1766480064515387600,5.5743876953125,-0.46792277693748474,-0.07941248267889023,1.6016886234283447
1766480064525397500,5.5843974609375,-0.5057964324951172,-0.05009094998240471,1.901012659072876
1766480064555426800,5.6144267578125,-0.49724429845809937,-0.26145032048225403,1.3072515726089478
1766480064565406000,5.624406005859375,-0.4544837474822998,-0.45204028487205505,0.5742133259773254
1766480064575415800,5.634415771484375,-0.513126790523529,-0.5949827432632446,0.15393804013729095
1766480064585425700,5.64442578125,-0.5913175344467163,-0.6585127115249634,0.16982053220272064
1766480064595435300,5.654435302734375,-0.6536257863044739,-0.7110471725463867,0.3225368559360504
1766480064605445000,5.664445068359375,-0.7110471725463867,-0.7623597979545593,0.4178318381309509
1766480064615455000,5.674455078125,-0.7440338730812073,-0.789237916469574,0.45326200127601624
1766480064625434000,5.68443408203125,-0.7269296646118164,-0.8002334833145142,0.4996877610683441
1766480064635444000,5.69444384765625,-0.6597344875335693,-0.7929030656814575,0.6304129362106323
1766480064655463400,5.71446337890625,-0.49846604466438293,-0.6988298296928406,0.9553932547569275
1766480064675483000,5.73448291015625,-0.4239404797554016,-0.6316346526145935,0.978606104850769
1766480064685431800,5.744431884765625,-0.3530801236629486,-0.5167919993400574,0.8222246170043945
1766480064695441400,5.75444140625,-0.3530801236629486,-0.5167919993400574,0.8222246170043945
1766480064705390000,5.76439013671875,-0.3799581825733185,-0.4789183437824249,0.8222246170043945
1766480064715430400,5.774430419921875,-0.43249258399009705,-0.45692721009254456,0.9260717034339905
1766480064725440300,5.784440185546875,-0.4899139404296875,-0.4593706727027893,0.9969320893287659
1766480064735450000,5.7944501953125,-0.5619960427284241,-0.46547931432724,1.0629055500030518
1766480064745459700,5.804459716796875,-0.636521577835083,-0.4605923891067505,1.2217304706573486
1766480064795447600,5.854447509765625,-0.9334021210670471,-0.513126790523529,1.3781119585037231
1766480064805457400,5.86445751953125,-0.9847147464752197,-0.5558874011039734,1.7482963800430298
1766480064815467000,5.874467041015625,-0.9810495972633362,-0.5815436840057373,2.096489429473877
1766480064825476900,5.884476806640625,-0.9615018963813782,-0.607200026512146,2.3066272735595703
1766480064835486700,5.89448681640625,-0.9224064946174622,-0.6279694437980652,2.3212878704071045
1766480064845435400,5.904435302734375,-0.8759807348251343,-0.616973876953125,2.1624629497528076
1766480064865454800,5.924454833984375,-0.8833111524581909,-0.6414085030555725,1.8472565412521362
1766480064885474600,5.944474609375,-0.8662069439888,-0.797789990901947,2.105041742324829
1766480064895484200,5.954484130859375,-0.846659243106842,-0.8295549750328064,2.1649065017700195
1766480064915503600,5.974503662109375,-0.836885392665863,-0.8943067193031311,2.054950714111328
1766480064925452500,5.98445263671875,-0.7867944240570068,-0.9517280459403992,2.1197023391723633
1766480064935492900,5.994492919921875,-0.7635815739631653,-1.0286970138549805,2.026850938796997
1766480064945441500,6.004441650390625,-0.7342600226402283,-1.1435397863388062,1.6297885179519653
1766480064975501300,6.034501220703125,-0.5326744914054871,-1.36955988407135,0.3127630054950714
1766480064995520800,6.054520751953125,-0.4178318381309509,-1.2510520219802856,0.2932153046131134
1766480065005469400,6.064469482421875,-0.4080579876899719,-1.1496484279632568,0.5119050741195679
1766480065015509800,6.074509765625,-0.4153883755207062,-1.0751228332519531,1.0580185651779175
1766480065025458700,6.084458740234375,-0.2565633952617645,-1.1337659358978271,2.0561723709106445
1766480065035498800,6.094498779296875,-0.11728613078594208,-1.2192870378494263,2.972470283508301
1766480065045508600,6.104508544921875,-0.1111774742603302,-1.3182471990585327,3.260798692703247
1766480065055518500,6.1145185546875,-0.10262536257505417,-1.3927727937698364,2.961474657058716
1766480065095496400,6.154496337890625,0.21991148591041565,-1.4184291362762451,0.9908234477043152
1766480065105506000,6.164506103515625,0.3139847218990326,-1.4575244188308716,1.076344609260559
1766480065115516000,6.174515869140625,0.35552358627319336,-1.5137240886688232,1.36955988407135
1766480065125525800,6.18452587890625,0.37629300355911255,-1.568701982498169,1.6297885179519653
1766480065135505000,6.1945048828125,0.4056145250797272,-1.6493362188339233,1.8179349899291992
1766480065145514800,6.2045146484375,0.46303585171699524,-1.7397441864013672,1.9633208513259888
1766480065155524600,6.214524658203125,0.5204572081565857,-1.804495930671692,1.9804251194000244
1766480065205543000,6.26454296875,0.720820963382721,-1.842369556427002,1.2486085891723633
1766480065215522000,6.27452197265625,0.7574729323387146,-1.8851301670074463,1.226617455482483
1766480065225532000,6.284531982421875,0.7819074988365173,-1.95965576171875,1.1997393369674683
1766480065235541500,6.29454150390625,0.769690215587616,-2.0195205211639404,1.1313223838806152
1766480065245551400,6.30455126953125,0.7024950385093689,-2.0500638484954834,0.9712757468223572
1766480065255561200,6.314561279296875,0.6316346526145935,-2.074498414993286,0.7464773058891296
1766480065265570800,6.32457080078125,0.5852088928222656,-2.0891592502593994,0.5302310585975647
1766480065285590500,6.344590576171875,0.504574716091156,-2.096489429473877,0.13439035415649414
1766480065295600000,6.35460009765625,0.5167919993400574,-2.118480682373047,0.018325956538319588
1766480065305610000,6.36460986328125,0.5119050741195679,-2.1258111000061035,-0.08674286305904388
1766480065315589000,6.374589111328125,0.5106833577156067,-2.1197023391723633,-0.16859880089759827
1766480065325599000,6.384598876953125,0.5375614166259766,-2.1197023391723633,-0.1869247704744339
1766480065335608800,6.39460888671875,0.5375614166259766,-2.1197023391723633,-0.1869247704744339
1766480065345588000,6.404587890625,0.5681046843528748,-2.120924234390259,-0.17959438264369965
1766480065355597800,6.414597900390625,0.588874101638794,-2.109928607940674,-0.2064724564552307
1766480065365577000,6.424576904296875,0.6047565937042236,-2.0842721462249756,-0.25045475363731384
1766480065375586800,6.4345869140625,0.6206390857696533,-2.0500638484954834,-0.26511552929878235
1766480065405555000,6.464554931640625,0.7122688889503479,-2.0390682220458984,0.08185594528913498
1766480065415564800,6.474564697265625,0.6988298296928406,-2.03540301322937,0.09040805697441101
1766480065425513500,6.484513427734375,0.6597344875335693,-1.9999728202819824,-0.006108652334660292
1766480065435492900,6.494492919921875,0.6194173693656921,-1.9511035680770874,-0.14416420459747314
1766480065445502500,6.50450244140625,0.6145304441452026,-1.9132299423217773,-0.22602014243602753
1766480065455512300,6.51451220703125,0.6328563690185547,-1.9022343158721924,-0.25534167885780334
1766480065465522000,6.52452197265625,0.6524040699005127,-1.89979088306427,-0.2993239760398865
1766480065475531800,6.53453173828125,0.6707300543785095,-1.8973474502563477,-0.384845107793808
1766480065485511200,6.54451123046875,0.6731734871864319,-1.881464958190918,-0.4691445231437683
1766480065495520800,6.554520751953125,0.6377432942390442,-1.8545868396759033,-0.5277875661849976
1766480065505500200,6.564500244140625,0.6243042945861816,-1.8374826908111572,-0.4508185386657715
1766480065515479300,6.574479248046875,0.6316346526145935,-1.8582520484924316,-0.251676470041275
1766480065525458700,6.584458740234375,0.6133087277412415,-1.8949040174484253,-0.07330382615327835
1766480065535468300,6.59446826171875,0.5583308339118958,-1.910786509513855,-0.02321287989616394
1766480065545478100,6.60447802734375,0.504574716091156,-1.901012659072876,-0.09529497474431992
1766480065555487700,6.61448779296875,0.4715879559516907,-1.891238808631897,-0.21135938167572021
1766480065565497600,6.62449755859375,0.44715335965156555,-1.8839083909988403,-0.33597588539123535
1766480065575507500,6.634507568359375,0.4141666293144226,-1.8753563165664673,-0.47769662737846375
1766480065585517000,6.64451708984375,0.40072759985923767,-1.86191725730896,-0.616973876953125
1766480065595527000,6.65452685546875,0.4092797040939331,-1.843591332435608,-0.7464773058891296
1766480065605536800,6.664536865234375,0.3933972120285034,-1.8020524978637695,-0.8735373020172119
1766480065615546400,6.67454638671875,0.3677408695220947,-1.7482963800430298,-0.9566149711608887
1766480065625525800,6.68452587890625,0.38117989897727966,-1.7018705606460571,-0.9346238374710083
1766480065635535400,6.694535400390625,0.40194934606552124,-1.654223084449768,-0.8491026759147644
1766480065645545200,6.704545166015625,0.39217549562454224,-1.5931365489959717,-0.7745771408081055
1766480065655555000,6.71455517578125,0.3799581825733185,-1.5222761631011963,-0.7305948138237
1766480065665534200,6.7245341796875,0.39095374941825867,-1.4440854787826538,-0.6939429044723511
1766480065675513600,6.734513671875,0.41172316670417786,-1.359786033630371,-0.656069278717041
1766480065685492700,6.74449267578125,0.4300491213798523,-1.2596040964126587,-0.6377432942390442
1766480065705481700,6.764481689453125,0.5204572081565857,-1.056796908378601,-0.5571091175079346
1766480065715522000,6.77452197265625,0.5681046843528748,-0.9615018963813782,-0.4911356568336487
1766480065725532000,6.784531982421875,0.6023131608963013,-0.8662069439888,-0.4349360466003418
1766480065735541500,6.79454150390625,0.6536257863044739,-0.7806857824325562,-0.3481931984424591
1766480065745551400,6.80455126953125,0.6829473376274109,-0.6914994716644287,-0.2577851414680481
1766480065755561200,6.814561279296875,0.6927211880683899,-0.598647952079773,-0.16249015927314758
1766480065765540400,6.824540283203125,0.7098253965377808,-0.5241223573684692,-0.05375614017248154
1766480065775550200,6.83455029296875,0.7171558141708374,-0.4605923891067505,0.02687807008624077
1766480065785559800,6.844559814453125,0.6902777552604675,-0.39095374941825867,0.05375614017248154
1766480065805548800,6.864548828125,0.6291912198066711,-0.2577851414680481,0.03298672288656235
1766480065815528200,6.874528076171875,0.618195652961731,-0.2064724564552307,0
1766480065825507300,6.88450732421875,0.6096435189247131,-0.1563815027475357,-0.06841690838336945
1766480065835547600,6.894547607421875,0.6035348773002625,-0.10506882518529892,-0.18081611394882202
1766480065845527000,6.904527099609375,0.5876523852348328,-0.0403171069920063,-0.32131510972976685
1766480065855536600,6.91453662109375,0.588874101638794,0.021991148591041565,-0.4349360466003418
1766480065865546500,6.92454638671875,0.616973876953125,0.07941248267889023,-0.48869219422340393
1766480065875556000,6.93455615234375,0.6279694437980652,0.14538592100143433,-0.4899139404296875
1766480065885505000,6.944505126953125,0.618195652961731,0.22602014243602753,-0.44715335965156555
1766480065895484200,6.954484130859375,0.636521577835083,0.29565876722335815,-0.3139847218990326
1766480065905463600,6.964463623046875,0.6621779203414917,0.33597588539123535,-0.12828169763088226
1766480065925421800,6.984421875,0.6487388610839844,0.3738495409488678,0.14538592100143433
1766480065935462100,6.994462158203125,0.6340781450271606,0.3995058834552765,0.20402899384498596
1766480065945472000,7.004471923828125,0.618195652961731,0.43615779280662537,0.23457226157188416
1766480065955481900,7.01448193359375,0.607200026512146,0.46792277693748474,0.24190263450145721
1766480065965461000,7.0244609375,0.598647952079773,0.49846604466438293,0.22846360504627228
1766480065985450000,7.044449951171875,0.588874101638794,0.5448917746543884,0.17348572611808777
1766480065995459800,7.0544599609375,0.588874101638794,0.5448917746543884,0.17348572611808777
1766480066015448800,7.07444873046875,0.5791002511978149,0.5681046843528748,0.25045475363731384
1766480066025458700,7.084458740234375,0.5766568183898926,0.5693264007568359,0.3689626157283783
1766480066035468300,7.09446826171875,0.5717698931694031,0.5558874011039734,0.5094616413116455
1766480066045478100,7.10447802734375,0.5693264007568359,0.5338962078094482,0.6414085030555725
1766480066055487700,7.11448779296875,0.5742133259773254,0.5106833577156067,0.7428121566772461
1766480066065467100,7.124467041015625,0.6047565937042236,0.4948008358478546,0.8161159753799438
1766480066075507500,7.134507568359375,0.6670648455619812,0.4911356568336487,0.8686503767967224
1766480066085486600,7.144486572265625,0.7367035150527954,0.4948008358478546,0.8967501521110535
1766480066095527000,7.15452685546875,0.789237916469574,0.48747047781944275,0.9028588533401489
1766480066105536800,7.164536865234375,0.8295549750328064,0.4544837474822998,0.9260717034339905
1766480066135566000,7.194566162109375,0.8319984674453735,0.2919935882091522,1.176526427268982
1766480066145545200,7.204545166015625,0.7171558141708374,0.27611109614372253,1.197295904159546
1766480066155555000,7.21455517578125,0.5803219676017761,0.27000242471694946,1.1911872625350952
1766480066165564700,7.224564697265625,0.4288274049758911,0.26511552929878235,1.1508700847625732
1766480066175574500,7.234574462890625,0.26022860407829285,0.2638937830924988,1.0494664907455444
1766480066185553700,7.2445537109375,0.09896016865968704,0.27000242471694946,0.9126327037811279
1766480066195563500,7.2545634765625,-0.03298672288656235,0.2736676335334778,0.7757988572120667
1766480066205573400,7.264573486328125,-0.14416420459747314,0.2687807083129883,0.6719517707824707
1766480066215583000,7.2745830078125,-0.2431243658065796,0.26022860407829285,0.6010913848876953
1766480066235633200,7.294633056640625,-0.37262779474258423,0.2431243658065796,0.5729916095733643
1766480066245612300,7.3046123046875,-0.39217549562454224,0.22357667982578278,0.6230825781822205
1766480066255622100,7.3146220703125,-0.40194934606552124,0.21624629199504852,0.6976081132888794
1766480066265601300,7.324601318359375,-0.39584067463874817,0.20891591906547546,0.788016140460968
1766480066275641600,7.3346416015625,-0.37140607833862305,0.18814650177955627,0.8857545852661133
1766480066285651500,7.3446513671875,-0.3433062732219696,0.14905111491680145,0.9578366875648499
1766480066295661300,7.354661376953125,-0.33108896017074585,0.10995574295520782,0.998153805732727
1766480066305640400,7.364640380859375,-0.34086281061172485,0.0806342139840126,1.0054842233657837
1766480066315619600,7.37461962890625,-0.3591887652873993,0.06108652427792549,1.0103710889816284
1766480066335639300,7.394639404296875,-0.44593164324760437,0.025656340643763542,0.9737191796302795
1766480066345618400,7.404618408203125,-0.5180137157440186,0.0354301854968071,0.8820894360542297
1766480066355658800,7.41465869140625,-0.5925393104553223,0.06475171446800232,0.7489207983016968
1766480066365607400,7.424607421875,-0.6695083379745483,0.11239920556545258,0.608421802520752
1766480066375647700,7.434647705078125,-0.7476990818977356,0.1661553531885147,0.49724429845809937
1766480066385657600,7.44465771484375,-0.8210029006004333,0.2223549485206604,0.4288274049758911
1766480066395667200,7.454667236328125,-0.8918632864952087,0.27122417092323303,0.40683624148368835
1766480066405646600,7.464646484375,-0.9590584635734558,0.31154128909111023,0.41172316670417786
1766480066415656400,7.474656494140625,-1.016479730606079,0.3494149148464203,0.42271876335144043
1766480066425666000,7.484666015625,-1.06657075881958,0.39095374941825867,0.4178318381309509
1766480066455695400,7.5146953125,-1.1997393369674683,0.5473352670669556,0.3530801236629486
1766480066465705200,7.524705322265625,-1.226617455482483,0.5766568183898926,0.33475416898727417
1766480066475745500,7.53474560546875,-1.244943380355835,0.5925393104553223,0.3078760802745819
1766480066485755100,7.544755126953125,-1.2596040964126587,0.6035348773002625,0.2577851414680481
1766480066495765000,7.554764892578125,-1.263269305229187,0.6218608021736145,0.2076941877603531
1766480066505744100,7.564744140625,-1.2705997228622437,0.6487388610839844,0.16004669666290283
1766480066515723500,7.5747236328125,-1.2877039909362793,0.6695083379745483,0.11972958594560623
1766480066525733000,7.584733154296875,-1.302364706993103,0.6878342628479004,0.09773843735456467
1766480066555762400,7.614762451171875,-1.2779301404953003,0.8136724829673767,0.16371189057826996
1766480066565772300,7.624772216796875,-1.2754865884780884,0.836885392665863,0.22113321721553802
1766480066575751400,7.63475146484375,-1.29381263256073,0.8258898258209229,0.2919935882091522
1766480066585761300,7.64476123046875,-1.2962560653686523,0.8246681094169617,0.3897320330142975
1766480066595740700,7.65474072265625,-1.291369080543518,0.7782423496246338,0.4862487316131592
1766480066605750300,7.664750244140625,-1.2779301404953003,0.759916365146637,0.5766568183898926
1766480066615729700,7.674729736328125,-1.2669345140457153,0.7538077235221863,0.6133087277412415
1766480066625708800,7.684708740234375,-1.2852604389190674,0.7452555894851685,0.6010913848876953
1766480066635749000,7.6947490234375,-1.2852604389190674,0.7452555894851685,0.6010913848876953
1766480066685675800,7.74467578125,-1.4172073602676392,0.6805039048194885,1.4404202699661255
1766480066695685600,7.754685546875,-1.4648548364639282,0.6316346526145935,1.6310101747512817
1766480066705695500,7.764695556640625,-1.480737328529358,0.5681046843528748,1.712866187095642
1766480066715735600,7.774735595703125,-1.4672982692718506,0.5167919993400574,1.6798794269561768
1766480066725745400,7.784745361328125,-1.4440854787826538,0.46670106053352356,1.5723671913146973
1766480066735724800,7.794724853515625,-1.4025466442108154,0.42638394236564636,1.4306464195251465
1766480066745734400,7.804734375,-1.3255776166915894,0.38606682419776917,1.2400563955307007
1766480066755713800,7.8147138671875,-1.2119566202163696,0.3799581825733185,1.0519099235534668
1766480066775702800,7.834702880859375,-0.9896016716957092,0.4691445231437683,0.8246681094169617
1766480066785682000,7.844681884765625,-0.8185594081878662,0.5583308339118958,0.7941248416900635
1766480066795691800,7.85469189453125,-0.636521577835083,0.6206390857696533,0.720820963382721
1766480066805701400,7.864701416015625,-0.4862487316131592,0.6731734871864319,0.6841690540313721
1766480066815680800,7.8746806640625,-0.28099802136421204,0.7513642311096191,0.7941248416900635
1766480066825690600,7.884690673828125,-0.0024434609804302454,0.8625417351722717,0.960280179977417
1766480066835700200,7.8947001953125,0.21868975460529327,0.9773843884468079,1.018923282623291
1766480066845710000,7.9047099609375,0.38606682419776917,1.1020009517669678,1.0433578491210938
1766480066855719700,7.9147197265625,0.5705481171607971,1.2315043210983276,1.1056660413742065
1766480066865699000,7.924698974609375,0.7110471725463867,1.3548991680145264,1.1704177856445312
1766480066885657600,7.94465771484375,0.8857545852661133,1.510058879852295,1.2034045457839966
1766480066895667200,7.954667236328125,0.9431759119033813,1.587027907371521,1.2388347387313843
1766480066905616100,7.9646162109375,0.9578366875648499,1.6395623683929443,1.2767083644866943
1766480066915656400,7.974656494140625,0.950506329536438,1.6701055765151978,1.2681562900543213
1766480066925666000,7.984666015625,0.9028588533401489,1.6896532773971558,1.1582005023956299
1766480066935706400,7.994706298828125,0.797789990901947,1.6908750534057617,0.960280179977417
1766480066945655000,8.004655029296876,0.6927211880683899,1.6872098445892334,0.7220427393913269
1766480066965674800,8.0246748046875,0.34086281061172485,1.6615535020828247,0.11484266817569733
1766480066995673300,8.05467333984375,0.13561208546161652,1.7837265729904175,-0.01466076634824276
1766480067005683200,8.06468310546875,0.03787364438176155,1.8484781980514526,-0.17592918872833252
1766480067015693000,8.074693115234375,-0.1417207419872284,1.9620991945266724,0.375071257352829
1766480067025702700,8.08470263671875,-0.2541199326515198,1.6603317260742188,1.9132299423217773
1766480067035712500,8.09471240234375,-0.44104471802711487,0.9175195693969727,1.853365182876587
1766480067045722000,8.10472216796875,0.1014036312699318,0.8637634515762329,0.636521577835083
1766480067055732000,8.11473193359375,0.2321287989616394,0.8918632864952087,-0.4080579876899719
1766480067065711400,8.12471142578125,-0.16249015927314758,0.8136724829673767,-0.8185594081878662
1766480067105750300,8.164750244140626,-0.01710422709584236,-0.03787364438176155,-0.4862487316131592
1766480067115729700,8.174729736328125,0.09040805697441101,-0.07330382615327835,-0.8258898258209229
1766480067125739300,8.1847392578125,0.14782938361167908,-0.11728613078594208,-0.9346238374710083
1766480067135749000,8.1947490234375,0.19425514340400696,-0.1918116807937622,-0.8319984674453735
1766480067145759000,8.204759033203125,0.19547687470912933,-0.24556782841682434,-0.7550294399261475
1766480067155738000,8.214738037109376,0.15271630883216858,-0.23457226157188416,-0.759916365146637
1766480067165748000,8.224748046875,0.12217304855585098,-0.17959438264369965,-0.6609562039375305
1766480067175757600,8.234757568359376,0.13561208546161652,-0.1466076523065567,-0.42638394236564636
1766480067195746600,8.25474658203125,0.13561208546161652,-0.18325957655906677,-0.09773843735456467
1766480067205726000,8.264725830078126,0.16493362188339233,-0.23945917189121246,-0.07208210229873657
1766480067225715000,8.28471484375,0.22357667982578278,-0.24556782841682434,-0.17592918872833252
1766480067235724800,8.294724853515625,0.2431243658065796,-0.24434609711170197,-0.08185594528913498
1766480067245704000,8.304703857421876,0.20525072515010834,-0.3176499307155609,0.10262536257505417
1766480067255683000,8.31468310546875,0.17959438264369965,-0.3579670190811157,0.18814650177955627
1766480067265693000,8.32469287109375,0.21013765037059784,-0.33719760179519653,0.17837265133857727
1766480067285651500,8.3446513671875,0.2932153046131134,-0.14294247329235077,0.28099802136421204
1766480067325660000,8.384659912109376,0.50335294008255,0.13561208546161652,0.7171558141708374
1766480067335669800,8.394669677734376,0.5009095072746277,0.21624629199504852,0.8014551997184753
1766480067345649000,8.40464892578125,0.4495968222618103,0.2638937830924988,0.7257078886032104
1766480067355658800,8.41465869140625,0.41661009192466736,0.2871066629886627,0.4948008358478546
1766480067365638000,8.424637939453126,0.4495968222618103,0.3066543638706207,0.3078760802745819
1766480067375647700,8.434647705078126,0.5192354321479797,0.3066543638706207,0.24434609711170197
1766480067385627100,8.444627197265625,0.5693264007568359,0.294437050819397,0.3017674386501312
1766480067395636700,8.45463671875,0.6010913848876953,0.27488934993743896,0.3481931984424591
1766480067435614700,8.49461474609375,0.5497786998748779,0.41172316670417786,0.6927211880683899
1766480067445624600,8.50462451171875,0.5619960427284241,0.42149701714515686,0.6988298296928406
1766480067455603700,8.514603759765626,0.5876523852348328,0.44104471802711487,0.6450737118721008
1766480067465613600,8.524613525390626,0.6108652353286743,0.45814892649650574,0.5387831330299377
1766480067475623400,8.53462353515625,0.6255260109901428,0.4642575979232788,0.4190535545349121
1766480067485633000,8.544633056640626,0.6194173693656921,0.4593706727027893,0.3591887652873993
1766480067525611300,8.584611328125,0.7024950385093689,0.19547687470912933,0.00733038317412138
1766480067535620900,8.594620849609376,0.7293730974197388,0.08674286305904388,-0.14538592100143433
1766480067545569500,8.604569580078126,0.7330383062362671,-0.0012217304902151227,-0.29077184200286865
1766480067555609900,8.61460986328125,0.7195992469787598,-0.03420845419168472,-0.4605923891067505
1766480067565589200,8.62458935546875,0.6878342628479004,-0.04764748737215996,-0.5265658497810364
1766480067575598800,8.634598876953126,0.6585127115249634,-0.08307767659425735,-0.4105014503002167
1766480067585608700,8.644608642578126,0.6279694437980652,-0.1160643994808197,-0.21013765037059784
1766480067595618600,8.65461865234375,0.5827654600143433,-0.11362093687057495,0.010995574295520782
1766480067605597700,8.66459765625,0.5180137157440186,-0.10262536257505417,0.1514945775270462
1766480067635596500,8.694596435546876,0.27977627515792847,-0.12828169763088226,0.32986724376678467
1766480067655616000,8.714615966796876,0.06719517707824707,-0.13316862285137177,0.1966986060142517
1766480067665595400,8.724595458984375,0.0012217304902151227,-0.09407325088977814,0.13072516024112701
1766480067675574500,8.734574462890626,-0.00855211354792118,-0.04764748737215996,0.15882496535778046
1766480067685553700,8.7445537109375,-0.05009094998240471,-0.02076941914856434,0.2871066629886627
1766480067695594000,8.754593994140626,-0.07452555745840073,-0.030543262138962746,0.44593164324760437
1766480067705543000,8.76454296875,-0.09040805697441101,-0.015882495790719986,0.5400048494338989
1766480067735572000,8.794572021484376,-0.17959438264369965,0.10751228034496307,0.33597588539123535
1766480067755561200,8.814561279296875,-0.25534167885780334,0.22113321721553802,-0.16859880089759827
1766480067765570800,8.82457080078125,-0.25045475363731384,0.24923302233219147,-0.2932153046131134
1766480067775580700,8.83458056640625,-0.2431243658065796,0.26145032048225403,-0.3481931984424591
1766480067785590500,8.844590576171875,-0.2577851414680481,0.27977627515792847,-0.3628539443016052
1766480067795600100,8.85460009765625,-0.26145032048225403,0.31520646810531616,-0.31642818450927734
1766480067805579500,8.86457958984375,-0.2981022298336029,0.3628539443016052,-0.23945917189121246
1766480067815589000,8.874589111328126,-0.3274237811565399,0.4190535545349121,-0.1820378452539444
1766480067835578000,8.894578125,-0.3176499307155609,0.5119050741195679,-0.09651670604944229
1766480067845588000,8.904587890625,-0.3286454975605011,0.5338962078094482,-0.09529497474431992
1766480067855597800,8.914597900390625,-0.3274237811565399,0.5510004758834839,-0.15027284622192383
1766480067865607400,8.924607421875,-0.37262779474258423,0.5326744914054871,-0.18814650177955627
1766480067875617300,8.9346171875,-0.4337143301963806,0.4899139404296875,-0.22357667982578278
1766480067885596400,8.944596435546876,-0.4642575979232788,0.4447098970413208,-0.2675589919090271
1766480067895606300,8.954606201171876,-0.5400048494338989,0.36529740691185,-0.21135938167572021
1766480067905616100,8.9646162109375,-0.5998696684837341,0.31154128909111023,-0.09529497474431992
1766480067915625700,8.974625732421876,-0.626747727394104,0.3323107063770294,-0.04153883829712868
1766480067955634400,9.014634521484375,-0.6646214127540588,0.4105014503002167,-0.05375614017248154
1766480067975623400,9.03462353515625,-0.7232644557952881,0.48869219422340393,0.05253441259264946
1766480067985633000,9.044633056640626,-0.7415903806686401,0.5387831330299377,0.07452555745840073
1766480067995612400,9.0546123046875,-0.740368664264679,0.5717698931694031,0.04398229718208313
1766480068005622000,9.0646220703125,-0.7318165898323059,0.6023131608963013,0.006108652334660292
1766480068015601400,9.074601318359376,-0.7367035150527954,0.6243042945861816,0.0024434609804302454
1766480068045630700,9.104630615234376,-0.8051204085350037,0.6120869517326355,-0.06963863968849182
1766480068055640600,9.114640625,-0.8100073337554932,0.6133087277412415,-0.12339477986097336
1766480068065619700,9.12461962890625,-0.8124507665634155,0.608421802520752,-0.14905111491680145
1766480068075598800,9.134598876953126,-0.8332201838493347,0.6230825781822205,-0.12950342893600464
1766480068085608700,9.144608642578126,-0.8735373020172119,0.646295428276062,-0.05619960278272629
1766480068095618600,9.15461865234375,-0.8759807348251343,0.6438519954681396,-0.04398229718208313
1766480068105597700,9.16459765625,-0.8881980776786804,0.6377432942390442,-0.15027284622192383
1766480068115607600,9.174607666015625,-0.8845328688621521,0.6328563690185547,-0.25045475363731384
1766480068125617200,9.1846171875,-0.8552113175392151,0.6145304441452026,-0.2773328125476837
1766480068155555000,9.21455517578125,-0.7806857824325562,0.5351179838180542,-0.2480112910270691
1766480068165564700,9.224564697265626,-0.7586946487426758,0.5216789245605469,-0.251676470041275
1766480068185553700,9.2445537109375,-0.7183775305747986,0.4911356568336487,-0.2028072625398636
1766480068195563500,9.2545634765625,-0.7183775305747986,0.48380526900291443,-0.16982053220272064
1766480068205512200,9.26451220703125,-0.7391469478607178,0.475253164768219,-0.05742133408784866
1766480068215491600,9.27449169921875,-0.7525860071182251,0.46303585171699524,0.07696902006864548
1766480068225501200,9.284501220703126,-0.7354817390441895,0.44104471802711487,0.12950342893600464
1766480068235480600,9.29448046875,-0.7086036801338196,0.4190535545349121,0.12095131725072861
1766480068245490400,9.304490478515625,-0.6633996367454529,0.42638394236564636,0.13805554807186127
1766480068275458600,9.33445849609375,-0.39584067463874817,0.4239404797554016,0.07330382615327835
1766480068285468400,9.344468505859375,-0.3078760802745819,0.4031710624694824,-0.04642575979232788
1766480068295447600,9.354447509765626,-0.251676470041275,0.394618958234787,-0.09529497474431992
1766480068305427000,9.364427001953125,-0.21135938167572021,0.3982841372489929,-0.07330382615327835
1766480068315467000,9.374467041015626,-0.18325957655906677,0.39217549562454224,-0.05375614017248154
1766480068325446400,9.3844462890625,-0.15271630883216858,0.3787364661693573,-0.03176499158143997
1766480068335425500,9.394425537109376,-0.12339477986097336,0.35063666105270386,-0.015882495790719986
1766480068375403500,9.434403564453126,0.06719517707824707,0.14049901068210602,-0.09651670604944229
1766480068385383000,9.4443828125,0.08918632566928864,0.10506882518529892,-0.0403171069920063
1766480068395362000,9.454362060546876,0.09773843735456467,0.07330382615327835,-0.06108652427792549
1766480068405372000,9.464371826171876,0.10384709388017654,0.045204028487205505,-0.09651670604944229
1766480068415351000,9.47435107421875,0.1258382350206375,0.018325956538319588,-0.1062905490398407
1766480068425300000,9.484300048828125,0.11728613078594208,-0.006108652334660292,-0.11362093687057495
1766480068435279000,9.494279052734376,0.10018189996480942,-0.030543262138962746,-0.08796459436416626
1766480068475318300,9.534318359375,-0.019547687843441963,-0.00855211354792118,0.0354301854968071
1766480068485267000,9.544266845703126,-0.03298672288656235,0.00855211354792118,0.05742133408784866
1766480068495276800,9.55427685546875,-0.05742133408784866,0.018325956538319588,0.028099801391363144
1766480068505225500,9.5642255859375,-0.07696902006864548,0.02321287989616394,0.05375614017248154
1766480068515204600,9.57420458984375,-0.08185594528913498,0.03787364438176155,0.1258382350206375
1766480068525184000,9.58418408203125,-0.08918632566928864,0.05009094998240471,0.17592918872833252
1766480068535163100,9.5941630859375,-0.08918632566928864,0.05009094998240471,0.17592918872833252
1766480068545173000,9.604173095703125,-0.08185594528913498,0.06963863968849182,0.20402899384498596
1766480068585181400,9.644181396484376,0.00855211354792118,0.06963863968849182,0.18936823308467865
1766480068595160800,9.654160888671875,0.036651913076639175,0.059864792972803116,0.11484266817569733
1766480068605170400,9.66417041015625,0.07208210229873657,0.05009094998240471,0.08185594528913498
1766480068615180300,9.67418017578125,0.1111774742603302,0.03420845419168472,0.1160643994808197
1766480068625159400,9.684159423828126,0.13561208546161652,0.025656340643763542,0.1417207419872284
1766480068635138800,9.694138916015625,0.14416420459747314,0.042760565876960754,0.24923302233219147
1766480068645148400,9.7041484375,0.15393804013729095,0.06719517707824707,0.3604104816913605
1766480068675116800,9.73411669921875,0.15027284622192383,0.17348572611808777,0.23457226157188416
1766480068685126700,9.744126708984375,0.15760323405265808,0.2223549485206604,0.22357667982578278
1766480068695136300,9.75413623046875,0.17348572611808777,0.25534167885780334,0.21991148591041565
1766480068705115600,9.76411572265625,0.19547687470912933,0.28099802136421204,0.19425514340400696
1766480068715125200,9.774125244140626,0.21502456068992615,0.294437050819397,0.17470745742321014
1766480068725074000,9.784073974609376,0.21135938167572021,0.2981022298336029,0.19303341209888458
1766480068735083800,9.794083740234376,0.1918116807937622,0.31031954288482666,0.26511552929878235
1766480068745093600,9.80409375,0.17837265133857727,0.29565876722335815,0.33475416898727417
1766480068775092500,9.834092529296875,0.11239920556545258,0.18570303916931152,0.3335324227809906
1766480068805030100,9.864030029296876,0.0757472887635231,0.05375614017248154,0.36163222789764404
1766480068815039700,9.874039794921876,0.05253441259264946,0.03787364438176155,0.30543261766433716
1766480068825049600,9.884049560546876,0.045204028487205505,0.051312681287527084,0.22602014243602753
1766480068835059500,9.8940595703125,0.04153883829712868,0.06841690838336945,0.05497787147760391
1766480068845038600,9.90403857421875,0.05253441259264946,0.08429940044879913,-0.0757472887635231
1766480068855048400,9.91404833984375,0.06841690838336945,0.09285151958465576,-0.1319468915462494
1766480068895026400,9.9540263671875,0.08552113175392151,0.09529497474431992,-0.43737950921058655
1766480068905036300,9.964036376953125,0.0708603709936142,0.06963863968849182,-0.607200026512146
1766480068915046000,9.9740458984375,0.02076941914856434,0.0708603709936142,-0.6218608021736145
1766480068924994800,9.983994873046875,-0.012217304669320583,0.06475171446800232,-0.5900958180427551
1766480068935035000,9.994034912109376,-0.039095375686883926,0.0708603709936142,-0.50335294008255
1766480068945014300,10.00401416015625,-0.0659734457731247,0.09529497474431992,-0.39706242084503174
1766480068965003300,10.024003173828126,-0.05375614017248154,0.13072516024112701,-0.3017674386501312
1766480068984992300,10.0439921875,-0.0354301854968071,0.1612684279680252,-0.28588494658470154
1766480068995002000,10.054002197265625,-0.0024434609804302454,0.1771509200334549,-0.27122417092323303
1766480069005011700,10.06401171875,0.03298672288656235,0.18325957655906677,-0.2773328125476837
1766480069015021600,10.074021484375,0.05742133408784866,0.17837265133857727,-0.2724458873271942
1766480069025000700,10.084000732421876,0.06719517707824707,0.15882496535778046,-0.24068090319633484
1766480069035010600,10.094010498046876,0.07819075137376785,0.11728613078594208,-0.21502456068992615
1766480069044989700,10.10398974609375,0.08796459436416626,0.0806342139840126,-0.22357667982578278
1766480069054999600,10.11399951171875,0.1160643994808197,0.05375614017248154,-0.2382374405860901
1766480069095008300,10.15400830078125,0.1062905490398407,0.05009094998240471,-0.02687807008624077
1766480069104987400,10.1639873046875,0.1258382350206375,0.0354301854968071,0.10873401165008545
1766480069114966500,10.173966552734376,0.1466076523065567,-0.00733038317412138,0.1771509200334549
1766480069124946000,10.18394580078125,0.16737708449363708,-0.02932153269648552,0.294437050819397
1766480069134925000,10.193925048828126,0.15760323405265808,-0.0708603709936142,0.4288274049758911
1766480069144935000,10.203934814453126,0.11239920556545258,-0.1466076523065567,0.5900958180427551
1766480069154944800,10.21394482421875,0.05864306539297104,-0.21013765037059784,0.6218608021736145
1766480069194861600,10.253861572265626,0.021991148591041565,-0.26145032048225403,0.3836233615875244
1766480069204841000,10.263841064453125,-0.00366519158706069,-0.2675589919090271,0.2626720666885376
1766480069214850600,10.2738505859375,-0.059864792972803116,-0.32009339332580566,0.23090706765651703
1766480069224860400,10.2838603515625,-0.12217304855585098,-0.3677408695220947,0.2480112910270691
1766480069234870300,10.293870361328125,-0.16371189057826996,-0.384845107793808,0.27488934993743896
1766480069244849400,10.303849365234376,-0.14538592100143433,-0.394618958234787,0.2871066629886627
1766480069254828800,10.313828857421875,-0.1111774742603302,-0.394618958234787,0.19914206862449646
1766480069264838400,10.32383837890625,-0.036651913076639175,-0.3640756905078888,0.08918632566928864
1766480069284797000,10.343796875,0.06352998316287994,-0.2883284091949463,-0.010995574295520782
1766480069294776300,10.3537763671875,0.10018189996480942,-0.2272418737411499,-0.08429940044879913
1766480069304786000,10.363785888671876,0.07819075137376785,-0.18814650177955627,-0.1111774742603302
1766480069314795800,10.373795654296876,0.06352998316287994,-0.14538592100143433,-0.08796459436416626
1766480069324775000,10.38377490234375,0.06963863968849182,-0.0757472887635231,-0.04153883829712868
1766480069334754300,10.39375439453125,0.07452555745840073,-0.039095375686883926,-0.042760565876960754
1766480069344733400,10.4037333984375,0.08185594528913498,0.01710422709584236,-0.02076941914856434
1766480069354743300,10.413743408203125,0.07208210229873657,0.05619960278272629,0.013439035043120384
1766480069364753000,10.4237529296875,0.04398229718208313,0.05253441259264946,0.06963863968849182
1766480069414740700,10.47374072265625,0.00733038317412138,0.09285151958465576,0.4593706727027893
1766480069434729700,10.493729736328126,0.0659734457731247,0.04642575979232788,0.05253441259264946
1766480069444709000,10.503709228515625,0.06108652427792549,-0.02321287989616394,-0.01466076634824276
1766480069454688300,10.513688232421876,0.01466076634824276,-0.042760565876960754,0.14416420459747314
1766480069464667600,10.523667724609375,0,-0.08918632566928864,0.40072759985923767
1766480069474646800,10.533646728515626,0.030543262138962746,-0.13316862285137177,0.40683624148368835
1766480069504584400,10.56358447265625,0.16249015927314758,-0.06230825558304787,-0.4691445231437683
1766480069514594300,10.57359423828125,0.19058994948863983,-0.04642575979232788,-0.6914994716644287
1766480069524573400,10.583573486328126,0.21135938167572021,-0.009773843921720982,-0.8063421249389648
1766480069534552800,10.593552734375,0.22479841113090515,0.06230825558304787,-0.8588765263557434
1766480069544562700,10.603562744140625,0.2272418737411499,0.1319468915462494,-0.8930850028991699
1766480069554572300,10.613572265625,0.22602014243602753,0.16982053220272064,-0.8943067193031311
1766480069564551700,10.6235517578125,0.24068090319633484,0.2076941877603531,-0.8600982427597046
1766480069574530800,10.63353076171875,0.24068090319633484,0.251676470041275,-0.846659243106842
1766480069614508800,10.6735087890625,0.2125810980796814,0.3530801236629486,-0.6951646208763123
1766480069624488200,10.68348828125,0.2125810980796814,0.3738495409488678,-0.6316346526145935
1766480069634467300,10.69346728515625,0.19914206862449646,0.37629300355911255,-0.598647952079773
1766480069644446700,10.70344677734375,0.19547687470912933,0.39095374941825867,-0.5571091175079346
1766480069664405000,10.723405029296876,0.2015855312347412,0.3701843321323395,-0.44837507605552673
1766480069674384400,10.73338427734375,0.18081611394882202,0.35063666105270386,-0.3897320330142975
1766480069684363500,10.743363525390626,0.16493362188339233,0.29565876722335815,-0.34208452701568604
1766480069714332000,10.773331787109376,0.04886921867728233,0.17470745742321014,-0.021991148591041565
1766480069724311000,10.78331103515625,0.004886921960860491,0.12828169763088226,0.1820378452539444
1766480069734321000,10.79332080078125,-0.05497787147760391,0.07330382615327835,0.3799581825733185
1766480069754310000,10.813309814453126,-0.1820378452539444,-0.07208210229873657,0.7819074988365173
1766480069764289000,10.8232890625,-0.21502456068992615,-0.17104226350784302,0.7574729323387146
1766480069774268400,10.833268310546876,-0.21502456068992615,-0.17104226350784302,0.7574729323387146
1766480069784247600,10.84324755859375,-0.1869247704744339,-0.24190263450145721,0.5314527750015259
1766480069794227000,10.85322705078125,-0.1869247704744339,-0.24190263450145721,0.5314527750015259
1766480069824225500,10.8832255859375,-0.12828169763088226,-0.18570303916931152,0.2272418737411499
1766480069834265900,10.893265869140626,-0.13072516024112701,-0.15882496535778046,0.18570303916931152
1766480069844275700,10.903275634765626,-0.14538592100143433,-0.1417207419872284,0.20036379992961884
1766480069854254800,10.9132548828125,-0.15760323405265808,-0.13316862285137177,0.22113321721553802
1766480069864234200,10.923234130859376,-0.17104226350784302,-0.12339477986097336,0.2638937830924988
1766480069874243800,10.933243896484376,-0.18570303916931152,-0.09285151958465576,0.32986724376678467
1766480069884223200,10.94322314453125,-0.20036379992961884,-0.07330382615327835,0.384845107793808
1766480069894263600,10.953263671875,-0.19547687470912933,-0.07819075137376785,0.3274237811565399
1766480069904242700,10.96324267578125,-0.17470745742321014,-0.051312681287527084,0.24678955972194672
1766480069924262400,10.983262451171875,-0.1319468915462494,-0.0012217304902151227,0.09896016865968704
1766480069934272000,10.99327197265625,-0.1160643994808197,0.025656340643763542,0.08918632566928864
1766480069944251400,11.00325146484375,-0.10995574295520782,0.04886921867728233,0.12828169763088226
1766480069954230500,11.01323046875,-0.1111774742603302,0.04764748737215996,0.18814650177955627
1766480069964240400,11.023240478515625,-0.10995574295520782,0.042760565876960754,0.2370157092809677
1766480069974250000,11.03325,-0.10751228034496307,0.042760565876960754,0.26633724570274353
1766480069984229400,11.0432294921875,-0.09651670604944229,0.0403171069920063,0.2590068578720093
1766480069994239000,11.053239013671876,-0.08429940044879913,0.028099801391363144,0.2125810980796814
1766480070004248800,11.063248779296876,-0.06963863968849182,0.013439035043120384,0.17837265133857727
1766480070014258700,11.0732587890625,-0.03420845419168472,0.02321287989616394,0.1563815027475357
1766480070044257300,11.10325732421875,0.01466076634824276,0.004886921960860491,0.08307767659425735
1766480070054297600,11.113297607421876,0.0024434609804302454,-0.0012217304902151227,0.05864306539297104
1766480070064277000,11.123277099609375,-0.015882495790719986,-0.010995574295520782,0.04886921867728233
1766480070074286600,11.13328662109375,-0.021991148591041565,-0.03298672288656235,0.06230825558304787
1766480070084266000,11.143265869140626,-0.0403171069920063,-0.05497787147760391,0.08552113175392151
1766480070094245000,11.1532451171875,-0.059864792972803116,-0.06963863968849182,0.10873401165008545
1766480070104255000,11.1632548828125,-0.06475171446800232,-0.08429940044879913,0.11239920556545258
1766480070114264800,11.173264892578125,-0.06352998316287994,-0.08552113175392151,0.09285151958465576
1766480070124274400,11.1832744140625,-0.05375614017248154,-0.0708603709936142,0.06352998316287994
1766480070134253800,11.19325390625,-0.036651913076639175,-0.06352998316287994,0.0354301854968071
1766480070154273300,11.213273193359376,-0.03176499158143997,-0.03298672288656235,0.02687807008624077
1766480070164283100,11.223283203125,-0.03176499158143997,-0.025656340643763542,0.06841690838336945
1766480070184272100,11.243272216796875,-0.03420845419168472,-0.036651913076639175,0.20525072515010834
1766480070194251300,11.253251220703126,-0.051312681287527084,-0.06963863968849182,0.16737708449363708
1766480070204261000,11.26326123046875,-0.04886921867728233,-0.08429940044879913,0.1270599663257599
1766480070214270700,11.273270751953126,-0.042760565876960754,-0.08185594528913498,0.10873401165008545
1766480070224250000,11.28325,-0.045204028487205505,-0.08185594528913498,0.0757472887635231
1766480070234290400,11.29329052734375,-0.05497787147760391,-0.09896016865968704,0.028099801391363144
1766480070264228000,11.32322802734375,-0.06841690838336945,-0.14294247329235077,0.0354301854968071
1766480070274268400,11.333268310546876,-0.0708603709936142,-0.14782938361167908,0.039095375686883926
1766480070284247600,11.34324755859375,-0.09040805697441101,-0.14416420459747314,0.08429940044879913
1766480070304236500,11.363236572265626,-0.14049901068210602,-0.13439035415649414,0.27977627515792847
1766480070314276900,11.37327685546875,-0.18936823308467865,-0.14294247329235077,0.40683624148368835
1766480070324225500,11.3832255859375,-0.25045475363731384,-0.18081611394882202,0.5473352670669556
1766480070344245200,11.403245361328125,-0.33719760179519653,-0.3628539443016052,0.7391469478607178
1766480070354254800,11.4132548828125,-0.3481931984424591,-0.47280970215797424,0.7757988572120667
1766480070364234200,11.423234130859376,-0.33597588539123535,-0.5497786998748779,0.7159340381622314
1766480070374274600,11.433274658203125,-0.31031954288482666,-0.6230825781822205,0.5656611919403076
1766480070384253700,11.443253662109376,-0.2981022298336029,-0.7257078886032104,0.3481931984424591
1766480070394263600,11.453263671875,-0.29565876722335815,-0.8307767510414124,0.1319468915462494
1766480070404242700,11.46324267578125,-0.28588494658470154,-0.9443976879119873,-0.030543262138962746
1766480070414283000,11.473282958984376,-0.27611109614372253,-1.0812314748764038,-0.1563815027475357
1766480070424292900,11.48329296875,-0.27611109614372253,-1.0812314748764038,-0.1563815027475357
1766480070434302500,11.493302490234376,-0.2638937830924988,-1.226617455482483,-0.2565633952617645
1766480070454291500,11.51329150390625,-0.21013765037059784,-1.3964380025863647,-0.3628539443016052
1766480070464270800,11.523270751953126,-0.20525072515010834,-1.441641926765442,-0.3591887652873993
1766480070474311200,11.533311279296875,-0.2272418737411499,-1.5015068054199219,-0.304210901260376
1766480070484259800,11.543259765625,-0.2480112910270691,-1.557706356048584,-0.22968533635139465
1766480070494300200,11.553300048828126,-0.2577851414680481,-1.5919147729873657,-0.1966986060142517
1766480070504279300,11.563279296875,-0.22846360504627228,-1.5931365489959717,-0.22968533635139465
1766480070514289200,11.5732890625,-0.1918116807937622,-1.5650367736816406,-0.25534167885780334
1766480070524299000,11.583299072265625,-0.1661553531885147,-1.500285029411316,-0.3066543638706207
1766480070534308600,11.59330859375,-0.16737708449363708,-1.4294246435165405,-0.38606682419776917
1766480070544318500,11.603318359375,-0.20036379992961884,-1.3878858089447021,-0.41172316670417786
1766480070554328300,11.613328369140625,-0.28955012559890747,-1.1582005023956299,-0.18325957655906677
1766480070564277000,11.623277099609375,-0.37629300355911255,-0.8759807348251343,0.16737708449363708
1766480070574256000,11.633256103515626,-0.4251621961593628,-0.6976081132888794,0.4300491213798523
1766480070584266000,11.643265869140626,-0.5253441333770752,-0.5717698931694031,0.46792277693748474
1766480070594275600,11.653275634765626,-0.6145304441452026,-0.4544837474822998,0.4447098970413208
1766480070604285400,11.663285400390626,-0.6817256212234497,-0.3591887652873993,0.39584067463874817
1766480070614264800,11.673264892578125,-0.7244861721992493,-0.27977627515792847,0.35552358627319336
1766480070624274400,11.6832744140625,-0.7293730974197388,-0.19058994948863983,0.34574973583221436
1766480070644263400,11.703263427734376,-0.6976081132888794,-0.06841690838336945,0.2382374405860901
1766480070654273300,11.713273193359376,-0.720820963382721,-0.04764748737215996,0.2272418737411499
1766480070664283100,11.723283203125,-0.7171558141708374,-0.05375614017248154,0.24068090319633484
1766480070674262300,11.73326220703125,-0.6963863968849182,-0.06719517707824707,0.2015855312347412
1766480070684272000,11.743272216796875,-0.6597344875335693,-0.051312681287527084,0.09407325088977814
1766480070694251300,11.753251220703126,-0.6047565937042236,-0.021991148591041565,-0.01466076634824276
1766480070704230700,11.763230712890625,-0.5302310585975647,0.024434609338641167,-0.07941248267889023
1766480070714240300,11.773240234375,-0.44837507605552673,0.07941248267889023,-0.13316862285137177
1766480070724250000,11.78325,-0.3701843321323395,0.11972958594560623,-0.22113321721553802
1766480070734259700,11.793259765625,-0.2724458873271942,0.14294247329235077,-0.3433062732219696
1766480070754249000,11.8132490234375,-0.1111774742603302,0.2015855312347412,-0.5473352670669556
1766480070764228000,11.82322802734375,-0.03420845419168472,0.24556782841682434,-0.6059783101081848
1766480070774238000,11.833238037109375,0.019547687843441963,0.27122417092323303,-0.608421802520752
1766480070784247600,11.84324755859375,0.05497787147760391,0.28466320037841797,-0.5864306092262268
1766480070794257400,11.85325732421875,0.0708603709936142,0.2822197377681732,-0.5632177591323853
1766480070804267300,11.863267333984375,0.09162978827953339,0.251676470041275,-0.5497786998748779
1766480070814276900,11.87327685546875,0.10506882518529892,0.2076941877603531,-0.5314527750015259
1766480070824225500,11.8832255859375,0.09651670604944229,0.17348572611808777,-0.48747047781944275
1766480070834235400,11.8932353515625,0.07696902006864548,0.1319468915462494,-0.4129449129104614
1766480070894263600,11.953263671875,-0.12950342893600464,-0.09407325088977814,-0.02321287989616394
1766480070904273200,11.963273193359376,-0.13439035415649414,-0.14049901068210602,-0.009773843921720982
1766480070914283000,11.973282958984376,-0.13072516024112701,-0.17470745742321014,0.02932153269648552
1766480070924262400,11.983262451171875,-0.10018189996480942,-0.2064724564552307,0.07208210229873657
1766480070934272000,11.99327197265625,-0.07330382615327835,-0.2321287989616394,0.06352998316287994
1766480070944281900,12.00328173828125,-0.045204028487205505,-0.26633724570274353,0.00855211354792118
1766480070994300200,12.053300048828126,0.20402899384498596,-0.3836233615875244,0.02687807008624077
1766480071004309800,12.063309814453126,0.24923302233219147,-0.4056145250797272,0.02932153269648552
1766480071014319600,12.073319580078126,0.2736676335334778,-0.4056145250797272,0.006108652334660292
1766480071024329500,12.08332958984375,0.2968805134296417,-0.3982841372489929,0.015882495790719986
1766480071034339000,12.093339111328126,0.33108896017074585,-0.3885102868080139,0.04642575979232788
1766480071044349000,12.103348876953126,0.34574973583221436,-0.38606682419776917,0.06108652427792549
1766480071054358800,12.11335888671875,0.34086281061172485,-0.375071257352829,0.05619960278272629
1766480071074347800,12.13334765625,0.3323107063770294,-0.3604104816913605,0.06230825558304787
1766480071104346600,12.1633466796875,0.2541199326515198,-0.2993239760398865,0.024434609338641167
1766480071114356200,12.173356201171876,0.21502456068992615,-0.28099802136421204,-0.04153883829712868
1766480071124366000,12.183365966796876,0.1820378452539444,-0.24556782841682434,-0.0403171069920063
1766480071134345200,12.19334521484375,0.15515977144241333,-0.20402899384498596,-0.00366519158706069
1766480071144294000,12.2032939453125,0.1319468915462494,-0.15882496535778046,0.04153883829712868
