time,seconds_elapsed,z,y,x
1765881739566214000,-1.4327861328125,-0.031124621629714966,0.17238251864910126,0.07900865375995636
1765881739606192000,-1.392807861328125,0.524330198764801,-0.021547814831137657,-0.17238251864910126
1765881739616140800,-1.382859130859375,0.5410895943641663,0.24660277366638184,0.1149216815829277
1765881739626120000,-1.372880126953125,0.3447650372982025,-0.42856210470199585,0.21308395266532898
1765881739636068600,-1.362931396484375,0.4644751250743866,-0.4812345504760742,0.0071826050989329815
1765881739646048000,-1.352951904296875,0.48602294921875,-0.009576806798577309,-0.05027823522686958
1765881739666037000,-1.332962890625,0.2801215946674347,0.1867477297782898,0.1628057211637497
1765881739675985700,-1.323014404296875,0.28969839215278625,0.12210428714752197,0.033518824726343155
1765881739695944200,-1.303055908203125,0.3519476354122162,-0.15322890877723694,0.08140286058187485
1765881739705923600,-1.293076416015625,0.33518823981285095,-0.2825157940387726,0.07661445438861847
1765881739715872300,-1.283127685546875,0.4596867263317108,-0.22744916379451752,0.05027823522686958
1765881739725851400,-1.273148681640625,0.42377370595932007,0.011971008032560349,0.1388636976480484
1765881739735830800,-1.263169189453125,0.4213795065879822,0.0071826050989329815,0.13168109953403473
1765881739745840400,-1.25315966796875,0.4884171485900879,0.26096799969673157,0.023942016065120697
1765881739755819800,-1.24318017578125,0.4189853072166443,0.2537853717803955,0.021547814831137657
1765881739765860000,-1.233139892578125,0.33518823981285095,0.08858546614646912,0.08858546614646912
1765881739805838000,-1.193161865234375,-0.05746084079146385,0.05027823522686958,-0.05267243832349777
1765881739815847700,-1.18315234375,-0.0933738648891449,0.040701430290937424,-0.05267243832349777
1765881739825857500,-1.173142578125,-0.07182604819536209,-0.09576806426048279,-0.05985504388809204
1765881739835867400,-1.163132568359375,0.07900865375995636,-0.2753331959247589,-0.0694318488240242
1765881739845846500,-1.153153564453125,0.1604115068912506,-0.13407529890537262,-0.08140286058187485
1765881739855826000,-1.143174072265625,0.28969839215278625,0.05746084079146385,-0.08858546614646912
1765881739865835500,-1.13316455078125,0.2322375625371933,0.08379705995321274,-0.07661445438861847
1765881739875784200,-1.1232158203125,0.11013327538967133,0.011971008032560349,-0.10534487664699554
1765881739895712300,-1.103287841796875,-0.07182604819536209,-0.0933738648891449,-0.0933738648891449
1765881739905722000,-1.09327783203125,0.06464344263076782,-0.12210428714752197,-0.05506663769483566
1765881739925680600,-1.0733193359375,0.19871874153614044,0.011971008032560349,-0.11252748221158981
1765881739935690200,-1.063309814453125,0.21547815203666687,0,-0.11013327538967133
1765881739945700000,-1.0532998046875,0.1867477297782898,-0.1412578970193863,-0.023942016065120697
1765881739955710000,-1.0432900390625,0.181959331035614,-0.10773907601833344,0.014365210197865963
1765881739965719600,-1.033280517578125,0.22266076505184174,-0.16519992053508759,0.031124621629714966
1765881739975699000,-1.023301025390625,0.23702596127986908,-0.1628057211637497,0.011971008032560349
1765881739985708500,-1.01329150390625,0.22266076505184174,-0.1628057211637497,0.05985504388809204
1765881739995688000,-1.00331201171875,0.2059013396501541,-0.047884032130241394,0.1388636976480484
1765881740025656000,-0.973343994140625,0.08379705995321274,0.181959331035614,0.019153613597154617
1765881740035604700,-0.963395263671875,0.05506663769483566,0.028730420395731926,-0.028730420395731926
1765881740045584100,-0.953415771484375,-0.040701430290937424,-0.13168109953403473,-0.09816227108240128
1765881740055563300,-0.943436767578125,0.07182604819536209,-0.12928688526153564,-0.14365209639072418
1765881740065573000,-0.933427001953125,0.023942016065120697,-0.038307227194309235,-0.0933738648891449
1765881740075521800,-0.923478271484375,0.040701430290937424,0.05027823522686958,-0.06224924325942993
1765881740085531600,-0.91346826171875,0.13168109953403473,0.09576806426048279,-0.05267243832349777
1765881740105490200,-0.893509765625,0.19632454216480255,-0.043095629662275314,-0.12689268589019775
1765881740115438800,-0.88356103515625,0.11971008777618408,-0.043095629662275314,-0.11252748221158981
1765881740125479200,-0.873520751953125,0.1364694982767105,-0.2298433631658554,-0.0933738648891449
1765881740135488800,-0.86351123046875,0.11971008777618408,-0.28969839215278625,-0.15801730751991272
1765881740155478000,-0.84352197265625,0.1843535304069519,0.11971008777618408,0.047884032130241394
1765881740165487600,-0.833512451171875,0.11252748221158981,0.304063618183136,0.090979665517807
1765881740175497500,-0.82350244140625,0.1149216815829277,0.15322890877723694,0.07422025501728058
1765881740185507300,-0.81349267578125,0.002394201699644327,-0.1173158809542656,-0.016759412363171577
1765881740195517000,-0.803483154296875,0.038307227194309235,-0.090979665517807,-0.035913024097681046
1765881740215506000,-0.783494140625,0.08379705995321274,-0.06703764945268631,-0.16519992053508759
1765881740225515800,-0.773484130859375,0.16759411990642548,0.14604631066322327,-0.12210428714752197
1765881740235495000,-0.763505126953125,0.1412578970193863,-0.040701430290937424,-0.011971008032560349
1765881740245474300,-0.753525634765625,0.17238251864910126,-0.12449848651885986,-0.05027823522686958
1765881740255453400,-0.743546630859375,0.24181437492370605,-0.1412578970193863,-0.08379705995321274
1765881740265432800,-0.733567138671875,0.16998831927776337,-0.07900865375995636,0.002394201699644327
1765881740275442400,-0.7235576171875,0.20111294090747833,-0.19393034279346466,0
1765881740285421800,-0.713578125,0.2537853717803955,-0.10295066982507706,-0.17477671802043915
1765881740295401000,-0.70359912109375,0.21547815203666687,-0.2082955539226532,-0.08379705995321274
1765881740325369300,-0.673630615234375,0.14365209639072418,0.08619125932455063,-0.05746084079146385
1765881740335318000,-0.663681884765625,0.14844051003456116,0,-0.08619125932455063
1765881740345327900,-0.653672119140625,0.12449848651885986,-0.014365210197865963,-0.028730420395731926
1765881740355276500,-0.643723388671875,0.12449848651885986,-0.009576806798577309,-0.031124621629714966
1765881740365255700,-0.633744384765625,0.0694318488240242,-0.1388636976480484,-0.019153613597154617
1765881740375265500,-0.623734375,0.033518824726343155,-0.05746084079146385,0.0071826050989329815
1765881740385275400,-0.613724609375,0.08858546614646912,0.2298433631658554,0.05506663769483566
1765881740395285000,-0.603715087890625,0.06464344263076782,0.2849099934101105,0.14604631066322327
1765881740405294800,-0.593705078125,0.12928688526153564,0.19393034279346466,-0.038307227194309235
1765881740465292300,-0.533707763671875,0.3016694188117981,-0.043095629662275314,0.043095629662275314
1765881740495291100,-0.503708984375,0.2059013396501541,-0.19393034279346466,-0.08379705995321274
1765881740506301000,-0.492698974609375,0.2059013396501541,-0.07422025501728058,-0.090979665517807
1765881740516310800,-0.482689208984375,0.15562310814857483,0.05267243832349777,-0.06224924325942993
1765881740526350800,-0.472649169921875,0.15562310814857483,-0.090979665517807,0
1765881740536299800,-0.4627001953125,0.09576806426048279,-0.11013327538967133,0.002394201699644327
1765881740581313000,-0.41768701171875,0.1173158809542656,0.08858546614646912,0.009576806798577309
1765881740601271600,-0.397728515625,0.014365210197865963,0.10295066982507706,-0.08379705995321274
1765881740611251000,-0.3877490234375,0.004788403399288654,0.12449848651885986,-0.05985504388809204
1765881740621230000,-0.37777001953125,0,-0.0071826050989329815,-0.07661445438861847
1765881740661208000,-0.3377919921875,0.27054479718208313,-0.08858546614646912,-0.043095629662275314
1765881740671156700,-0.32784326171875,0.27054479718208313,-0.08858546614646912,-0.0454898327589035
1765881740681166600,-0.31783349609375,0.33039984107017517,0.10295066982507706,-0.1412578970193863
1765881740691176400,-0.307823486328125,0.3208230137825012,0.21547815203666687,-0.031124621629714966
1765881740701155600,-0.297844482421875,0.2944868206977844,0.08619125932455063,0.10773907601833344
1765881740711135000,-0.287864990234375,0.2106897532939911,-0.12689268589019775,0.16519992053508759
1765881740721114000,-0.277885986328125,0.1388636976480484,-0.10295066982507706,0.05506663769483566
1765881740731154400,-0.267845458984375,0.11252748221158981,0.05746084079146385,0.009576806798577309
1765881740741133600,-0.257866455078125,0.05746084079146385,0.3423708379268646,0.035913024097681046
1765881740751113000,-0.247886962890625,0.12210428714752197,0.20350714027881622,0.011971008032560349
1765881740761153300,-0.2378466796875,0.07661445438861847,0.047884032130241394,-0.033518824726343155
1765881740771163000,-0.227837158203125,0.05027823522686958,-0.15801730751991272,0.016759412363171577
1765881740781203200,-0.217796875,0.13407529890537262,-0.21547815203666687,-0.08140286058187485
1765881740791182600,-0.2078173828125,0.19393034279346466,-0.0933738648891449,-0.038307227194309235
1765881740801161700,-0.19783837890625,0.35913026332855225,-0.021547814831137657,-0.043095629662275314
1765881740811140900,-0.187859130859375,0.3495534360408783,0.17956513166427612,-0.06464344263076782
1765881740821150700,-0.177849365234375,0.31603461503982544,0.15083470940589905,-0.1604115068912506
1765881740851149600,-0.147850341796875,-0.002394201699644327,-0.37828385829925537,0.023942016065120697
1765881740861128700,-0.137871337890625,0.033518824726343155,-0.304063618183136,0.009576806798577309
1765881740871077600,-0.12792236328125,0.023942016065120697,-0.06703764945268631,-0.026336219161748886
1765881740881087200,-0.117912841796875,0,0.27054479718208313,-0.033518824726343155
1765881740891066600,-0.107933349609375,-0.038307227194309235,0.3663128614425659,-0.0933738648891449
1765881740901045800,-0.097954345703125,-0.009576806798577309,0.2585737705230713,-0.1149216815829277
1765881740910994400,-0.088005615234375,-0.05027823522686958,0.004788403399288654,0.014365210197865963
1765881740921004300,-0.07799560546875,0.019153613597154617,-0.1843535304069519,0.07900865375995636
1765881740931014100,-0.06798583984375,0.07182604819536209,-0.26575639843940735,0.002394201699644327
1765881740970992000,-0.0280078125,0.24660277366638184,0.16998831927776337,-0.15083470940589905
1765881740980971300,-0.01802880859375,0.09816227108240128,0.090979665517807,0.004788403399288654
1765881740990981000,-0.008018798828125,0.10534487664699554,-0.14365209639072418,0.090979665517807
1765881741000960300,0.001960205078125,0.0694318488240242,-0.19393034279346466,0.004788403399288654
1765881741010939600,0.011939697265625,0.08619125932455063,-0.17238251864910126,-0.0694318488240242
1765881741020980000,0.02197998046875,0.2346317619085312,-0.15562310814857483,-0.10295066982507706
1765881741030989600,0.031989501953125,0.2585737705230713,-0.07182604819536209,-0.1628057211637497
1765881741040999400,0.04199951171875,0.2849099934101105,0.06703764945268631,-0.21787235140800476
1765881741060988400,0.061988525390625,0.19393034279346466,-0.011971008032560349,-0.011971008032560349
1765881741070967600,0.071967529296875,0.14365209639072418,-0.08140286058187485,-0.07422025501728058
1765881741080947000,0.081947021484375,0.1364694982767105,0.0694318488240242,0.028730420395731926
1765881741090956500,0.09195654296875,0.14365209639072418,0.1388636976480484,0.181959331035614
1765881741100936000,0.10193603515625,0.05506663769483566,0.090979665517807,0.06703764945268631
1765881741110945800,0.11194580078125,-0.009576806798577309,0.004788403399288654,0.13168109953403473
1765881741120925000,0.121925048828125,0.040701430290937424,0.031124621629714966,0.021547814831137657
1765881741130934800,0.131934814453125,0.07900865375995636,-0.021547814831137657,-0.026336219161748886
1765881741140944400,0.1419443359375,0.2513911724090576,0.004788403399288654,-0.043095629662275314
1765881741160933400,0.161933349609375,0.20111294090747833,-0.06703764945268631,0
1765881741170943200,0.171943115234375,0.21787235140800476,-0.05267243832349777,-0.11013327538967133
1765881741180953000,0.181953125,0.17477671802043915,-0.1173158809542656,-0.08140286058187485
1765881741190932200,0.19193212890625,0.19871874153614044,-0.07900865375995636,-0.11013327538967133
1765881741200911600,0.20191162109375,0.19632454216480255,0.0454898327589035,-0.10055647045373917
1765881741210890800,0.211890869140625,0.14365209639072418,0.07661445438861847,-0.08379705995321274
1765881741220900600,0.221900634765625,0.11971008777618408,0.090979665517807,0.011971008032560349
1765881741230879700,0.231879638671875,0.1173158809542656,0.047884032130241394,0.009576806798577309
1765881741240920000,0.241920166015625,0.038307227194309235,-0.12928688526153564,0.011971008032560349
1765881741270857700,0.271857666015625,0.1867477297782898,-0.021547814831137657,0.014365210197865963
1765881741290877400,0.29187744140625,0.2346317619085312,0.12689268589019775,0.12449848651885986
1765881741300856600,0.301856689453125,0.2346317619085312,0.12210428714752197,0.12210428714752197
1765881741310835700,0.311835693359375,0.1843535304069519,0.0933738648891449,0.07661445438861847
1765881741320845600,0.321845458984375,0.22266076505184174,-0.023942016065120697,0.10534487664699554
1765881741330824700,0.33182470703125,0.19632454216480255,-0.09576806426048279,0.0694318488240242
1765881741340834600,0.34183447265625,0.11971008777618408,-0.16998831927776337,0.09576806426048279
1765881741350783200,0.351783203125,0.035913024097681046,-0.181959331035614,-0.028730420395731926
1765881741380812500,0.3818125,0.14365209639072418,-0.13168109953403473,0.004788403399288654
1765881741390822400,0.391822509765625,0.2059013396501541,-0.031124621629714966,-0.009576806798577309
1765881741400832300,0.401832275390625,0.23942017555236816,-0.12210428714752197,-0.05027823522686958
1765881741410841900,0.411841796875,0.2561795711517334,-0.09816227108240128,-0.011971008032560349
1765881741420851700,0.421851806640625,0.10773907601833344,-0.15083470940589905,-0.13407529890537262
1765881741430861600,0.431861572265625,0.05267243832349777,-0.026336219161748886,-0.07422025501728058
1765881741440840700,0.4418408203125,0.10055647045373917,0.15083470940589905,-0.023942016065120697
1765881741450850600,0.4518505859375,-0.019153613597154617,0.21787235140800476,-0.004788403399288654
1765881741460860200,0.461860107421875,0,0.08858546614646912,0.05985504388809204
1765881741480879900,0.4818798828125,0.11252748221158981,-0.22744916379451752,0.047884032130241394
1765881741510878500,0.51187841796875,0.21547815203666687,0.12928688526153564,-0.06703764945268631
1765881741520857900,0.52185791015625,0.16519992053508759,0.026336219161748886,-0.12689268589019775
1765881741530867500,0.531867431640625,0.16759411990642548,0.05506663769483566,0.002394201699644327
1765881741540877300,0.541877197265625,0.11971008777618408,-0.05506663769483566,0.047884032130241394
1765881741550887200,0.55188720703125,0.08858546614646912,-0.14844051003456116,0.0454898327589035
1765881741560896800,0.561896728515625,0.15322890877723694,-0.16519992053508759,0.040701430290937424
1765881741570906600,0.57190673828125,0.20350714027881622,-0.19153612852096558,0.031124621629714966
1765881741590956500,0.59195654296875,0.28969839215278625,0.09816227108240128,0.009576806798577309
1765881741610976300,0.611976318359375,0.17238251864910126,0.10773907601833344,-0.021547814831137657
1765881741620955400,0.621955322265625,0.09816227108240128,-0.05985504388809204,-0.004788403399288654
1765881741630965200,0.63196533203125,0.031124621629714966,-0.19153612852096558,-0.05267243832349777
1765881741640944400,0.6419443359375,0.09816227108240128,-0.12928688526153564,-0.035913024097681046
1765881741650923800,0.651923828125,0.14604631066322327,-0.038307227194309235,0.05985504388809204
1765881741660933400,0.661933349609375,0.1628057211637497,-0.19153612852096558,0.12449848651885986
1765881741670912800,0.671912841796875,0.18914192914962769,-0.07900865375995636,0.043095629662275314
1765881741690932200,0.69193212890625,0.1628057211637497,0.11971008777618408,0.07422025501728058
1765881741700942000,0.701942138671875,0.10055647045373917,0.07900865375995636,0.07661445438861847
1765881741710951700,0.71195166015625,-0.011971008032560349,-0.016759412363171577,-0.06224924325942993
1765881741720961500,0.72196142578125,-0.0454898327589035,-0.035913024097681046,-0.11971008777618408
1765881741730940700,0.731940673828125,-0.06224924325942993,0.07422025501728058,-0.11971008777618408
1765881741740950500,0.741950439453125,0.016759412363171577,0.023942016065120697,-0.08858546614646912
1765881741750960400,0.75196044921875,0.07661445438861847,-0.16759411990642548,-0.10295066982507706
1765881741760970000,0.761969970703125,0.2059013396501541,-0.2825157940387726,-0.16998831927776337
1765881741770979800,0.771979736328125,0.2849099934101105,-0.2537853717803955,-0.016759412363171577
1765881741810957800,0.811957763671875,0.002394201699644327,-0.035913024097681046,0.12928688526153564
1765881741820967700,0.8219677734375,0.014365210197865963,-0.12449848651885986,0.10773907601833344
1765881741830977500,0.8319775390625,0.004788403399288654,-0.11252748221158981,0.047884032130241394
1765881741840956700,0.841956787109375,0.031124621629714966,-0.023942016065120697,-0.05267243832349777
1765881741850966500,0.851966552734375,0.15562310814857483,-0.12928688526153564,-0.047884032130241394
1765881741860976000,0.86197607421875,0.19871874153614044,-0.1604115068912506,-0.07182604819536209
1765881741870955500,0.87195556640625,0.2753331959247589,-0.12689268589019775,-0.009576806798577309
1765881741880965000,0.881965087890625,0.35913026332855225,-0.08619125932455063,0.038307227194309235
1765881741910903000,0.911903076171875,0.2346317619085312,0.0071826050989329815,-0.1867477297782898
1765881741920912600,0.92191259765625,0.17956513166427612,-0.016759412363171577,-0.07661445438861847
1765881741930892000,0.93189208984375,0.090979665517807,-0.1604115068912506,-0.12449848651885986
1765881741940901600,0.941901611328125,0.040701430290937424,-0.1628057211637497,-0.0933738648891449
1765881741950881000,0.951881103515625,0.043095629662275314,-0.15801730751991272,-0.0933738648891449
1765881741960890600,0.961890625,0.040701430290937424,-0.07182604819536209,0
1765881741970900500,0.971900390625,0.1173158809542656,0.15322890877723694,0.0071826050989329815
1765881741980910300,0.981910400390625,0.18914192914962769,0.2585737705230713,-0.10295066982507706
1765881741990889500,0.991889404296875,0.1149216815829277,0.24181437492370605,0.026336219161748886
1765881742000868900,1.001868896484375,0.021547814831137657,0,0.09816227108240128
1765881742010848000,1.011847900390625,0.033518824726343155,-0.047884032130241394,0.06224924325942993
1765881742020888300,1.021888427734375,0.043095629662275314,-0.09816227108240128,0.08619125932455063
1765881742030867500,1.031867431640625,0.1604115068912506,0,0.06703764945268631
1765881742040877300,1.041877197265625,0.181959331035614,0.06224924325942993,0.05027823522686958
1765881742050887200,1.05188720703125,0.20350714027881622,0.0071826050989329815,-0.05027823522686958
1765881742060896800,1.061896728515625,0.22266076505184174,-0.019153613597154617,-0.15083470940589905
1765881742070906600,1.07190673828125,0.16759411990642548,-0.023942016065120697,-0.004788403399288654
1765881742080885800,1.0818857421875,0.18914192914962769,-0.021547814831137657,-0.14365209639072418
1765881742090865200,1.091865234375,0.17477671802043915,-0.09576806426048279,-0.1149216815829277
1765881742120833300,1.121833251953125,-0.023942016065120697,0.1149216815829277,-0.11971008777618408
1765881742130812700,1.131812744140625,-0.016759412363171577,0.272938996553421,-0.17477671802043915
1765881742140791800,1.141791748046875,-0.038307227194309235,0.33758243918418884,-0.28969839215278625
1765881742150771200,1.151771240234375,-0.16759411990642548,0.26575639843940735,-0.5339069962501526
1765881742160780800,1.16178076171875,-0.17717093229293823,0.6320692300796509,-0.9528923034667969
1765881742170790700,1.171790771484375,-0.2513911724090576,1.1851298809051514,-1.5442601442337036
1765881742180800500,1.181800537109375,-0.45489832758903503,1.723825216293335,-1.9967641830444336
1765881742210799000,1.211799072265625,-1.3024457693099976,2.559401512145996,-2.1380221843719482
1765881742220809000,1.22180908203125,-1.8962076902389526,2.5258827209472656,-1.7980455160140991
1765881742230818800,1.23181884765625,-2.2146365642547607,2.054224967956543,-1.8124107122421265
1765881742240798000,1.2417978515625,-2.477998733520508,1.2258312702178955,-1.8411411046981812
1765881742250777300,1.25177734375,-2.669534921646118,0.19393034279346466,-1.9512743949890137
1765881742260787000,1.261786865234375,-2.9161376953125,-0.17956513166427612,-2.1547815799713135
1765881742270766300,1.271766357421875,-2.8227639198303223,-0.30885201692581177,-2.2864625453948975
1765881742290724600,1.291724609375,-2.9065608978271484,-0.2944868206977844,-2.161964178085327
1765881742300704000,1.3017041015625,-2.7724854946136475,-0.13168109953403473,-2.3295583724975586
1765881742320693000,1.32169287109375,-2.669534921646118,-0.15322890877723694,-2.650381326675415
1765881742330672000,1.331672119140625,-2.3535003662109375,-0.040701430290937424,-2.7485435009002686
1765881742340712400,1.34171240234375,-2.559401512145996,-0.47165772318840027,-2.499546527862549
1765881742350661400,1.351661376953125,-3.224989652633667,-1.0869675874710083,-1.9823989868164062
1765881742360671000,1.3616708984375,-4.120420932769775,-1.946485996246338,-1.335964560508728
1765881742370680800,1.371680908203125,-4.920084476470947,-3.064578056335449,-0.8331822156906128
1765881742380721200,1.38172119140625,-5.307945251464844,-4.158728122711182,-0.6272808313369751
1765881742390700300,1.3917001953125,-5.276820659637451,-5.1595048904418945,-0.2298433631658554
1765881742400710100,1.401710205078125,-5.439626216888428,-5.892130374908447,0.15083470940589905
1765881742430739500,1.431739501953125,-5.015852451324463,-6.133944988250732,0.9600749015808105
1765881742440718600,1.441718505859375,-4.671087741851807,-5.442020416259766,0.9002198576927185
1765881742450728400,1.451728515625,-4.534617900848389,-4.5394062995910645,0.9648633003234863
1765881742460738000,1.461738037109375,-4.67827033996582,-3.9887399673461914,1.3048399686813354
1765881742470748000,1.471747802734375,-4.311957359313965,-3.3303346633911133,1.522712230682373
1765881742480757800,1.4817578125,-3.9887399673461914,-3.6798880100250244,1.9297266006469727
1765881742490737000,1.49173681640625,-3.8786067962646484,-3.064578056335449,2.233790159225464
1765881742500746800,1.501746826171875,-4.015076160430908,-1.7477672100067139,2.1595699787139893
1765881742510726000,1.511725830078125,-3.756502389907837,-1.764526605606079,1.9847931861877441
1765881742540724700,1.541724853515625,-4.110844135284424,-3.0813376903533936,1.9943699836730957
1765881742550703900,1.551703857421875,-4.225766181945801,-3.205836057662964,2.0877439975738525
1765881742560683300,1.561683349609375,-4.146757125854492,-3.045424461364746,2.0925323963165283
1765881742570692900,1.57169287109375,-3.7158010005950928,-2.4013843536376953,2.1308395862579346
1765881742580733200,1.581733154296875,-3.708618402481079,-2.2601263523101807,2.1475989818573
1765881742590643000,1.591642822265625,-3.3949780464172363,-2.248155355453491,2.164358377456665
1765881742600652800,1.60165283203125,-3.361459255218506,-2.4229321479797363,2.126051187515259
1765881742610662700,1.61166259765625,-3.155557870864868,-2.786850690841675,1.9249382019042969
1765881742650549000,1.651549072265625,-2.188300371170044,-2.0207061767578125,1.6328455209732056
1765881742680578300,1.681578369140625,-2.3558945655822754,-1.0606313943862915,1.7334020137786865
1765881742690588200,1.691588134765625,-1.9752163887023926,-0.4812345504760742,1.6879122257232666
1765882370205387800,629.2063876953125,-0.9361328482627869,0.667982280254364,1.5658079385757446
1765882370215397600,629.2163977050782,12.842497825622559,9.349357604980469,3.6176388263702393
1765882370225376800,629.2263767089844,0.9840168952941895,0.5793967843055725,0.09576806426048279
1765882370284544000,629.2855439453125,0.5506663918495178,-0.15083470940589905,0.4165911078453064
1765882370314512100,629.3155122070312,0.7422025203704834,-1.1755530834197998,0.7182605266571045
1765882370344419300,629.3454194335937,1.1037269830703735,-1.8962076902389526,2.0901381969451904
1765882370394437600,629.3954377441406,-0.2059013396501541,-0.4572925269603729,2.6671407222747803
1765882370444425500,629.4454255371094,0.9481038451194763,-1.6376339197158813,1.0199298858642578
1765882370554319400,629.5553193359375,-4.886565685272217,1.6855180263519287,-2.736572504043579
1765882370564298500,629.5652985839844,-5.446808815002441,1.6974890232086182,-2.87064790725708
1765882370624235000,629.6252351074219,-5.669469833374023,2.4013843536376953,-3.758896589279175
1765882370724149500,629.7251494140625,-8.65982723236084,-3.8091750144958496,-6.141127586364746
1765882583167991600,842.1689914550781,-0.15322890877723694,-0.8571242094039917,-3.8283286094665527
1765882583187480600,842.18848046875,-0.9648633003234863,-1.1348515748977661,-1.4724340438842773
1765882583226958600,842.2279584960937,-0.8236053586006165,-0.26336219906806946,-0.8212111592292786
1765882583246917000,842.2479172363281,-0.4141969084739685,0.727837324142456,-1.2856862545013428
1765882583326781700,842.3277817382813,-0.22266076505184174,-0.629675030708313,0.5554547905921936
1765882583396667000,842.3976669921875,0.8690952062606812,-0.3974374830722809,0.2849099934101105
1765882583416656000,842.4176557617187,0.2944868206977844,-0.31124621629714966,1.4437036514282227
1765882583446593800,842.44759375,-2.054224967956543,0.9289502501487732,1.7405846118927002
1765882583486571800,842.4875717773438,-1.7118542194366455,0.3256114423274994,0.5650315880775452
1765882583496581600,842.4975815429688,0.5913678407669067,0.019153613597154617,-0.5267243981361389
1765882583516570600,842.5175705566406,0.9720458984375,0.021547814831137657,-1.5753847360610962
1765882583576507100,842.5775070800781,-0.646434485912323,0.035913024097681046,-3.6535518169403076
1765882583596465700,842.5974655761719,-4.383783340454102,-1.3838485479354858,-2.274491548538208
1765882583606414300,842.6074143066406,-7.038952827453613,-3.9049429893493652,-0.4620809257030487
1765882583616454700,842.6174545898438,-7.491456985473633,-0.22266076505184174,0.2753331959247589
1765882583636413200,842.6374130859375,-3.1866824626922607,4.4508209228515625,-0.009576806798577309
1765882583646361900,842.6473618164063,-2.8874073028564453,4.000710964202881,-0.7206547260284424
1765882583656402200,842.6574020996094,-0.5770025849342346,3.7900211811065674,0.1628057211637497
1765882583666381300,842.6673813476563,0.05027823522686958,3.294421434402466,0.3471592366695404
1765882583676360400,842.6773603515625,2.126051187515259,4.141968727111816,2.499546527862549
1765882583686339800,842.68733984375,0.21547815203666687,5.245696067810059,3.1962592601776123
1765882583696349700,842.697349609375,2.983175277709961,6.402095317840576,4.558559894561768
1765882583706298400,842.7072983398438,4.113238334655762,2.8347349166870117,3.6104562282562256
1765882583716277500,842.7172775878906,5.183446884155273,1.723825216293335,2.2912509441375732
1765882583736266500,842.7372666015625,3.4548330307006836,-0.7038952708244324,1.3479355573654175
1765882583756286200,842.7572861328125,2.1499931812286377,-1.8794482946395874,1.455674648284912
1765882583766235000,842.7672348632813,1.2210428714752197,-2.410961151123047,1.3120225667953491
1765882583776244500,842.7772443847656,-1.0462661981582642,-3.6343982219696045,1.2641384601593018
1765882583786193400,842.787193359375,-3.201047658920288,-4.2760443687438965,1.158793568611145
1765882583796172500,842.7971726074219,-3.2776620388031006,-4.072536945343018,1.094150185585022
1765882583806152000,842.8071518554688,-3.7469255924224854,-4.3622355461120605,1.0965443849563599
1765882583816161500,842.8171616210938,-2.0877439975738525,-4.704606533050537,0.7086837291717529
1765882583856048000,842.8570480957031,0.5291185975074768,2.161964178085327,0.2777273952960968
1765882583866027300,842.86702734375,1.8579005002975464,0.9600749015808105,-0.49559974670410156
1765882583895995600,842.8969956054688,-0.4165911078453064,-0.9002198576927185,-0.7086837291717529
1765882583906005200,842.9070051269531,-2.322375535964966,0.6224924325942993,0.6919242739677429
1765882583915954200,842.9169541015625,-1.6974890232086182,2.3032219409942627,0.7254431247711182
1765882583925902800,842.9269028320313,0.5051765441894531,2.3965959548950195,0.19632454216480255
1765882583935912400,842.9369123535156,0.009576806798577309,1.6903064250946045,0.33997663855552673
1765882583945891800,842.9468918457031,-0.08619125932455063,1.6112977266311646,0.1149216815829277
1765882583965820000,842.9668198242188,1.50355863571167,2.1164743900299072,-0.9050082564353943
1765882583975829500,842.9768295898438,2.229001760482788,2.274491548538208,-0.8978256583213806
1765882583985809000,842.9868088378906,2.3726539611816406,2.006340980529785,-0.6440402865409851
1765882583995818500,842.9968186035156,1.5059528350830078,0.8427590131759644,-0.7038952708244324
1765882584005767400,843.0067673339844,1.2497732639312744,0.6009446382522583,-0.8595184087753296
1765882584015777000,843.0167770996094,1.2282254695892334,0.19153612852096558,-0.9050082564353943
1765882584025725700,843.0267255859375,1.434126853942871,-0.15801730751991272,-0.6991068720817566
1765882584035735600,843.0367355957031,0.7972691655158997,-1.3000515699386597,-0.35673606395721436
1765882584055755000,843.0567551269531,0.689530074596405,-0.12689268589019775,-0.5171475410461426
1765882584065734400,843.066734375,0.9409212470054626,0.6823474764823914,-0.3016694188117981
1765882584075744000,843.0767438964843,0.5817909836769104,0.4908113479614258,0.15322890877723694
1765882584095702500,843.0967026367188,-0.35434186458587646,-0.9289502501487732,0.7924807667732239
1765882584105682000,843.1066818847656,-0.5003881454467773,-1.1444283723831177,0.9840168952941895
1765882584115661000,843.1166611328125,-0.5027823448181152,-0.31603461503982544,0.8978256583213806
1765882584125640400,843.1266403808594,-0.9217676520347595,0.2825157940387726,1.036689281463623
1765882584135650000,843.1366501464844,-0.545877993106842,0.1867477297782898,0.9289502501487732
1765882584165618400,843.1666184082031,0.21787235140800476,-1.173158884048462,-0.1364694982767105
1765882584175628000,843.1766279296875,0.2944868206977844,-1.0821791887283325,-0.12689268589019775
1765882584185607400,843.186607421875,-0.05746084079146385,-1.3215993642807007,0.08619125932455063
1765882584195586600,843.1965866699219,-0.5889736413955688,-1.4293384552001953,0.181959331035614
1765882584205566000,843.2065659179688,-0.20350714027881622,-1.1300631761550903,0.27054479718208313
1765882584215575600,843.2165754394531,0.07900865375995636,-0.5363011956214905,0.21308395266532898
1765882584225524500,843.2265244140625,0.07182604819536209,-0.12928688526153564,-0.047884032130241394
1765882584235503600,843.2365036621094,-0.06224924325942993,-0.22266076505184174,0.09576806426048279
1765882584245483000,843.2464829101563,0.10055647045373917,-0.6607996821403503,0.14844051003456116
1765882584275481600,843.2764816894531,0.43335050344467163,-0.2346317619085312,-0.05267243832349777
1765882584285461000,843.2864609375,0.6153098344802856,-0.43335050344467163,-0.3926490843296051
1765882584295470600,843.296470703125,0.7613561153411865,-0.5961562395095825,-0.8212111592292786
1765882584305450000,843.3064499511719,0.5913678407669067,-0.23942017555236816,-0.8164227604866028
1765882584315429000,843.3164291992188,0.7182605266571045,0.3447650372982025,-0.9002198576927185
1765882584325408500,843.3264084472656,-0.24181437492370605,0.7972691655158997,-0.44771572947502136
1765882584335418000,843.3364182128906,-1.256955862045288,0.950498104095459,0.13168109953403473
1765882584345397500,843.3463974609375,-1.137245774269104,0.24660277366638184,0.2537853717803955
1765882584355376600,843.3563767089844,-0.8355764150619507,-0.3974374830722809,0.014365210197865963
1765882584395293700,843.3962937011719,-0.38067805767059326,0.10534487664699554,0
1765882584405272800,843.4062729492188,-0.038307227194309235,0.6560112833976746,-0.15083470940589905
1765882584415282700,843.4162827148438,0.7924807667732239,0.7326257228851318,-0.10055647045373917
1765882584425261800,843.42626171875,1.048660397529602,0.6129156351089478,-0.4668693244457245
1765882584435241200,843.4362412109375,1.4245500564575195,0.16759411990642548,-0.8427590131759644
1765882584445220400,843.4462204589844,0.9624691009521484,0.021547814831137657,-0.5027823448181152
1765882584455199700,843.4561997070313,-0.09816227108240128,0.5937620401382446,0.5267243981361389
1765882584465209300,843.4662092285156,-1.5466543436050415,0.7852981686592102,1.192312479019165
1765882584505187600,843.5061875,0.9481038451194763,0.004788403399288654,-0.11013327538967133
1765882584515197200,843.516197265625,1.1683704853057861,-0.05746084079146385,-0.031124621629714966
1765882584525176600,843.5261765136719,1.01753568649292,-0.49320554733276367,0.3208230137825012
1765882584535217000,843.536216796875,0.9385270476341248,-0.8547300100326538,0.3998316824436188
1765882584545165600,843.5461655273438,0.24181437492370605,-1.1971008777618408,0.4141969084739685
1765882584555144700,843.5561447753906,-0.8140285611152649,-1.436521053314209,0.42616790533065796
1765882584565124000,843.5661240234375,-0.9744400978088379,-1.3838485479354858,0.5913678407669067
1765882584575103200,843.5761032714844,-2.1068975925445557,-0.5937620401382446,-0.2106897532939911
1765882584595092200,843.5960922851563,-1.1899182796478271,-0.730231523513794,-0.47884035110473633
1765882584605071600,843.6060715332031,-1.5921441316604614,-1.0845733880996704,0.05267243832349777
1765882584615050800,843.61605078125,-1.7190368175506592,-0.7326257228851318,0.014365210197865963
1765882584625030000,843.6260297851562,-0.9097966551780701,-0.47884035110473633,-0.19632454216480255
1765882584635039700,843.6360397949219,0.043095629662275314,0.3447650372982025,-0.5770025849342346
1765882584645019100,843.6460190429688,-0.2585737705230713,0.19632454216480255,-0.4429273009300232
1765882584655028700,843.6560288085938,-0.0071826050989329815,-0.6655880808830261,-0.33518823981285095
1765882584665008000,843.6660080566406,-0.304063618183136,-0.727837324142456,0.14844051003456116
1765882584675017700,843.6760178222656,-0.4189853072166443,0.6967126727104187,0.1412578970193863
1765882584704986000,843.7059860839844,1.7836803197860718,2.1140801906585693,-0.14365209639072418
1765882584714934800,843.7159348144531,2.494758129119873,1.3670891523361206,-0.5889736413955688
1765882584724914000,843.7259138183593,1.6304513216018677,0.9145850539207458,-1.158793568611145
1765882584734923800,843.735923828125,2.126051187515259,-0.24181437492370605,-1.6639702320098877
1765882584744872400,843.7458725585938,1.6160861253738403,-0.3902548849582672,-0.608127236366272
1765882584754851800,843.7558518066406,0.8810662031173706,0.040701430290937424,-0.5195417404174805
1765882584764831000,843.7658310546875,0.9864110946655273,1.2641384601593018,-0.24420857429504395
1765882584774840800,843.7758408203125,-0.15801730751991272,2.205059766769409,-0.35673606395721436
1765882584794860300,843.7958603515625,-0.13168109953403473,0.43095630407333374,-0.7589619159698486
1765882584804809000,843.8058090820313,0.019153613597154617,0.22744916379451752,-0.8738836050033569
1765882584814818800,843.8158188476563,-0.12928688526153564,0.5961562395095825,-0.6177040338516235
1765882584824798000,843.8257978515625,-0.8643068075180054,1.7764976024627686,-0.15562310814857483
1765882584834807800,843.8358078613281,-1.5897499322891235,2.011129379272461,-0.1604115068912506
1765882584844787200,843.845787109375,-1.8986018896102905,1.2856862545013428,0.090979665517807
1765882584854796800,843.855796875,-1.580173134803772,-1.070208191871643,0.181959331035614
1765882584864776200,843.8657761230469,-1.577778935432434,-0.5291185975074768,0.6847416758537292
1765882584874724900,843.8757248535156,-1.2617442607879639,-0.8403648138046265,0.7996633648872375
1765882584884704000,843.8857041015625,-1.9393033981323242,0.4596867263317108,0.871489405632019
1765882584904693000,843.9056928710937,-2.3032219409942627,-1.1204863786697388,0.2059013396501541
1765882584924651500,843.9256516113281,-2.0614075660705566,-1.3694833517074585,-0.12210428714752197
1765882584934661400,843.9356613769531,-0.706289529800415,-0.009576806798577309,-0.7805097699165344
1765882584944640500,843.945640625,-0.05027823522686958,0.3902548849582672,-0.9217676520347595
1765882584954650400,843.955650390625,0.7326257228851318,-0.06224924325942993,-0.8930372595787048
1765882584964660200,843.96566015625,1.3000515699386597,-2.580949544906616,-0.8092401623725891
1765882584974700300,843.9757001953125,0.6584054827690125,-2.542642116546631,-0.5219359993934631
1765882584984679700,843.9856796875,0.24420857429504395,-0.12210428714752197,-0.9983820915222168
1765882584994658800,843.9956589355469,0.23942017555236816,-0.1173158809542656,-0.9959878921508789
1765882585004638200,844.0056381835938,-1.3838485479354858,1.5275006294250488,-0.8331822156906128
1765882585044524500,844.0455246582031,-1.4508862495422363,-0.4596867263317108,0.5674257874488831
1765882585054534400,844.0555344238281,-1.0414776802062988,-1.434126853942871,0.9409212470054626
1765882585064544300,844.0655441894531,0.05985504388809204,-1.4293384552001953,1.50355863571167
1765882585074553900,844.0755539550781,0.08619125932455063,-2.786850690841675,2.22660756111145
1765882585084502800,844.0855026855469,0.14604631066322327,-2.2697031497955322,1.9967641830444336
1765882585094512400,844.0955124511719,0.5770025849342346,-0.6560112833976746,1.7597382068634033
1765882585104491800,844.1054916992188,0.9792284965515137,0.24899697303771973,1.7118542194366455
1765882585134490400,844.1354904785156,0.6536170840263367,-1.6089035272598267,1.091755986213684
1765882585144469800,844.1454697265625,0.6536170840263367,-2.33913516998291,0.933738648891449
1765882585164458800,844.1654587402344,1.4484920501708984,-2.6001031398773193,1.1085153818130493
1765882585174499000,844.1754990234375,1.824381709098816,-1.3455413579940796,1.4077905416488647
1765882585184478200,844.1854782714844,2.7988216876983643,0.586579442024231,1.6879122257232666
1765882585194457600,844.1954575195313,2.0039467811584473,0.9217676520347595,2.008735179901123
1765882585204436700,844.2054367675781,2.011129379272461,0.5674257874488831,1.659181833267212
1765882585214446600,844.2154465332031,2.006340980529785,0.0071826050989329815,0.9600749015808105
1765882585234405000,844.2354050292969,1.50355863571167,-0.9097966551780701,0.3687070608139038
1765882585244384300,844.2453842773438,1.1540051698684692,-2.559401512145996,0.3232172429561615
1765882585254363400,844.25536328125,0.24420857429504395,-2.432508945465088,-0.07182604819536209
1765882585264312300,844.2653122558594,-0.026336219161748886,-1.9033904075622559,-1.0055646896362305
1765882585274352600,844.2753525390625,0.07661445438861847,-0.8643068075180054,-1.7118542194366455
1765882585284331800,844.2853317871094,0.2585737705230713,-0.272938996553421,-2.4229321479797363
1765882585304290300,844.3052902832031,-0.19393034279346466,-2.9712042808532715,-2.449268341064453
1765882585314269400,844.31526953125,-0.3016694188117981,-3.955221176147461,-2.03507137298584
1765882585344237800,844.3452377929688,-1.9584569931030273,0.6057330369949341,-0.8571242094039917
1765882585354217000,844.3552170410156,-1.0654197931289673,0.011971008032560349,-1.2545616626739502
1765882585364196400,844.3651962890625,-0.8882488012313843,-0.5674257874488831,-0.8379706144332886
1765882585374206000,844.3752060546875,-0.933738648891449,0.586579442024231,-0.3711012601852417
1765882585384185300,844.3851853027344,0.7661445140838623,2.5043349266052246,-0.15083470940589905
1765882585394195000,844.3951948242187,0.8954314589500427,3.9647979736328125,0.011971008032560349
1765882585404174300,844.4051743164063,0.8547300100326538,3.7900211811065674,0.18914192914962769
1765882585414153500,844.4151535644531,0.4620809257030487,2.346317768096924,0.22026655077934265
1765882585424102100,844.4251020507812,0.42856210470199585,0.28969839215278625,0.3280056416988373
1765882585464049700,844.4650495605468,0.40940847992897034,1.7286136150360107,0.4812345504760742
1765882585474029000,844.4750290527344,0.5315127968788147,0.5793967843055725,0.24660277366638184
1765882585484008200,844.4850083007813,-0.5961562395095825,-1.2856862545013428,-0.043095629662275314
1765882585494018000,844.4950180664063,-0.6919242739677429,-2.604891538619995,-0.19632454216480255
1765882585503997200,844.5049970703125,-1.4652514457702637,-2.959233283996582,0.08858546614646912
1765882585513976600,844.5149765625,-2.2697031497955322,-2.2697031497955322,0.15562310814857483
1765882585523955700,844.5249558105469,-2.183511972427368,-1.7717092037200928,0.5339069962501526
1765882585533935000,844.5349350585938,-3.706224203109741,-1.9752163887023926,1.01753568649292
1765882585573913000,844.5749130859375,0.8810662031173706,1.8339585065841675,0.7206547260284424
1765882585583892200,844.5848923339844,1.1851298809051514,1.8483237028121948,1.048660397529602
1765882585593871600,844.5948715820313,1.2880805730819702,1.845929503440857,0.9265560507774353
1765882585603850800,844.6048508300781,2.1092917919158936,1.6160861253738403,0.6751648783683777
1765882585613860600,844.6148605957031,1.5107412338256836,0.023942016065120697,0.14365209639072418
1765882585623839700,844.62483984375,2.7533318996429443,0.6512228846549988,-0.2849099934101105
1765882585633819100,844.6348190917969,2.4013843536376953,0.933738648891449,-0.8427590131759644
1765882585663787300,844.6647873535156,-0.08858546614646912,-1.3766659498214722,-1.0797849893569946
1765882585673766700,844.6747666015625,1.3838485479354858,-1.4676456451416016,-1.2258312702178955
1765882585683745800,844.6847458496094,1.6950948238372803,-0.6943184733390808,-1.3072341680526733
1765882585693755600,844.6947556152344,2.6791117191314697,-0.8523358106613159,-1.4891934394836426
1765882585703734800,844.7047348632813,2.38462495803833,-0.5889736413955688,-0.9361328482627869
1765882585723693300,844.724693359375,2.449268341064453,0.7829039692878723,0.8978256583213806
1765882585733672700,844.7346726074219,1.139639973640442,0.49559974670410156,1.1300631761550903
1765882585743651800,844.7446518554688,-0.05985504388809204,-0.05027823522686958,1.113303780555725
1765882585753600500,844.7546005859375,-0.811634361743927,0.1173158809542656,1.3120225667953491
1765882585763580000,844.7645798339844,-1.290474772453308,0.40462008118629456,1.8507179021835327
1765882585773589500,844.7745895996094,-0.49559974670410156,0.6991068720817566,2.3032219409942627
1765882585783599400,844.7845993652344,-0.5027823448181152,0.3663128614425659,1.9704279899597168
1765882585793609200,844.7946091308594,-2.233790159225464,-0.1604115068912506,1.3287819623947144
1765882585813537000,844.814537109375,-1.7190368175506592,-0.31124621629714966,1.1300631761550903
1765882585823516400,844.8245163574219,0.0454898327589035,-0.05267243832349777,1.5131354331970215
1765882585843475000,844.8444748535156,6.71334171295166,3.732560396194458,0.8762778043746948
1765882585863433200,844.8644331054687,4.0294413566589355,-1.525106430053711,0.8427590131759644
1765882585873473500,844.8744736328125,2.674323320388794,-1.4460978507995605,1.9704279899597168
1765882585883422200,844.8844221191406,2.801215887069702,0.2777273952960968,2.094926595687866
1765882585893432000,844.8944321289063,2.2218191623687744,0.8858546018600464,2.0805611610412598
1765882585903411500,844.9044113769531,2.7676970958709717,0.7445967197418213,1.316810965538025
1765882585913421000,844.9144211425781,1.6424223184585571,0.31603461503982544,1.1851298809051514
1765882585923400400,844.924400390625,0.7086837291717529,0.6009446382522583,0.49320554733276367
1765882585933410000,844.93441015625,0.24899697303771973,-0.2513911724090576,0.3998316824436188
1765882585943420000,844.944419921875,-3.2585084438323975,1.580173134803772,1.1085153818130493
1765882585953399000,844.9543989257812,-2.7246015071868896,1.1851298809051514,2.0661959648132324
1765882585963348000,844.9643479003906,-3.488351821899414,2.454056739807129,1.7764976024627686
1765882585993255200,844.9942551269531,-7.7213006019592285,2.123656988143921,-2.2433669567108154
1765882586003234300,845.004234375,-6.861782073974609,-0.10534487664699554,-2.513911724090576
1765882586013244200,845.014244140625,-4.594472885131836,-1.821987509727478,-3.090914487838745
1765882586023223300,845.0242233886719,-4.414907932281494,-0.4620809257030487,-3.9264907836914062
1765882586033263600,845.034263671875,-3.931279182434082,0.35673606395721436,-4.683058738708496
1765882586043243000,845.0442429199219,-2.3487119674682617,0.9289502501487732,-3.909731388092041
1765882586053222100,845.0542221679688,-2.1140801906585693,0.090979665517807,-3.272873640060425
1765882586063201300,845.064201171875,-1.094150185585022,-2.741360902786255,-3.050212860107422
1765882586083159800,845.0841599121094,0.10055647045373917,-1.6160861253738403,-4.2090067863464355
1765882586093139200,845.0941391601563,0.19153612852096558,-1.0438719987869263,-4.2544965744018555
1765882586103118300,845.1041184082031,-0.6057330369949341,-1.5466543436050415,-4.084507942199707
1765882586113097700,845.11409765625,-0.9145850539207458,-2.6623523235321045,-4.050989151000977
1765882586123076900,845.1240769042969,-1.0127472877502441,-2.231395959854126,-3.928884983062744
1765882586133025500,845.1340256347656,-0.811634361743927,-1.335964560508728,-3.2178070545196533
1765882586143005000,845.1440048828125,-1.0773907899856567,-0.3711012601852417,-1.9297266006469727
1765882586152984000,845.1539841308594,-0.23942017555236816,0.363918662071228,-0.5650315880775452
1765883017139430400,1276.1404304199218,2.631227731704712,0.9983820915222168,-2.209848165512085
1765883017149309700,1276.150309814453,-2.2912509441375732,-11.705251693725586,-3.117250680923462
1765883017159150000,1276.1601501464843,-0.21308395266532898,-1.5203180313110352,0.7637503147125244
1765883017178808600,1276.17980859375,-1.357512354850769,-0.689530074596405,0.40222588181495667
1765883017188787700,1276.1897875976563,-1.9752163887023926,-1.2545616626739502,-0.16998831927776337
1765883017208807200,1276.2098071289063,-1.3215993642807007,-1.5538369417190552,-0.5315127968788147
1765883017218817000,1276.219817138672,-1.0031704902648926,-1.920149803161621,-0.4692635238170624
1765883017228796200,1276.2297961425782,-0.35673606395721436,-1.359906554222107,-0.28969839215278625
1765883017238806000,1276.2398059082032,0.15801730751991272,-1.173158884048462,-0.1867477297782898
1765883017248846300,1276.249846435547,0.5482721924781799,-1.0869675874710083,-0.28969839215278625
1765883017308782800,1276.3097829589844,0.35673606395721436,-0.5339069962501526,0.29209262132644653
1765883017398596000,1276.3995961914063,2.140416383743286,-3.222595453262329,-0.12689268589019775
1765883017448553500,1276.449553466797,-0.24420857429504395,-0.031124621629714966,1.2449848651885986
1765883017468511700,1276.46951171875,-0.8738836050033569,0.44532153010368347,0.5099649429321289
1765883017548406800,1276.5494067382813,0.49799394607543945,2.4013843536376953,-0.4644751250743866
1765883017558416600,1276.559416748047,1.0821791887283325,2.425326347351074,-0.6009446382522583
1765883017568395800,1276.5693957519532,1.9847931861877441,2.8802247047424316,-0.7805097699165344
1765883017578375200,1276.5793752441407,2.80361008644104,3.3494882583618164,-0.7876923680305481
1765883017588354300,1276.589354248047,2.4013843536376953,3.4524388313293457,-0.4836287498474121
1765883017598364200,1276.5993642578126,1.5729905366897583,1.9776105880737305,0.22266076505184174
1765883017608343300,1276.6093432617188,0.8858546018600464,0.7374141216278076,0.42616790533065796
1765883017628301800,1276.6293017578125,-0.3687070608139038,1.522712230682373,0.5195417404174805
1765883017648260400,1276.6492602539063,-1.0821791887283325,1.0678139925003052,0.8858546018600464
1765883017678259200,1276.6792592773438,-0.5889736413955688,1.723825216293335,-1.039083480834961
1765883017688238300,1276.68923828125,-0.8403648138046265,1.3479355573654175,-1.5322890281677246
1765883303119829200,1562.1208293457032,0.6560112833976746,-0.33039984107017517,-4.477157115936279
1765883303149597700,1562.15059765625,-2.10210919380188,-5.453991413116455,-0.9864110946655273
1765883303159377000,1562.160376953125,-0.9768342971801758,-1.8195933103561401,0.2059013396501541
1765883303179166000,1562.180166015625,-2.027888774871826,0.26096799969673157,4.479551315307617
1765883303189175600,1562.1901755371093,-0.47405192255973816,-1.01753568649292,4.060565948486328
1765883303199185400,1562.2001853027343,1.4437036514282227,-2.1523873805999756,3.3446998596191406
1765883303209195300,1562.2101953125,1.922544002532959,-0.05267243832349777,3.28963303565979
1765883303219113500,1562.2201135253906,1.1013327836990356,3.0406360626220703,4.58968448638916
1765883303229092600,1562.2300925292968,1.944091796875,3.5913026332855225,5.87776517868042
1765883303249020700,1562.2500207519531,2.3535003662109375,1.8483237028121948,6.660669326782227
1765883303258999800,1562.2599997558593,1.8770540952682495,0.6919242739677429,5.643133640289307
1765883303298977800,1562.299977783203,-3.5865142345428467,0.33279404044151306,3.957615375518799
1765883303378903300,1562.3799033203125,-5.791574001312256,1.0271124839782715,0.3232172429561615
1765883303388882700,1562.3898825683593,-2.6815059185028076,-0.009576806798577309,-0.5937620401382446
1765883303398861800,1562.3998618164062,-2.2026655673980713,1.455674648284912,-0.035913024097681046
1765883303448788700,1562.4497888183594,1.213860273361206,-1.0462661981582642,1.5682021379470825
1765883303488766700,1562.4897666015625,2.3965959548950195,0.040701430290937424,2.647987127304077
1765883303508755700,1562.5097556152343,-0.6584054827690125,-0.5434837937355042,2.164358377456665
1765883303518734800,1562.5197348632812,-2.652775526046753,-0.1628057211637497,1.5705963373184204
1765883303578702000,1562.5797021484375,-5.317522048950195,2.094926595687866,-1.8914192914962769
1765883303648617700,1562.6496176757812,-0.5841852426528931,-0.45010992884635925,-0.33518823981285095
1765883303668576300,1562.669576171875,-1.0821791887283325,-0.4429273009300232,-0.4644751250743866
1765883303728512800,1562.7295126953125,-0.706289529800415,-0.5003881454467773,1.015141487121582
1765883303768521200,1562.7695212402343,-2.008735179901123,-1.4844050407409668,-1.1085153818130493
1765883303788449300,1562.78944921875,0.727837324142456,-1.3096283674240112,0.38307225704193115
1765883303838437000,1562.8394370117187,-5.30076265335083,0.8044517636299133,0.09576806426048279
1765883303848416300,1562.8494162597656,-2.499546527862549,-0.3208230137825012,-0.23942017555236816
1765883303858395600,1562.8593957519531,-2.1739351749420166,-1.2665326595306396,-1.5514427423477173
1765883303868405200,1562.8694052734375,-1.3311761617660522,-1.0199298858642578,-1.292868971824646
1765883303878384600,1562.8793845214843,-0.31603461503982544,-0.14844051003456116,-0.5746083855628967
1765883303888363800,1562.8893637695312,-3.023876667022705,1.944091796875,1.1204863786697388
1765883303898343200,1562.8993432617187,4.307168960571289,1.45806884765625,2.3487119674682617
1765883303918332200,1562.9193322753906,1.556231141090393,1.3527239561080933,2.3750481605529785
1765883303928311300,1562.9293112792968,2.918531894683838,-0.07182604819536209,3.4332852363586426
1765883303938321200,1562.9393210449218,3.308786630630493,-0.2825157940387726,3.5434184074401855
1765883303948300300,1562.9493002929687,2.1164743900299072,0.20350714027881622,3.138798475265503
1765883303958279700,1562.9592797851562,-0.49559974670410156,0.49559974670410156,3.423708438873291
1765883303968289300,1562.9692893066406,1.036689281463623,-0.18914192914962769,3.49314022064209
1765883303978268700,1562.9792685546875,2.3343467712402344,-2.0015525817871094,1.5179238319396973
1765883303988247800,1562.9892478027343,2.205059766769409,-3.550601005554199,0.07422025501728058
1765883303998227200,1562.9992272949219,2.425326347351074,-3.1220390796661377,-0.6416460275650024
1765883304018185700,1563.0191857910156,1.0773907899856567,0.21308395266532898,1.647210717201233
1765883304028195300,1563.0291953125,0.3208230137825012,-0.1604115068912506,2.1763293743133545
1765883304038174700,1563.0391748046875,0.2825157940387726,-2.0685901641845703,1.1300631761550903
1765883304048184300,1563.0491843261718,-2.1978771686553955,-1.0965443849563599,-0.21547815203666687
1765883304058194200,1563.0591940917968,-2.9879636764526367,0.8762778043746948,-0.08619125932455063
1765883304068204000,1563.0692041015625,-3.2537200450897217,2.0685901641845703,0.49320554733276367
1765883304078152700,1563.0791525878906,0.5315127968788147,2.7772738933563232,-0.7182605266571045
1765883304088162600,1563.0891625976562,0.5746083855628967,2.7269957065582275,-0.7398083209991455
1765883304098111200,1563.099111328125,1.3120225667953491,1.6136919260025024,-2.1116859912872314
1765883304108090400,1563.1090903320312,0.3878606855869293,-0.22505496442317963,-2.078166961669922
1765883304128049000,1563.129048828125,-0.3256114423274994,-1.5298948287963867,-2.4444799423217773
1765883304138028000,1563.1390280761718,0.7398083209991455,-1.7741034030914307,-1.987187385559082
1765883304148007400,1563.1490073242187,-0.15322890877723694,-1.2665326595306396,-0.9026140570640564
1765883304157956000,1563.1589560546875,-0.42377370595932007,-0.6057330369949341,-0.5722141861915588
1765883304167935500,1563.168935546875,-0.6943184733390808,-0.3208230137825012,-0.35673606395721436
1765883304177914600,1563.1789145507812,-0.38546648621559143,-0.5195417404174805,0.3447650372982025
1765883304187924500,1563.1889245605469,0.038307227194309235,-0.8355764150619507,0.5889736413955688
1765883304197903600,1563.198903564453,-0.7398083209991455,0.8475474119186401,0.7757213711738586
1765883304207913500,1563.2089135742187,3.361459255218506,1.4891934394836426,1.0055646896362305
1765883304227872000,1563.2288720703125,1.8148049116134644,1.6208745241165161,1.1994950771331787
1765883304237851100,1563.2388510742187,0.33518823981285095,1.0893617868423462,1.522712230682373
1765883304247830500,1563.2488305664062,1.1468225717544556,-0.2968810200691223,1.1755530834197998
1765883304257809700,1563.2588095703125,0.2825157940387726,-1.4700398445129395,0.4118026793003082
1765883304267788800,1563.2687888183593,-0.8236053586006165,-1.5897499322891235,-0.5530605912208557
1765883304277768200,1563.2787683105469,0.7086837291717529,-1.237802267074585,-0.8571242094039917
1765883304287808500,1563.28880859375,1.3000515699386597,-0.28730419278144836,-0.7541735172271729
1765883304297787600,1563.2987875976562,3.1651346683502197,-0.7661445140838623,-0.8427590131759644
1765883304307797500,1563.3087976074219,0.4644751250743866,0.45489832758903503,-0.8786720037460327
1765883304347714600,1563.3487145996094,-3.6846764087677,1.6328455209732056,-0.47165772318840027
1765883304367703600,1563.3687036132812,0.26815059781074524,2.7222073078155518,0.16998831927776337
1765883304377682700,1563.3786826171875,2.5282769203186035,0.8810662031173706,-1.4077905416488647
1765883304387661800,1563.3886618652343,0.6105214357376099,1.170764684677124,-2.1116859912872314
1765883304397641200,1563.3986411132812,0.9696516990661621,0.7182605266571045,-1.656787633895874
1765883304407681500,1563.408681640625,1.577778935432434,-0.6200982332229614,-1.6950948238372803
1765883304417691100,1563.4186911621093,0.7661445140838623,-1.8986018896102905,-2.451662540435791
1765883304437680400,1563.4386804199219,-1.8148049116134644,0,-0.43095630407333374
1765883304447690000,1563.4486899414062,-0.849941611289978,0.6536170840263367,0.5434837937355042
1765883304457669400,1563.4586694335937,-0.033518824726343155,-0.2513911724090576,-0.7613561153411865
1765883304467679000,1563.468678955078,-0.5722141861915588,-1.0845733880996704,-2.1332337856292725
1765883304477658400,1563.4786584472656,0.871489405632019,-2.4636335372924805,-2.4205379486083984
1765883304487637500,1563.4886374511718,1.867477297782898,-3.318363666534424,-1.9608511924743652
1765883304497617000,1563.4986169433594,0.33758243918418884,-2.094926595687866,-1.1635819673538208
1765883304507596000,1563.5085959472656,-0.3687070608139038,0.05746084079146385,0.38546648621559143
1765883304517575200,1563.5185751953125,-0.9481038451194763,0.6919242739677429,1.5514427423477173
1765883304527585000,1563.5285849609375,-1.3263877630233765,0.1604115068912506,1.3551181554794312
1765883304567563000,1563.5685629882812,0.17717093229293823,1.5418659448623657,2.406172752380371
1765883304577572900,1563.5785727539062,0.27054479718208313,1.192312479019165,0.6727706789970398
1765883304587582700,1563.5885827636719,-0.035913024097681046,0.2106897532939911,-0.3232172429561615
1765883304597561900,1563.598561767578,1.0127472877502441,-1.6352397203445435,-0.6607996821403503
1765883304607571700,1563.6085717773437,2.6839001178741455,-3.222595453262329,-1.3527239561080933
1765883304617550800,1563.61855078125,2.3295583724975586,-3.2585084438323975,-2.3295583724975586
1765883304627530000,1563.6285300292968,-0.1843535304069519,-0.15083470940589905,-1.4532804489135742
1765883304637509400,1563.6385092773437,-0.13407529890537262,1.2737152576446533,1.5059528350830078
1765883304657498400,1563.6584982910156,1.3694833517074585,0.7230489253997803,0.828393816947937
1765883304667538700,1563.6685385742187,0.4884171485900879,0.9576807022094727,-0.10773907601833344
1765883304677487400,1563.6784873046875,-1.2856862545013428,1.2952631711959839,0.5339069962501526
1765883304687466800,1563.688466796875,-1.3934253454208374,1.8555063009262085,1.766920804977417
1765883304697446000,1563.6984458007812,-1.2976573705673218,1.7381904125213623,1.7286136150360107
1765883304707455700,1563.7084558105469,-0.9696516990661621,1.2832920551300049,0.9576807022094727
1765883304717435000,1563.718434814453,-0.9983820915222168,1.482010841369629,-0.17717093229293823
1765883304727444700,1563.7284448242187,-1.278503656387329,1.2234370708465576,-0.5650315880775452
1765883304777341000,1563.7783408203125,-0.9864110946655273,0.10055647045373917,-1.7501614093780518
1765883304787350800,1563.7883508300781,-1.522712230682373,1.3407529592514038,-1.723825216293335
1765883304797330000,1563.7983298339843,-1.0319008827209473,1.1276689767837524,-2.0159177780151367
1765883304807339800,1563.80833984375,-0.22026655077934265,0.2968810200691223,-1.845929503440857
1765883304817319000,1563.8183188476562,0.12689268589019775,0.07661445438861847,-1.599326729774475
1765883304827328800,1563.8283288574219,0.3758896589279175,1.2186486721038818,-1.0869675874710083
1765883304837308000,1563.838307861328,0.5746083855628967,1.3503297567367554,-0.45250412821769714
1765883304867276300,1563.8682763671875,0.22744916379451752,-0.849941611289978,0.17717093229293823
1765883304877286000,1563.8782858886718,1.3862427473068237,-2.1787235736846924,0.0694318488240242
1765883304887265300,1563.8882653808594,1.6041151285171509,-3.3303346633911133,-0.47884035110473633
1765883304897244400,1563.8982443847656,1.403002142906189,-2.3558945655822754,0.5027823448181152
1765883304907254300,1563.9082541503906,1.2306196689605713,-0.8643068075180054,2.4372973442077637
1765883304917264000,1563.9182639160156,0.9169792532920837,0.47405192255973816,3.550601005554199
1765883304927273700,1563.9282736816406,0.9864110946655273,0.4213795065879822,3.6128504276275635
1765883304937222400,1563.9382224121093,0.43335050344467163,-0.2825157940387726,3.227383852005005
1765883304967190800,1563.968190673828,-1.2617442607879639,1.2210428714752197,3.825934410095215
1765883304977200600,1563.9782006835937,-1.6639702320098877,1.280897855758667,3.066972494125366
1765883304987210200,1563.988210205078,-1.9057846069335938,0.38067805767059326,2.341529369354248
1765883304997189600,1563.9981896972656,-1.7980455160140991,-0.7733271718025208,1.5514427423477173
1765883305007199200,1564.00819921875,-1.2330138683319092,-2.2864625453948975,0.6177040338516235
1765883305017209000,1564.018208984375,-1.3431471586227417,-2.8874073028564453,-0.2059013396501541
1765883305027219000,1564.0282189941406,-1.7741034030914307,-2.0374655723571777,-0.19632454216480255
1765883305037167600,1564.0381677246094,-1.9584569931030273,-1.2114660739898682,0.19393034279346466
1765883305047177200,1564.0481772460937,-1.5921441316604614,-0.8834604024887085,-0.22026655077934265
1765883305067135700,1564.0681357421875,-1.259350061416626,0.11013327538967133,-0.38067805767059326
1765883305077115100,1564.078115234375,-1.335964560508728,0.37828385829925537,0.028730420395731926
1765883305087124700,1564.0881247558593,-1.1803414821624756,0.7757213711738586,0.026336219161748886
1765883305097134600,1564.0981345214843,-1.1276689767837524,0.9840168952941895,0.031124621629714966
1765883305107144400,1564.10814453125,-0.9959878921508789,1.0247182846069336,0.3734954595565796
1765883305117123600,1564.1181235351562,-0.6200982332229614,0.4692635238170624,0.6584054827690125
1765883305127133400,1564.1281335449219,-0.3926490843296051,0.1412578970193863,0.2298433631658554
1765883305137082000,1564.13808203125,-0.08619125932455063,-0.1867477297782898,-0.035913024097681046
1765883305147092000,1564.1480920410156,0.45250412821769714,-1.192312479019165,0.05746084079146385
1765883305187070000,1564.1880700683594,0.38067805767059326,-0.4596867263317108,-0.7445967197418213
1765883305197049000,1564.1980490722656,0.27054479718208313,-0.38546648621559143,-0.7445967197418213
1765883305207059000,1564.2080588378906,0.6200982332229614,-0.5291185975074768,-0.5889736413955688
1765883305217038000,1564.2180380859375,0.3495534360408783,0.07900865375995636,-0.8930372595787048
1765883305227048000,1564.2280478515625,-0.24899697303771973,0.5051765441894531,-0.7972691655158997
1765883305237027000,1564.2380270996093,-0.40462008118629456,0.6919242739677429,-0.38546648621559143
1765883305247037000,1564.2480368652343,-0.7038952708244324,0.8523358106613159,-0.4644751250743866
1765883305257046800,1564.258046875,-0.8403648138046265,0.8451532125473022,-0.17956513166427612
1765883305286923500,1564.2879235839844,0.19871874153614044,-0.3711012601852417,-0.5482721924781799
1765883305296902700,1564.2979025878906,0.2322375625371933,-0.1867477297782898,-0.37828385829925537
1765883305306881800,1564.3078818359375,0.2059013396501541,-0.17956513166427612,-0.3711012601852417
1765883305316891600,1564.3178916015625,0.31124621629714966,0.3471592366695404,-0.002394201699644327
1765883305326932000,1564.3279318847656,0.2298433631658554,0.8643068075180054,0.4836287498474121
1765883305336941800,1564.3379418945312,0.7422025203704834,1.048660397529602,0.849941611289978
1765883305346921000,1564.3479208984375,1.3407529592514038,0.6344634294509888,0.8164227604866028
1765883305356900400,1564.357900390625,1.5466543436050415,0.21308395266532898,0.7781155705451965
1765883305386899000,1564.3878989257812,1.7717092037200928,0.3902548849582672,0.8403648138046265
1765883305396908800,1564.3979086914062,1.886630892753601,0.3447650372982025,0.7422025203704834
1765883305416958700,1564.4179587402343,1.86508309841156,0.6033388376235962,0.9026140570640564
1765883305426938000,1564.4279382324219,1.7693150043487549,1.1085153818130493,0.9816226959228516
1765883305436947700,1564.4379477539062,2.0183119773864746,1.0031704902648926,1.0630255937576294
1765883305446927000,1564.447927001953,1.9129672050476074,1.3000515699386597,0.9002198576927185
1765883305456906200,1564.45790625,1.6831238269805908,1.9632453918457031,0.9576807022094727
1765883305466916000,1564.467916015625,2.0398597717285156,1.4963760375976562,0.9864110946655273
1765883305486966300,1564.4879663085937,2.164358377456665,0.3064578175544739,-0.9672574996948242
1765883305496945400,1564.4979453125,1.7477672100067139,0.8068459630012512,-0.47884035110473633
1765883305506955300,1564.5079553222656,1.4987702369689941,1.403002142906189,-0.3256114423274994
1765883305516934400,1564.5179343261718,1.6400281190872192,1.4484920501708984,-0.811634361743927
1765883305526913500,1564.5279135742187,1.7621324062347412,1.173158884048462,-1.335964560508728
1765883305536893000,1564.5378928222656,1.194706678390503,1.5418659448623657,-1.522712230682373
1765883305546902800,1564.5479028320312,0.20350714027881622,2.4372973442077637,-0.9816226959228516
1765883305556882000,1564.5578818359375,-0.2513911724090576,2.920926094055176,-0.33758243918418884
1765883305566922200,1564.5679221191406,-0.21787235140800476,2.9233202934265137,-0.3711012601852417
1765883305596890400,1564.5978903808593,0.912190854549408,0.3423708379268646,-1.237802267074585
1765883305606900200,1564.6079001464843,0.9169792532920837,-0.2082955539226532,-1.4221558570861816
1765883305616910000,1564.61791015625,0.47644615173339844,0.031124621629714966,-1.3623007535934448
1765883305626919700,1564.6279196777343,-0.5051765441894531,0.4165911078453064,-0.8020575642585754
1765883305636838000,1564.637837890625,-0.27054479718208313,0.08619125932455063,-0.16759411990642548
1765883305646908700,1564.6479086914062,0.1604115068912506,-0.3471592366695404,-0.7661445140838623
1765883305656888000,1564.6578881835937,1.1851298809051514,-0.6799532771110535,-0.9361328482627869
1765883305676846600,1564.6778466796875,1.2713210582733154,-1.192312479019165,-0.15322890877723694
1765883305736752600,1564.7377526855469,0.569819986820221,-1.0271124839782715,2.8131868839263916
1765883305746762200,1564.7477622070312,0.3064578175544739,-1.3215993642807007,2.9951462745666504
1765883305756741600,1564.7577416992187,0.12210428714752197,-1.5442601442337036,3.4141316413879395
1765883305766751200,1564.767751220703,-0.31842881441116333,-1.0055646896362305,3.3039982318878174
1765883305776730600,1564.7777307128906,-0.9983820915222168,-0.49559974670410156,3.3063924312591553
1765883305786709800,1564.7877097167968,-0.9983820915222168,-1.05105459690094,3.5697548389434814
1765883305796689200,1564.7976892089844,-0.8140285611152649,-2.3343467712402344,2.5713725090026855
1765883305816678100,1564.8176782226562,-1.0630255937576294,-3.134010076522827,1.0462661981582642
1765883305826687700,1564.8276877441406,-1.460463047027588,-3.1052796840667725,0.569819986820221
1765883305836667100,1564.8376672363281,-2.626439332962036,-2.5282769203186035,0.2777273952960968
1765883305846676700,1564.8476767578125,-3.909731388092041,-0.8834604024887085,0.828393816947937
1765883305856656100,1564.85765625,-3.24414324760437,-0.2513911724090576,1.8124107122421265
1765883305866665700,1564.8676657714843,-1.8579005002975464,-0.28730419278144836,1.6639702320098877
1765883305876645000,1564.8776450195312,-0.38067805767059326,-0.5817909836769104,0.9050082564353943
1765883305886685400,1564.887685546875,0.47165772318840027,-0.8451532125473022,0.08140286058187485
1765883305896664600,1564.8976645507812,0.7398083209991455,-0.6655880808830261,-0.4405331015586853
1765883305906644000,1564.9076440429687,0.42377370595932007,0.4572925269603729,-0.8930372595787048
1765883305946560800,1564.9475607910156,0.5554547905921936,0.9433154463768005,-1.7812861204147339
1765883305956540200,1564.9575400390625,0.1364694982767105,1.2282254695892334,-0.9744400978088379
1765883305966549800,1564.9675498046875,-0.42377370595932007,1.3072341680526733,-0.3256114423274994
1765883305976529200,1564.9775290527343,-0.8355764150619507,1.094150185585022,-0.45250412821769714
1765883305986539000,1564.9875390625,-1.3479355573654175,0.6847416758537292,-0.6153098344802856
1765883305996548600,1564.9975485839843,-1.5275006294250488,0.38067805767059326,-0.42377370595932007
1765883306006528000,1565.0075280761719,-0.6536170840263367,-0.7924807667732239,-0.7469909191131592
1765883306036496100,1565.03749609375,-2.6240451335906982,-0.6440402865409851,-1.2066776752471924
1765883306046506000,1565.0475061035156,-2.851494312286377,0.038307227194309235,0.26336219906806946
1765883306056485000,1565.0574851074218,-2.719813108444214,0.2992752194404602,0.4812345504760742
1765883306076443600,1565.0774436035156,-2.5474305152893066,0.06224924325942993,-0.3758896589279175
1765883306086484000,1565.0874838867187,-1.656787633895874,0.10295066982507706,-0.950498104095459
1765883306096432600,1565.0974326171875,-1.0103530883789062,0.33758243918418884,-1.2473790645599365
1765883306106442500,1565.1074423828125,-0.8164227604866028,-0.23702596127986908,-1.4867992401123047
1765883306116452400,1565.1174523925781,-0.9864110946655273,0.19153612852096558,-1.6065093278884888
1765883306126462000,1565.1274619140625,-0.5147533416748047,0.49320554733276367,-1.436521053314209
1765883306136441300,1565.13744140625,-0.20350714027881622,0.08619125932455063,-1.2665326595306396
1765883306146451000,1565.1474509277343,-0.5123591423034668,0.08379705995321274,-1.0630255937576294
1765883306156430300,1565.1574304199219,-0.9576807022094727,0.29209262132644653,-0.26575639843940735
1765883306166409500,1565.167409423828,-1.2449848651885986,0.21787235140800476,0.2561795711517334
1765883306176419300,1565.1774194335937,-1.0773907899856567,0.1388636976480484,0.35434186458587646
1765883306186429000,1565.187428955078,-1.0606313943862915,-0.24660277366638184,-0.0071826050989329815
1765883306206418200,1565.2074182128906,-0.9528923034667969,-1.1228805780410767,-0.3232172429561615
1765883306216427800,1565.217427734375,-0.9241618514060974,-1.1420341730117798,0
1765883306236416800,1565.2374167480468,-0.7398083209991455,-0.5674257874488831,0.016759412363171577
1765883306246396200,1565.2473962402344,-0.031124621629714966,-0.6536170840263367,-0.019153613597154617
1765883306266385200,1565.2673852539062,0.14844051003456116,-0.8451532125473022,-0.6248866319656372
1765883306286404600,1565.2874045410156,0.3902548849582672,0.9959878921508789,0.6009446382522583
1765883306296383700,1565.2973837890625,0.6584054827690125,1.259350061416626,0.5985504388809204
1765883306306393600,1565.3073935546875,0.23942017555236816,1.4173674583435059,0
1765883306336423000,1565.3374228515625,-1.1779472827911377,1.8818424940109253,0.45250412821769714
1765883306346432800,1565.3474328613281,-0.4118026793003082,0.751779317855835,-0.026336219161748886
1765883306356412000,1565.3574118652343,-0.7709329724311829,0.4381389021873474,-0.7469909191131592
1765883306366421800,1565.367421875,-0.7829039692878723,0.11971008777618408,-0.9217676520347595
1765883306376401000,1565.3774008789062,-0.4908113479614258,-0.5841852426528931,-1.316810965538025
1765883306386441200,1565.3874411621093,0.1867477297782898,-1.2186486721038818,-1.5155296325683594
1765883306396390000,1565.397389892578,0.6991068720817566,-2.0039467811584473,-1.501164436340332
1765883306406399700,1565.407399658203,0.3447650372982025,-1.01753568649292,-1.3886369466781616
1765883306416409600,1565.4174096679687,-0.014365210197865963,-0.047884032130241394,-0.8595184087753296
1765883306426288600,1565.4272885742187,-0.6177040338516235,0.6919242739677429,-0.49799394607543945
1765883306446278000,1565.4472778320312,-1.2713210582733154,1.192312479019165,-0.629675030708313
1765883306456257000,1565.457257080078,-0.8595184087753296,0.9145850539207458,-0.7015010714530945
1765883306466267000,1565.467266845703,-0.8427590131759644,0.8595184087753296,-0.6775590777397156
1765883306476246000,1565.47724609375,-0.3974374830722809,0.6967126727104187,-0.4812345504760742
1765883306486255900,1565.487255859375,-0.6344634294509888,0.38307225704193115,-0.22505496442317963
1765883306496235000,1565.4972351074218,-0.20111294090747833,0.8882488012313843,0.3447650372982025
1765883306506244900,1565.5072448730468,0.6392518281936646,-0.3423708379268646,0.586579442024231
1765883306516224000,1565.5172241210937,0.751779317855835,-1.292868971824646,-0.19153612852096558
1765883306526233900,1565.5272338867187,0.28730419278144836,-1.8148049116134644,-0.9265560507774353
1765883306556202000,1565.5572019042968,-0.28969839215278625,0.20111294090747833,0.20111294090747833
1765883306566211800,1565.5672119140625,-0.2561795711517334,0.2059013396501541,0.19632454216480255
1765883306576221700,1565.5772216796875,-0.06464344263076782,0.35913026332855225,0.090979665517807
1765883306586200800,1565.5872009277343,0.49799394607543945,-0.5027823448181152,-0.40222588181495667
1765883306596210700,1565.5972106933593,0.6919242739677429,-0.8858546018600464,-0.8882488012313843
1765883306606220300,1565.6072202148437,0.14365209639072418,-1.0654197931289673,-1.1109095811843872
1765883306616199700,1565.6171997070312,-1.1803414821624756,0.21308395266532898,-0.8978256583213806
1765883306626209300,1565.6272092285155,-1.5705963373184204,1.2210428714752197,-0.21787235140800476
1765883306636188700,1565.637188720703,-1.558625340461731,1.0845733880996704,-0.20111294090747833
1765883306676136200,1565.6771362304687,-0.14365209639072418,-1.3670891523361206,-1.2401964664459229
1765883306686176500,1565.6871765136718,-0.5746083855628967,-1.1348515748977661,-0.5386953949928284
1765883306696155600,1565.6971557617187,-0.9648633003234863,0.3758896589279175,-0.08858546614646912
1765883306706135000,1565.7071350097656,-1.1468225717544556,0.6033388376235962,0.13407529890537262
1765883306716114200,1565.7171142578125,-0.8212111592292786,-0.1412578970193863,0.0933738648891449
1765883306726124000,1565.7271240234375,-0.20111294090747833,-0.7158663272857666,-0.0694318488240242
1765883306736103200,1565.7371032714843,0.47644615173339844,-1.2186486721038818,-0.07182604819536209
1765883306746113000,1565.7471130371093,-0.2968810200691223,-0.5386953949928284,-0.24420857429504395
1765883306776081200,1565.7770810546874,-0.7445967197418213,0.5410895943641663,0.6200982332229614
1765883306796039700,1565.7970397949218,0.16998831927776337,0.2346317619085312,0.06464344263076782
1765883306806080000,1565.807080078125,0.8092401623725891,-0.35673606395721436,-0.5195417404174805
1765883306816059100,1565.8170590820312,0.4572925269603729,-0.08619125932455063,-0.5506663918495178
1765883306826069000,1565.8270690917968,0.507570743560791,-0.7350199222564697,-0.272938996553421
1765883306836048400,1565.8370483398437,0.20350714027881622,-0.8619126081466675,-0.5626373887062073
1765883306846058000,1565.8470581054687,-1.0247182846069336,0.730231523513794,-0.751779317855835
1765883306856037400,1565.8570373535156,-0.9959878921508789,1.1875240802764893,-0.363918662071228
1765883306905994500,1565.9069943847655,-0.5315127968788147,-0.2849099934101105,-2.4875755310058594
1765883306915943200,1565.9169431152343,-1.1300631761550903,1.0558429956436157,-1.7884687185287476
1765883306925953000,1565.926953125,-0.7422025203704834,1.5945383310317993,-1.05105459690094
1765883306935932400,1565.9369323730468,-0.06224924325942993,0.9792284965515137,-0.17238251864910126
1765883306945942000,1565.9469418945312,-0.8762778043746948,1.7764976024627686,0.19153612852096558
1765883306955890700,1565.956890625,-0.5027823448181152,2.4013843536376953,0.5147533416748047
1765883306965931000,1565.966930908203,0.689530074596405,1.900996208190918,0.8451532125473022
1765883306995899400,1565.9968994140625,0.21547815203666687,2.647987127304077,1.6160861253738403
1765883307005909000,1566.0069089355468,0.5841852426528931,2.097320795059204,1.6112977266311646
1765883307015888400,1566.0168884277343,-0.07182604819536209,2.054224967956543,1.4484920501708984
1765883307025898200,1566.0268981933593,-0.4572925269603729,2.3367409706115723,1.7118542194366455
1765883307035907800,1566.0369079589843,-1.1516109704971313,2.8443117141723633,1.6065093278884888
1765883307045917700,1566.0469177246093,-0.8547300100326538,2.094926595687866,1.2617442607879639
1765883307055896800,1566.0568967285155,-1.0127472877502441,1.5322890281677246,0.49320554733276367
1765883307065876200,1566.066876220703,-1.9129672050476074,1.944091796875,0.3687070608139038
1765883307075855400,1566.07685546875,-1.6041151285171509,1.9776105880737305,0.7469909191131592
1765883307115864000,1566.1168640136718,0.5506663918495178,2.255337953567505,0.26096799969673157
1765883307125873700,1566.1268737792968,-0.28969839215278625,2.054224967956543,0.1628057211637497
1765883307135822300,1566.136822265625,-1.0342950820922852,2.2218191623687744,-0.28730419278144836
1765883307145832200,1566.1468322753906,-0.9983820915222168,2.1811177730560303,-0.5578489899635315
1765883307155811600,1566.1568115234375,0.6823474764823914,1.2545616626739502,-0.8643068075180054
1765883307165821200,1566.1668212890625,1.2617442607879639,0.5195417404174805,-1.357512354850769
1765883307175800600,1566.1768005371093,2.2361843585968018,-0.38546648621559143,-1.8387469053268433
1765883307205768700,1566.206768798828,-0.10534487664699554,0.14844051003456116,-1.1899182796478271
1765883307215717400,1566.2167172851562,-0.4165911078453064,0.21308395266532898,-0.45010992884635925
1765883307225666300,1566.2266662597656,-0.6823474764823914,0.026336219161748886,0.05506663769483566
1765883307235676000,1566.2366760253906,-0.4405331015586853,0.524330198764801,0.10295066982507706
1765883307245685800,1566.2466857910156,0.5410895943641663,0.4836287498474121,0.3711012601852417
1765883307255665000,1566.2566647949218,1.699883222579956,-0.12928688526153564,0.6105214357376099
1765883307265674800,1566.2666748046875,2.145204782485962,-0.950498104095459,1.0295066833496094
1765883307275654000,1566.2766538085937,0.5506663918495178,-1.259350061416626,1.6328455209732056
1765883307285663700,1566.2866638183593,1.235408067703247,-1.6208745241165161,2.540247917175293
1765883307315662600,1566.3166625976562,-0.5913678407669067,-2.8131868839263916,2.87064790725708
1765883307325703000,1566.3267028808593,-0.1364694982767105,-3.1052796840667725,2.1380221843719482
1765883307335682000,1566.3366821289062,-0.768538773059845,-2.1332337856292725,1.5083470344543457
1765883307345692000,1566.3466918945312,-0.3423708379268646,-1.7501614093780518,1.944091796875
1765883307355671000,1566.356671142578,-1.280897855758667,-1.1683704853057861,1.8555063009262085
1765883307365681000,1566.366680908203,-1.2713210582733154,-1.1348515748977661,1.867477297782898
1765883307375660000,1566.3766599121093,-0.8882488012313843,-0.8786720037460327,1.3982137441635132
1765883307385670000,1566.386669921875,-0.19632454216480255,-0.9600749015808105,1.2832920551300049
1765883307395618600,1566.3966186523437,1.6615760326385498,-1.941697597503662,0.9050082564353943
1765883307435627000,1566.436626953125,1.9297266006469727,-1.0342950820922852,-0.36152446269989014
1765883307445636900,1566.4466369628906,2.4133553504943848,-1.644816517829895,-0.689530074596405
1765883307455616300,1566.4566162109375,2.5522189140319824,-1.6280571222305298,-0.8427590131759644
1765883307465595400,1566.4665954589843,2.851494312286377,-1.8818424940109253,-1.501164436340332
1765883307475574500,1566.4765744628905,2.7054479122161865,-1.6496049165725708,-2.5498247146606445
1765883307485554000,1566.486553955078,1.6376339197158813,-0.8762778043746948,-2.473210334777832
1765883307495533000,1566.4965329589843,1.434126853942871,-1.53707754611969,-2.209848165512085
1765883307505512400,1566.5065124511718,2.030282974243164,-1.3215993642807007,-3.794809579849243
1765883307535511000,1566.536510986328,1.357512354850769,1.3239935636520386,-4.685452938079834
1765883307545521000,1566.5465209960937,0.9097966551780701,2.1332337856292725,-5.458779811859131
1765883307555500300,1566.5565002441406,0.9600749015808105,2.7892448902130127,-6.110002517700195
1765883307565540400,1566.566540283203,-0.3423708379268646,3.2632968425750732,-6.011840343475342
1765883307575550200,1566.5765502929687,-1.048660397529602,3.0310592651367188,-5.623979568481445
1765883307585560000,1566.5865600585937,0.395043283700943,1.7357962131500244,-6.366182327270508
1765883307595539200,1566.5965393066406,1.479616641998291,-0.23702596127986908,-8.619126319885254
1765883307605549000,1566.6065490722656,3.0789434909820557,-2.940079689025879,-9.931148529052734
1765883307635517200,1566.6365170898437,3.378218650817871,1.4891934394836426,-3.9169139862060547
1765883307645527000,1566.6465270996093,4.438849925994873,2.8850131034851074,-2.5282769203186035
1765883307655506200,1566.6565061035155,4.307168960571289,2.207453966140747,-1.8483237028121948
1765883307665485600,1566.666485595703,6.071695327758789,-0.8523358106613159,-2.2433669567108154
1765883307675464700,1566.6764645996093,6.799532890319824,-3.6750996112823486,-5.458779811859131
1765883307685444000,1566.6864440917968,3.4117374420166016,-2.056619167327881,-5.193023681640625
1765883307695453700,1566.6964536132812,2.87064790725708,-2.0590133666992188,0.8762778043746948
1765883307705433000,1566.7064331054687,1.3766659498214722,-3.0190882682800293,1.0606313943862915
1765883307735432000,1566.7364318847656,2.9233202934265137,-6.584054470062256,-4.378994941711426
1765883307745411000,1566.7464111328125,0.5410895943641663,-2.8850131034851074,-5.5114521980285645
1765883307755390200,1566.7563901367187,-2.631227731704712,1.4915876388549805,-0.0694318488240242
1765883307765369600,1566.7663696289062,-4.3622355461120605,5.178658485412598,7.627926826477051
1765883307775348700,1566.7763486328124,-4.122815132141113,6.382941722869873,9.045293807983398
1765883307785328000,1566.786328125,-0.6919242739677429,2.889801502227783,4.019864559173584
1765883307795337700,1566.7963376464843,2.477998733520508,-0.751779317855835,-1.2856862545013428
1765883307805347600,1566.80634765625,3.957615375518799,-1.4891934394836426,-3.155557870864868
1765883307835316000,1566.8363159179687,-0.1628057211637497,2.032677173614502,1.889025092124939
1765883307855274200,1566.8562741699218,3.136404275894165,-2.6886885166168213,3.758896589279175
1765883307865314600,1566.866314453125,5.717353820800781,-3.1028854846954346,-1.5658079385757446
1765883307875294000,1566.8762939453125,5.7987565994262695,-2.6623523235321045,-2.9975404739379883
1765883307885303600,1566.8863034667968,3.1531636714935303,-1.314416766166687,-2.853888511657715
1765883307895283000,1566.8962829589843,-2.451662540435791,4.709394931793213,2.2242133617401123
1765883307905262000,1566.9062619628905,-3.9169139862060547,4.01268196105957,8.858546257019043
1765883307915241500,1566.916241455078,-2.346317768096924,2.604891538619995,3.44765043258667
1765883307955158300,1566.956158203125,-5.396530628204346,3.531447410583496,0.15322890877723694
1765883307965168000,1566.9661682128906,-3.8283286094665527,0.24181437492370605,1.4652514457702637
1765883307975147500,1566.9761474609375,-0.7948749661445618,-1.8818424940109253,-2.698265314102173
1765883307985126700,1566.9861267089843,-0.08619125932455063,-0.9026140570640564,-4.405331134796143
1765883307995105800,1566.9961057128905,-0.8906430602073669,-1.0271124839782715,-2.7724854946136475
1765883308005115600,1567.0061157226562,-1.4077905416488647,-0.7852981686592102,-2.5450363159179688
1765883308015125500,1567.0161254882812,-2.82515811920166,0.6991068720817566,-1.194706678390503
1765883308055103500,1567.056103515625,1.7094600200653076,-0.5219359993934631,-2.3367409706115723
1765883308075031600,1567.0760314941406,-0.5674257874488831,0.871489405632019,1.9512743949890137
1765883308085010700,1567.0860107421875,-1.0055646896362305,0.2322375625371933,0.5171475410461426
1765883308095020500,1567.0960205078125,-1.9177556037902832,1.4413094520568848,-0.1843535304069519
1765883308105030100,1567.1060300292968,-1.7501614093780518,1.335964560508728,0.36152446269989014
1765883308115040000,1567.1160400390625,-2.1308395862579346,2.47560453414917,0.18914192914962769
1765883308125049900,1567.1260498046875,-1.1851298809051514,2.5282769203186035,1.577778935432434
1765883308145038800,1567.1460388183593,1.1635819673538208,-0.2801215946674347,0.20350714027881622
1765883308154987500,1567.155987548828,3.1292216777801514,-2.6815059185028076,-1.7262194156646729
1765883308164966700,1567.1659665527343,3.308786630630493,-3.1962592601776123,-2.3080103397369385
1765883308174946000,1567.1759460449218,1.5083470344543457,-1.522712230682373,-1.1516109704971313
1765883308184925200,1567.1859252929687,-1.4197616577148438,1.213860273361206,0.9481038451194763
1765883308194904600,1567.1959045410156,-2.1499931812286377,1.2258312702178955,1.6304513216018677
1765883308204914200,1567.2059140625,-2.432508945465088,1.1659762859344482,-0.1412578970193863
1765883308214893600,1567.2158935546875,-1.98958158493042,0.7565677165985107,-0.3423708379268646
1765883308224842200,1567.2258422851562,-1.7477672100067139,1.558625340461731,-0.7733271718025208
1765883308264789800,1567.2657897949218,-0.6655880808830261,0.17238251864910126,-0.8810662031173706
1765883308274769000,1567.275768798828,-0.12928688526153564,-1.2114660739898682,-1.821987509727478
1765883308284748300,1567.2857482910156,0.26815059781074524,-1.1827356815338135,-1.778891921043396
1765883308294727400,1567.2957275390625,-0.3423708379268646,0.40940847992897034,-0.9624691009521484
1765883308304737300,1567.3057373046875,0.33758243918418884,0.5291185975074768,0.16998831927776337
1765883308314716400,1567.3157163085937,1.1037269830703735,-0.8188169598579407,-0.6129156351089478
1765883308324665300,1567.325665283203,0.8331822156906128,-1.6519991159439087,-2.099714994430542
1765883308364612600,1567.365612548828,-3.840299606323242,3.821146011352539,1.5322890281677246
1765883308374592000,1567.3755920410156,-1.2018892765045166,2.276885747909546,1.8148049116134644
1765883308384601900,1567.3856018066406,0.5147533416748047,-0.05746084079146385,-0.828393816947937
1765883308394581000,1567.3955810546875,1.1300631761550903,-1.6352397203445435,-1.9033904075622559
1765883308404560100,1567.4055600585937,1.338358759880066,-1.338358759880066,-1.623268723487854
1765883308414570000,1567.4155700683593,1.3431471586227417,-1.381454348564148,-1.5921441316604614
1765883308424579800,1567.4255798339843,1.3192051649093628,-1.113303780555725,-0.871489405632019
1765883308434559000,1567.4355590820312,0.706289529800415,-0.17956513166427612,-0.17238251864910126
1765883308454548000,1567.4555478515624,-0.09576806426048279,0.5937620401382446,0.5027823448181152
1765883308484516400,1567.4855163574218,-0.040701430290937424,-0.8786720037460327,0.011971008032560349
1765883308494526000,1567.4955258789062,-1.0342950820922852,0.2513911724090576,0.7972691655158997
1765883308504505300,1567.5055053710937,0.1843535304069519,0.667982280254364,0.9433154463768005
1765883308514484500,1567.515484375,-0.11971008777618408,1.4173674583435059,0.6703764796257019
1765883308524494300,1567.5254943847656,-0.5554547905921936,1.4939818382263184,0.9888052940368652
1765883308534504200,1567.5355041503906,-0.8786720037460327,1.4915876388549805,0.751779317855835
1765883308544483300,1567.5454833984375,-0.9528923034667969,1.2186486721038818,0.10534487664699554
1765883308594471200,1567.5954711914062,-0.950498104095459,-0.6584054827690125,-1.1348515748977661
1765883308604480800,1567.6054807128905,-3.2130186557769775,3.426102638244629,0.8331822156906128
1765883308634449200,1567.63544921875,-1.8507179021835327,1.745373010635376,0.8164227604866028
1765883308644428300,1567.6454282226562,-0.33997663855552673,0.05506663769483566,-0.5626373887062073
1765883308654438100,1567.6554382324218,0.5099649429321289,-0.5626373887062073,-0.9481038451194763
1765883308684437000,1567.6854370117187,0.36152446269989014,-1.3670891523361206,-1.3718775510787964
1765883308694446600,1567.695446533203,0.9792284965515137,-3.339911460876465,-2.0015525817871094
1765883308704426000,1567.7054260253906,1.4293384552001953,-3.825934410095215,-2.535459518432617
1765883308714405000,1567.7154050292968,-0.06703764945268631,-2.126051187515259,-2.094926595687866
1765883308724384500,1567.7253845214843,-0.7805097699165344,-0.8403648138046265,-0.8882488012313843
1765883308734394000,1567.7353940429687,-2.408566951751709,0.9481038451194763,-0.3064578175544739
1765883308744373500,1567.7453735351562,-2.715024709701538,2.008735179901123,0.3471592366695404
1765883308754352600,1567.7553525390624,-3.004723072052002,3.600879430770874,0.3902548849582672
1765883308784351500,1567.7853515625,0.5099649429321289,0.7829039692878723,-0.1843535304069519
1765883308794361300,1567.795361328125,0.8068459630012512,0.5746083855628967,-0.4165911078453064
1765883308804371000,1567.8053708496093,1.314416766166687,-0.9289502501487732,-0.2944868206977844
1765883308814350300,1567.8153503417968,0.6440402865409851,-2.0207061767578125,-0.20111294090747833
1765883308824390700,1567.825390625,-0.3447650372982025,-1.4293384552001953,0.40462008118629456
1765883308834369800,1567.8353698730468,0.12449848651885986,-0.26815059781074524,0.7541735172271729
1765883308844318500,1567.845318359375,-0.12210428714752197,1.0079588890075684,0.6967126727104187
1765883308854328300,1567.8553283691406,-2.073378562927246,2.8347349166870117,1.259350061416626
1765883308864338200,1567.8653381347656,-3.1100680828094482,4.924872875213623,2.118868589401245
1765883308874317300,1567.8753173828125,-3.294421434402466,5.480327606201172,2.829946517944336
1765883308924274700,1567.925274658203,-1.338358759880066,1.6615760326385498,1.1994950771331787
1765883308934284300,1567.9352841796874,-1.3862427473068237,2.1356279850006104,1.2401964664459229
1765883308944294100,1567.945294189453,-1.1563993692398071,1.3838485479354858,0.5817909836769104
1765883308954304000,1567.955303955078,-1.1875240802764893,2.1595699787139893,-0.11971008777618408
1765883308964313600,1567.965313720703,-1.6184803247451782,2.7269957065582275,-0.1412578970193863
1765883308994312400,1567.9953125,-0.26815059781074524,0.9768342971801758,0.5291185975074768
1765883309004261000,1568.0052612304687,-0.11252748221158981,0.7158663272857666,-0.40462008118629456
1765883309014271000,1568.0152709960937,-0.21547815203666687,1.2713210582733154,-0.5267243981361389
1765883309024280600,1568.025280517578,0.12449848651885986,1.2952631711959839,0.1173158809542656
1765883309034229500,1568.0352294921875,-0.8547300100326538,0.9241618514060974,0.3998316824436188
1765883309044269800,1568.0452697753906,-0.933738648891449,0.9911994934082031,0.3256114423274994
1765883309054249000,1568.0552490234375,-1.01753568649292,0.993593692779541,0.44532153010368347
1765883309064289300,1568.0652893066406,-1.0103530883789062,0.8236053586006165,0.40222588181495667
1765883309074238000,1568.0752380371093,-0.26336219906806946,1.280897855758667,-0.1628057211637497
1765883309094196500,1568.095196533203,-0.8858546018600464,2.164358377456665,0.545877993106842
1765883309114216000,1568.1152158203124,-0.035913024097681046,1.3910311460494995,-0.26096799969673157
1765883309124225800,1568.125225830078,0.47165772318840027,1.170764684677124,-0.22744916379451752
1765883309134205000,1568.1352048339843,-0.15083470940589905,1.5466543436050415,0.16519992053508759
1765883309144214800,1568.14521484375,-0.6416460275650024,1.5849615335464478,0.6248866319656372
1765883309154194000,1568.1551938476562,-0.22744916379451752,0.646434485912323,0.6129156351089478
1765883309164173300,1568.1651733398437,-0.17238251864910126,-0.28969839215278625,0.22744916379451752
1765883309174213600,1568.1752136230468,-0.6440402865409851,0.6200982332229614,0.18914192914962769
1765883309194202600,1568.1952026367187,0.5267243981361389,1.41257905960083,1.4532804489135742
1765883309214191600,1568.2151916503906,-0.363918662071228,0.9289502501487732,1.8195933103561401
1765883309224201500,1568.2252014160156,-0.5363011956214905,0.22744916379451752,0.9241618514060974
1765883309234150100,1568.2351501464843,0.5363011956214905,-0.6751648783683777,0.17238251864910126
1765883309244129300,1568.2451293945312,0.524330198764801,-1.2641384601593018,-0.14604631066322327
1765883309254169600,1568.2551696777343,0.9050082564353943,-0.6751648783683777,0.08140286058187485
1765883309264179500,1568.2651794433593,1.0989385843276978,-1.1875240802764893,-0.05027823522686958
1765883309274128100,1568.275128173828,1.5179238319396973,-1.2880805730819702,-1.0797849893569946
1765883309284138000,1568.285137939453,1.137245774269104,-1.7405846118927002,-1.2258312702178955
1765883309304127000,1568.305126953125,0.9672574996948242,-3.0837318897247314,-1.8507179021835327
1765883309314106000,1568.3151062011718,1.764526605606079,-3.2106244564056396,-2.4444799423217773
1765883309324116000,1568.3251159667968,2.2457611560821533,-3.7253777980804443,-3.931279182434082
1765883309334156300,1568.33515625,1.6663644313812256,-3.155557870864868,-4.891354084014893
1765883309344166000,1568.3451657714843,-0.7350199222564697,-0.3974374830722809,-4.869806289672852
1765883309354145300,1568.3551452636718,-2.0207061767578125,1.7621324062347412,-3.2345664501190186
1765883309364185600,1568.365185546875,-2.470816135406494,2.169146776199341,-2.985569477081299
1765883309374164700,1568.3751647949218,-1.8986018896102905,1.6711528301239014,-5.595249176025391
1765883309384174600,1568.3851745605468,-1.5634137392044067,1.1109095811843872,-8.576030731201172
1765883309404132900,1568.4051328125,-1.678335428237915,-0.35434186458587646,-8.671798706054688
1765883309424152600,1568.4251525878906,-2.6240451335906982,-5.501875400543213,-8.056488990783691
1765883309434131700,1568.4351315917968,-0.49320554733276367,-5.954379558563232,-5.585672378540039
1765883309444172000,1568.4451721191406,3.9049429893493652,-4.95120906829834,-5.566518783569336
1765883309454182000,1568.4551818847656,7.158663272857666,-1.7501614093780518,-6.021417140960693
1765883309464191500,1568.46519140625,6.1267619132995605,0.040701430290937424,-3.4787750244140625
1765883309474171000,1568.4751708984375,3.155557870864868,-0.7613561153411865,-0.8643068075180054
1765883309484150000,1568.4851499023437,2.7102363109588623,-1.5729905366897583,1.7142484188079834
1765883309494160000,1568.4951599121093,5.365406036376953,-2.140416383743286,3.339911460876465
1765883309524189200,1568.5251892089843,4.022258758544922,-0.07661445438861847,-0.2849099934101105
1765883309574238000,1568.5752380371093,0.16759411990642548,-1.0773907899856567,-2.470816135406494
1765883309584217300,1568.5852172851562,-0.8930372595787048,1.0845733880996704,0.6560112833976746
1765883309594196500,1568.595196533203,0.4668693244457245,-0.9528923034667969,1.0845733880996704
1765883309604236800,1568.6052368164062,-2.2146365642547607,1.824381709098816,-0.4812345504760742
1765883309614246400,1568.6152463378905,-3.380612850189209,4.651933670043945,3.0166940689086914
1765883309624256300,1568.6252563476562,-4.99669885635376,5.317522048950195,2.276885747909546
1765883309634235600,1568.635235595703,-5.659893035888672,5.626373767852783,1.292868971824646
1765883309644214800,1568.64521484375,-2.470816135406494,2.4013843536376953,0.7374141216278076
1765883309654255000,1568.655255126953,-0.12689268589019775,-0.17956513166427612,-3.134010076522827
1765883309664264700,1568.6652646484374,0.3519476354122162,-1.3623007535934448,-3.4093432426452637
1765883309674213600,1568.6752136230468,0.24899697303771973,-2.7293899059295654,-3.272873640060425
1765883309684223200,1568.6852231445312,-0.9050082564353943,-1.5897499322891235,-3.3662476539611816
1765883309694233000,1568.6952331542968,-0.811634361743927,-1.644816517829895,-3.380612850189209
1765883309704243000,1568.7052429199218,0.43095630407333374,-1.3096283674240112,-1.5753847360610962
1765883309714252500,1568.7152524414062,0.8571242094039917,-0.9313444495201111,-1.5442601442337036
1765883309724232000,1568.7252319335937,0.2585737705230713,0.016759412363171577,-0.38546648621559143
1765883309744281900,1568.7452817382812,-1.403002142906189,1.7357962131500244,-1.1085153818130493
1765883309754261200,1568.7552612304687,-2.9065608978271484,4.654327869415283,1.4221558570861816
1765883309764270800,1568.765270751953,-4.836287498474121,7.010222434997559,4.37420654296875
1765883309774280700,1568.7752807617187,-4.699818134307861,6.380547523498535,5.5114521980285645
1765883309784259800,1568.785259765625,-1.968033790588379,2.0638017654418945,2.169146776199341
1765883309794239200,1568.7952392578125,0.24181437492370605,-0.8643068075180054,-1.8986018896102905
1765883309804218400,1568.8052182617187,1.0749965906143188,-2.094926595687866,-2.719813108444214
1765883309814228200,1568.8152282714843,1.656787633895874,-4.644751071929932,-2.9017724990844727
1765883309824238000,1568.8252380371093,0.8427590131759644,-5.427655220031738,-2.6647465229034424
1765883309834217200,1568.8352172851562,-0.5937620401382446,-2.6839001178741455,0.304063618183136
1765883309854236700,1568.8552365722655,-0.33279404044151306,-1.3048399686813354,-0.0071826050989329815
1765883309864216000,1568.865216064453,-0.7661445140838623,-0.667982280254364,-0.17717093229293823
1765883309874195200,1568.8751953125,-2.2840683460235596,2.3127987384796143,1.1204863786697388
1765883309884205000,1568.885205078125,-3.442862033843994,5.439626216888428,2.5258827209472656
1765883309894184200,1568.8951840820312,-3.1890766620635986,4.78122091293335,2.913743495941162
1765883309904194000,1568.9051940917968,-1.8555063009262085,1.9584569931030273,1.1899182796478271
1765883309914142700,1568.9151428222656,0.24420857429504395,0.23942017555236816,-0.43095630407333374
1765883309924152600,1568.9251525878906,0.9792284965515137,-0.4213795065879822,-1.2090718746185303
1765883309934162200,1568.935162109375,0.8643068075180054,-1.4844050407409668,-2.0590133666992188
1765883309944172000,1568.9451721191406,0.4118026793003082,-0.4357447028160095,-1.8267759084701538
1765883309964161000,1568.9651611328125,-0.2849099934101105,-1.3479355573654175,-1.6831238269805908
1765883309974140400,1568.9751403808593,-0.5626373887062073,-0.3519476354122162,0.0071826050989329815
1765883309984150000,1568.9851499023437,-0.5027823448181152,0.9457096457481384,1.1037269830703735
1765883309994129400,1568.9951293945312,-0.43095630407333374,1.0031704902648926,0.2825157940387726
1765883310004108500,1569.005108642578,-1.5514427423477173,1.9943699836730957,-0.3711012601852417
1765883310014118400,1569.015118408203,-1.1276689767837524,1.338358759880066,0.3758896589279175
1765883310024128000,1569.0251279296874,-0.24660277366638184,-0.07182604819536209,-0.4357447028160095
1765883310034107400,1569.035107421875,0.5746083855628967,-0.9433154463768005,-1.070208191871643
1765883335148952600,1594.1499526367188,0.7757213711738586,-0.22266076505184174,-1.278503656387329
1765883335158862300,1594.1598623046875,6.095637321472168,3.0550012588500977,-7.343016624450684
1765883335188200200,1594.1892001953124,0.6129156351089478,-1.0247182846069336,-1.0654197931289673
1765883335198240300,1594.199240234375,0.9744400978088379,-1.2689268589019775,-1.2018892765045166
1765883335208219600,1594.2092197265624,1.7597382068634033,-2.1715409755706787,-1.1061211824417114
1765883335218229500,1594.2192294921874,2.3032219409942627,-3.117250680923462,-0.033518824726343155
1765883335228239000,1594.229239013672,2.3774423599243164,-2.7246015071868896,1.357512354850769
1765883335238218500,1594.2392185058593,1.4748282432556152,-0.7422025203704834,1.944091796875
1765883335248228000,1594.2492280273439,0.7876923680305481,0.3232172429561615,1.0654197931289673
1765883335258268400,1594.259268310547,0.6512228846549988,0.05267243832349777,0.3423708379268646
1765883335298277000,1594.2992770996093,1.8124107122421265,-2.3942017555236816,1.37906014919281
1765883335338194000,1594.3391938476564,1.53707754611969,-0.7757213711738586,-0.5051765441894531
1765883335378172000,1594.379171875,4.608838081359863,-2.8610711097717285,-2.094926595687866
1765883335418119400,1594.4191193847657,1.6543933153152466,-2.121262788772583,-1.5849615335464478
1765883335438139100,1594.4391391601562,2.2002713680267334,-1.5538369417190552,-0.37828385829925537
1765883335488065800,1594.4890656738282,-0.028730420395731926,-0.07422025501728058,0.751779317855835
1765883335498106000,1594.4991062011718,0.6033388376235962,-2.4229321479797363,0.7110779285430908
1765883335508116000,1594.5091159667968,1.843535304069519,-5.810727596282959,0.2992752194404602
1765883335518095000,1594.5190952148437,0.9696516990661621,-6.682217121124268,-0.26336219906806946
1765883335528074200,1594.52907421875,0.20111294090747833,-5.693411827087402,-1.1755530834197998
1765883335538084000,1594.539083984375,0.5363011956214905,-6.090848922729492,-1.5873557329177856
1765883335548063500,1594.5490634765624,0.45250412821769714,-5.631162166595459,-1.070208191871643
1765883335568052500,1594.5690524902343,0.7038952708244324,-3.9863457679748535,-1.577778935432434
1765883335578062000,1594.5790620117189,0.7948749661445618,-1.8698714971542358,-1.7956513166427612
1765883335588072000,1594.5890720214843,0.5985504388809204,-0.1388636976480484,-1.4269442558288574
1765883335598081800,1594.5990817871093,0.9074024558067322,-0.16519992053508759,-1.5610195398330688
1765883335608091400,1594.6090913085939,1.3455413579940796,-0.3256114423274994,-1.0127472877502441
1765883335618131700,1594.619131591797,2.1045033931732178,0.3471592366695404,-1.259350061416626
1765883335628141600,1594.6291416015624,1.6328455209732056,1.05105459690094,-2.7772738933563232
1765883335638151200,1594.639151123047,1.292868971824646,1.2090718746185303,-3.8283286094665527
1765883335648161000,1594.6491611328124,1.2665326595306396,0.0071826050989329815,-2.937685489654541
1765883335668089000,1594.669089111328,1.4652514457702637,-2.537853717803955,-3.098097085952759
1765883335678068200,1594.6790681152345,1.2761094570159912,-1.8722656965255737,-4.101267337799072
1765883335698057200,1594.6990571289064,2.5091233253479004,0.4908113479614258,-2.7964274883270264
1765883335708067000,1594.7090671386718,2.918531894683838,0.31603461503982544,-2.449268341064453
1765883335718046200,1594.7190461425782,4.474762916564941,-1.3287819623947144,-1.3503297567367554
1765883335728056000,1594.7290561523437,3.643975019454956,-2.121262788772583,-1.455674648284912
1765883335738096400,1594.7390964355468,3.3518824577331543,-2.846705913543701,-2.2457611560821533
1765883335748075500,1594.7490754394532,1.965639591217041,-1.8124107122421265,-2.8658595085144043
1765883335758055000,1594.7590549316405,1.161187767982483,-0.4596867263317108,-3.9456443786621094
1765883335788084200,1594.7890842285155,3.064578056335449,0.7350199222564697,-3.2824504375457764
1765883335798063400,1594.7990634765624,3.469198226928711,0.3519476354122162,-3.112462282180786
1765883335808042800,1594.8090427246093,2.7461493015289307,0.19871874153614044,-3.1459810733795166
1765883335818052400,1594.8190522460939,1.0821791887283325,-0.5578489899635315,-3.706224203109741
1765883335828001000,1594.8290009765626,0.023942016065120697,-1.0845733880996704,-4.010287761688232
1765883335837980400,1594.83898046875,-0.14844051003456116,-0.22744916379451752,-3.7205893993377686
1765883335847990000,1594.8489899902345,0.38067805767059326,0.3495534360408783,-4.0294413566589355
1765883335858000000,1594.8589997558595,0.5530605912208557,0.028730420395731926,-4.314351558685303
1765883335868009700,1594.869009765625,1.0223240852355957,-0.8978256583213806,-4.091690540313721
1765883335898008600,1594.8990085449218,0.6655880808830261,-0.5027823448181152,-0.4381389021873474
1765883335907987700,1594.9089877929687,0.40462008118629456,-0.35673606395721436,-0.7422025203704834
1765883335917997600,1594.9189975585937,0.47405192255973816,-0.7613561153411865,-1.7501614093780518
1765883335928007200,1594.9290070800782,0.11013327538967133,-0.7996633648872375,-2.140416383743286
1765883335938017000,1594.9390170898437,0.24181437492370605,-0.4381389021873474,-1.4437036514282227
1765883335948027000,1594.9490268554687,0.40222588181495667,-0.16759411990642548,-0.8834604024887085
1765883335958006000,1594.9590061035155,0.05027823522686958,0.047884032130241394,-0.6847416758537292
1765883335968016000,1594.9690158691405,-0.2298433631658554,0.10295066982507706,-0.26336219906806946
1765883336007963400,1595.0089633789062,0.6248866319656372,-0.19393034279346466,0.42856210470199585
1765883336017942500,1595.018942626953,-0.35434186458587646,0.2346317619085312,0.5339069962501526
1765883336027891200,1595.0288911132814,-0.10534487664699554,0.026336219161748886,0.8595184087753296
1765883336037901000,1595.0389011230468,0.1412578970193863,0.1843535304069519,0.8020575642585754
1765883336047880200,1595.0488801269532,0.3519476354122162,0.3734954595565796,0.023942016065120697
1765883336057890000,1595.0588901367187,0.790086567401886,-0.21787235140800476,-0.30885201692581177
1765883336067869200,1595.068869140625,-0.12689268589019775,0.021547814831137657,0.24899697303771973
1765883336077848600,1595.0788486328124,0.1604115068912506,-0.40940847992897034,0.5841852426528931
1765883336097807000,1595.0988071289062,0.45489832758903503,-2.8562827110290527,-0.2968810200691223
1765883336107786200,1595.1087861328126,1.7262194156646729,-2.9544448852539062,-10.187328338623047
1765883336117796000,1595.118796142578,-4.639962673187256,2.8419175148010254,-14.080300331115723
1765883336127775200,1595.1287751464845,-1.1899182796478271,-2.030282974243164,-14.264654159545898
1765883336137785000,1595.13878515625,-4.122815132141113,3.9624037742614746,-13.498509407043457
1765883336147795000,1595.148794921875,-4.2951979637146,4.28322696685791,-13.115436553955078
1765883336157774000,1595.1587741699218,-6.387730121612549,5.987898349761963,-7.4100542068481445
1765883336167753200,1595.1687531738282,-5.832275390625,5.861005783081055,0.05506663769483566
1765883336177732600,1595.1787326660155,-5.925649166107178,5.714959621429443,7.350199222564697
1765883336217710600,1595.2187106933593,0.17717093229293823,-2.0015525817871094,7.829039573669434
1765883336227720400,1595.2287204589843,1.45806884765625,-3.4380736351013184,0
1765883336237730000,1595.2387299804689,0.42616790533065796,-4.244919776916504,-5.564124584197998
1765883336247709400,1595.2487094726562,-1.113303780555725,-2.346317768096924,-7.65186882019043
1765883336257688600,1595.2586884765626,-0.524330198764801,-0.19632454216480255,-6.9455790519714355
1765883336267668000,1595.26866796875,0,2.1930887699127197,-3.931279182434082
1765883336277677600,1595.2786774902345,-0.5339069962501526,3.4596214294433594,-0.8212111592292786
1765883336307707000,1595.3087067871095,-1.3934253454208374,3.8953661918640137,1.867477297782898
1765883336317716700,1595.318716796875,-0.6057330369949341,2.896984100341797,2.6671407222747803
1765883336327726600,1595.3287265625,-0.6751648783683777,1.8100165128707886,3.2369606494903564
1765883336337705700,1595.3387058105468,-1.0223240852355957,1.1899182796478271,3.646369218826294
1765883336347684900,1595.3486848144532,-0.8930372595787048,0.5051765441894531,3.361459255218506
1765883336357694700,1595.3586948242187,-0.3758896589279175,-0.44532153010368347,2.6671407222747803
1765883336367704600,1595.3687045898437,-0.31364041566848755,-1.1803414821624756,1.8411411046981812
1765883336377683700,1595.37868359375,-0.5147533416748047,-0.7805097699165344,1.6879122257232666
1765883336387693600,1595.3886936035155,-0.0071826050989329815,-0.3519476354122162,1.5131354331970215
1765883336417723000,1595.4187229003905,2.078166961669922,-3.754108190536499,-2.5019407272338867
1765883336427702000,1595.428701904297,2.58813214302063,-4.278438568115234,-4.0964789390563965
1765883336437681400,1595.4386813964843,2.8419175148010254,-4.644751071929932,-4.821922302246094
1765883336447691000,1595.4486909179689,3.1076738834381104,-2.920926094055176,-5.355829238891602
1765883336457700900,1595.4587009277343,2.0829553604125977,-0.6751648783683777,-5.288791656494141
1765883336477720300,1595.4787202148439,0.7924807667732239,1.3000515699386597,-3.0550012588500977
1765883336487699700,1595.4886997070312,0.7637503147125244,0.35913026332855225,-2.8826189041137695
1765883336517729000,1595.5187290039062,0.09816227108240128,-0.6560112833976746,-3.7708675861358643
1765883336527738600,1595.5287385253907,-0.24660277366638184,0.035913024097681046,-3.9671921730041504
1765883336537718000,1595.538718017578,-0.17956513166427612,1.015141487121582,-3.797203779220581
1765883336547727600,1595.5487275390626,0.1388636976480484,1.8411411046981812,-3.821146011352539
1765883336557707000,1595.55870703125,0.26815059781074524,2.2457611560821533,-3.8522706031799316
1765883336567686100,1595.5686860351564,0.05746084079146385,2.492363929748535,-3.641580820083618
1765883336577696000,1595.5786960449218,0.040701430290937424,2.765302896499634,-3.2537200450897217
1765883494255699200,1753.25669921875,-0.4429273009300232,2.7078421115875244,-2.518700122833252
1765883494265578500,1753.2665786132814,5.106832027435303,11.705251693725586,5.327098846435547
1765883494275388400,1753.2763884277344,0.21547815203666687,1.4891934394836426,-0.13168109953403473
1765883494325084400,1753.3260844726562,3.8163576126098633,-2.8347349166870117,0.23942017555236816
1765883494375072300,1753.376072265625,2.099714994430542,-2.1954829692840576,-0.3687070608139038
1765883494405040600,1753.4060405273437,0.5746083855628967,3.689464807510376,3.354276657104492
1765883494475017500,1753.476017578125,2.2840683460235596,-1.9321208000183105,0.6129156351089478
1765883494545024800,1753.5460246582031,0.6129156351089478,0.4836287498474121,0.7852981686592102
1765883494555004000,1753.55600390625,-0.5147533416748047,0.47405192255973816,-0.5674257874488831
1765883494564983300,1753.5659833984375,-0.5793967843055725,-1.5466543436050415,-1.8794482946395874
1765883494574993000,1753.5759929199219,0.5434837937355042,-3.845088005065918,-2.7461493015289307
1765883494585002800,1753.5860026855469,1.5969325304031372,-4.039018154144287,-1.2306196689605713
1765883494594982000,1753.5959819335937,1.525106430053711,-2.5665841102600098,0.7110779285430908
1765883494614971000,1753.6159709472656,-0.26096799969673157,0.07422025501728058,-1.8315643072128296
1765883494624980700,1753.6259807128906,-0.9145850539207458,-1.1180921792984009,-1.965639591217041
1765883494634990600,1753.6359904785156,-0.0454898327589035,-3.383007049560547,-0.5123591423034668
1765883494664958700,1753.6659587402344,0.7206547260284424,-1.2186486721038818,-1.0989385843276978
1765883494674999000,1753.6759990234375,0.3016694188117981,0.1388636976480484,-1.3311761617660522
1765883494684978400,1753.685978515625,-0.040701430290937424,-0.004788403399288654,-1.8602946996688843
1765883494694957600,1753.6959575195312,0.014365210197865963,-0.912190854549408,-2.5977089405059814
1765883494704967400,1753.705967529297,0.5889736413955688,-1.7764976024627686,-3.0597896575927734
1765883494724956400,1753.7259562988281,2.27209734916687,0.2106897532939911,-1.316810965538025
1765883494734966000,1753.7359660644531,1.3862427473068237,2.7102363109588623,0.35913026332855225
1765883494744976000,1753.7459758300781,0.4165911078453064,3.687070608139038,0.8451532125473022
1765883494754985700,1753.7559858398438,0.3064578175544739,3.6391866207122803,-0.6847416758537292
1765883494764964900,1753.76596484375,0.5985504388809204,1.2545616626739502,-2.8203697204589844
1765883494774944300,1753.7759443359375,2.382230758666992,-2.1954829692840576,-5.07570743560791
1765883494784984300,1753.785984375,3.227383852005005,-4.721365928649902,-6.277596950531006
1765883494794994200,1753.795994140625,2.9328970909118652,-4.364629745483398,-4.896142482757568
1765883494805004000,1753.8060041503907,3.028665065765381,-3.179499864578247,-1.455674648284912
1765883494814983200,1753.8159831542969,3.397372245788574,-2.3582887649536133,0.6512228846549988
1765883494824962600,1753.8259626464844,2.96162748336792,-0.6536170840263367,-0.4357447028160095
1765883494835002600,1753.8360026855469,2.9065608978271484,-0.9600749015808105,-2.233790159225464
1765883494845012500,1753.8460124511719,2.056619167327881,-0.7254431247711182,-2.4133553504943848
1765883494854992000,1753.8559919433594,1.8171991109848022,1.0797849893569946,-2.233790159225464
1765883494865001500,1753.8660014648437,1.886630892753601,1.1875240802764893,-2.185906171798706
1765883494874980900,1753.8759809570313,3.313575267791748,1.2713210582733154,-2.3343467712402344
1765883494884960000,1753.8859599609375,3.8498764038085938,1.4077905416488647,-2.473210334777832
1765883494895000300,1753.8960002441406,4.3406877517700195,0.3232172429561615,-2.0159177780151367
1765883494905010200,1753.9060102539063,4.197035789489746,-0.031124621629714966,-1.8195933103561401
1765883494924999200,1753.9259992675782,3.3207578659057617,-0.14844051003456116,-1.699883222579956
1765883494934978300,1753.9359782714844,3.406949043273926,0.8667010068893433,-1.292868971824646
1765883494945018600,1753.9460185546875,3.9863457679748535,2.4660277366638184,-1.4317326545715332
1765883494955028500,1753.9560285644532,4.766855716705322,3.5266590118408203,-1.357512354850769
1765883494965038000,1753.9660380859375,4.323928356170654,2.7317841053009033,-1.1037269830703735
1765883494975048000,1753.9760478515625,2.7916390895843506,1.1109095811843872,-1.05105459690094
1765883494985027000,1753.9860270996094,1.6615760326385498,-0.3687070608139038,-1.7381904125213623
1765883494995067400,1753.9960673828125,1.525106430053711,-1.3455413579940796,-2.6360161304473877
1765883495005077200,1754.0060771484375,1.6184803247451782,-0.5674257874488831,-2.873042106628418
1765883495025096700,1754.0260966796875,1.9608511924743652,1.2401964664459229,-2.0159177780151367
1765883495035076000,1754.036076171875,2.2649147510528564,1.137245774269104,-1.6376339197158813
1765883495045055200,1754.0460551757812,1.3838485479354858,1.0749965906143188,-1.5131354331970215
1765883495055034400,1754.0560344238281,-0.0694318488240242,0.7876923680305481,-1.3239935636520386
1765883495065013800,1754.066013671875,-1.1635819673538208,-0.2537853717803955,-1.1899182796478271
1765883495075023600,1754.0760236816407,-2.5522189140319824,-0.47644615173339844,-1.3120225667953491
1765883495085033200,1754.086033203125,-3.294421434402466,-0.20111294090747833,-0.7374141216278076
1765883495095043000,1754.09604296875,-3.383007049560547,0.912190854549408,0.608127236366272
1765883495105022200,1754.1060222167969,-3.31118106842041,2.360682964324951,1.4413094520568848
1765883495115001600,1754.1160017089844,-2.535459518432617,2.2433669567108154,1.5490485429763794
1765883495145000200,1754.1460002441406,-2.559401512145996,0.706289529800415,1.0007762908935547
1765883495155010000,1754.1560100097656,-2.5665841102600098,1.0103530883789062,0.5554547905921936
1765883495165020000,1754.1660200195313,-1.9847931861877441,1.2234370708465576,0.2753331959247589
1765883495175029500,1754.1760295410156,-1.5825673341751099,0.9193734526634216,-0.2825157940387726
1765883495185009000,1754.1860087890625,-1.9153614044189453,0.6631938815116882,-0.6488286852836609
1765883495195018500,1754.1960185546875,-1.6687586307525635,0.363918662071228,-0.4668693244457245
1765883495204998000,1754.2059978027344,-1.6663644313812256,0.689530074596405,0.3663128614425659
1765883495214946600,1754.2159465332031,-1.3694833517074585,1.1659762859344482,1.070208191871643
1765883495224926000,1754.2259260253907,-1.0797849893569946,2.0422539710998535,1.139639973640442
1765883495244884200,1754.2458842773437,-0.6871358752250671,2.4612393379211426,0.6224924325942993
1765883495274883000,1754.2758830566406,1.3623007535934448,2.2194249629974365,1.9584569931030273
1765883495284893000,1754.2858928222656,1.3646949529647827,2.473210334777832,2.097320795059204
1765883495294872000,1754.2958720703125,1.9608511924743652,1.9776105880737305,1.8363527059555054
1765883495304882000,1754.3058818359375,2.0159177780151367,1.0893617868423462,1.6855180263519287
1765883495314891800,1754.3158918457032,1.5275006294250488,0.2322375625371933,1.3527239561080933
1765883495324931800,1754.3259318847656,1.599326729774475,-0.6272808313369751,1.235408067703247
1765883495354900200,1754.3559001464844,2.9257144927978516,-1.778891921043396,1.2090718746185303
1765883495364910000,1754.36591015625,2.5713725090026855,-1.766920804977417,0.7733271718025208
1765883495374889200,1754.3758891601562,2.10210919380188,-1.944091796875,0.5123591423034668
1765883495384838000,1754.385837890625,1.721431016921997,-2.1763293743133545,1.0319008827209473
1765883495394847700,1754.39584765625,1.1803414821624756,-2.1571757793426514,1.5921441316604614
1765883495404796400,1754.4057963867187,0.9600749015808105,-2.0374655723571777,1.5945383310317993
1765883495414836700,1754.4158366699219,0.8595184087753296,-2.255337953567505,1.2880805730819702
1765883495424846600,1754.4258466796875,0.5578489899635315,-2.2912509441375732,0.9169792532920837
1765883495434856200,1754.4358562011719,-0.05985504388809204,-1.702277421951294,0.7254431247711182
1765883495484813600,1754.4858134765625,-0.4381389021873474,-0.9169792532920837,0.5530605912208557
1765883495494792700,1754.4957927246094,-0.7661445140838623,-0.31603461503982544,0.6847416758537292
1765883495504802600,1754.5058024902344,-0.7206547260284424,-0.23702596127986908,0.6248866319656372
1765883495514843000,1754.5158427734375,-0.9959878921508789,0.22266076505184174,0.7469909191131592
1765883495524852500,1754.5258525390625,-1.3527239561080933,0.7948749661445618,0.5219359993934631
1765883495534831900,1754.5358317871094,-1.3527239561080933,1.2545616626739502,0.12449848651885986
1765883495544811000,1754.5458110351562,-1.2689268589019775,1.5610195398330688,-0.035913024097681046
1765883495584789200,1754.5857893066407,-1.45806884765625,1.5682021379470825,-0.7781155705451965
1765883495594768400,1754.5957683105469,-1.4939818382263184,0.9241618514060974,-1.0893617868423462
1765883495604747500,1754.6057475585937,-1.8507179021835327,0.5171475410461426,-0.7206547260284424
1765883495614787800,1754.6157878417969,-1.3862427473068237,-0.3232172429561615,-0.49320554733276367
1765883495624767200,1754.6257673339844,-1.0199298858642578,-0.5913678407669067,-0.689530074596405
1765883495634776800,1754.6357768554687,-0.5482721924781799,-0.5913678407669067,-1.2306196689605713
1765883495644786700,1754.6457866210937,-0.07900865375995636,-0.849941611289978,-1.7956513166427612
1765883495674816000,1754.6758159179687,0.43095630407333374,-0.9169792532920837,-1.824381709098816
1765883495684825900,1754.6858259277344,0.6703764796257019,-0.8643068075180054,-1.0295066833496094
1765883495694835500,1754.6958354492187,1.01753568649292,-0.9361328482627869,-0.9648633003234863
1765883495704845300,1754.7058452148437,1.280897855758667,-0.8595184087753296,-1.2473790645599365
1765883495714824400,1754.7158244628906,1.235408067703247,-0.6560112833976746,-1.2330138683319092
1765883495724834300,1754.7258342285156,1.3000515699386597,-0.3064578175544739,-0.5147533416748047
1765883495734813400,1754.7358134765625,1.5514427423477173,-0.21308395266532898,0.17956513166427612
1765883495744823300,1754.7458232421875,1.4844050407409668,-0.08140286058187485,0.15322890877723694
1765883495784801300,1754.7858012695312,-0.30885201692581177,0.20350714027881622,0.5770025849342346
1765883495794780700,1754.7957807617188,-0.42616790533065796,0.608127236366272,0.40701428055763245
1765883495804820700,1754.8058208007812,-0.47644615173339844,0.9768342971801758,0.24181437492370605
1765883495814830600,1754.8158305664062,-0.45489832758903503,1.0654197931289673,0.6727706789970398
1765883495824810000,1754.8258100585938,-0.4884171485900879,0.4596867263317108,1.0319008827209473
1765883495834819600,1754.8358195800781,-0.8403648138046265,-0.09576806426048279,0.7445967197418213
1765883495844829400,1754.8458293457031,-0.933738648891449,-0.7996633648872375,0.038307227194309235
1765883495854839300,1754.8558393554688,-0.8523358106613159,-1.1420341730117798,-0.48602294921875
1765883495864818400,1754.865818359375,-0.7350199222564697,-0.8667010068893433,-0.4572925269603729
1765883495894847700,1754.89584765625,0.8858546018600464,-0.21308395266532898,1.3742717504501343
1765883495914836700,1754.9158366699219,0.6009446382522583,0.1149216815829277,0.8451532125473022
1765883495924846600,1754.9258466796875,0.6272808313369751,0.13168109953403473,0.7781155705451965
1765883495934856200,1754.9358562011719,1.0103530883789062,-0.2777273952960968,0.9193734526634216
1765883495944835600,1754.9458356933594,0.912190854549408,-0.7350199222564697,1.1994950771331787
1765883495954876000,1754.9558759765625,5.700594425201416,-9.880870819091797,-6.399701118469238
1765883495964824600,1754.9658244628906,-5.2049946784973145,4.697423934936523,-13.299790382385254
1765883495994762200,1754.9957622070312,-6.825869083404541,6.648698329925537,-15.014039039611816
1765883496004772000,1755.005772216797,-7.572859764099121,6.624756336212158,-10.575188636779785
1765883496014781700,1755.0157817382812,-8.827422142028809,7.402871608734131,-5.925649166107178
