time,seconds_elapsed,z,y,x
1765881739566214000,-1.4327861328125,9.558270454406738,-1.689085602760315,-1.3988696336746216
1765881739606192000,-1.392807861328125,9.558585166931152,-1.6667598485946655,-1.4232847690582275
1765881739616140800,-1.382859130859375,9.555075645446777,-1.68523108959198,-1.4251043796539307
1765881739626120000,-1.372880126953125,9.55285930633545,-1.697414517402649,-1.4254974126815796
1765881739636068600,-1.362931396484375,9.549766540527344,-1.7102023363113403,-1.4309296607971191
1765881739646048000,-1.352951904296875,9.548567771911621,-1.7134957313537598,-1.4349836111068726
1765881739666037000,-1.332962890625,9.548362731933594,-1.7159885168075562,-1.4333666563034058
1765881739675985700,-1.323014404296875,9.548501014709473,-1.7166231870651245,-1.4316890239715576
1765881739695944200,-1.303055908203125,9.546785354614258,-1.7284082174301147,-1.4289417266845703
1765881739705923600,-1.293076416015625,9.546574592590332,-1.730918288230896,-1.4273154735565186
1765881739715872300,-1.283127685546875,9.547586441040039,-1.728210687637329,-1.4238228797912598
1765881739725851400,-1.273148681640625,9.5486478805542,-1.725074291229248,-1.4205021858215332
1765881739735830800,-1.263169189453125,9.551095008850098,-1.7152713537216187,-1.4159154891967773
1765881739745840400,-1.25315966796875,9.5526762008667,-1.708970069885254,-1.4128663539886475
1765881739755819800,-1.24318017578125,9.555096626281738,-1.7015703916549683,-1.4054088592529297
1765881739765860000,-1.233139892578125,9.555832862854004,-1.701168417930603,-1.4008808135986328
1765881739805838000,-1.193161865234375,9.559617042541504,-1.6925803422927856,-1.385387659072876
1765881739815847700,-1.18315234375,9.560161590576172,-1.6911070346832275,-1.3834233283996582
1765881739825857500,-1.173142578125,9.560410499572754,-1.689408302307129,-1.3837758302688599
1765881739835867400,-1.163132568359375,9.560592651367188,-1.6883294582366943,-1.3838351964950562
1765881739845846500,-1.153153564453125,9.561384201049805,-1.6822389364242554,-1.3857821226119995
1765881739855826000,-1.143174072265625,9.562973976135254,-1.6699728965759277,-1.389644980430603
1765881739865835500,-1.13316455078125,9.56389331817627,-1.6626330614089966,-1.3921116590499878
1765881739875784200,-1.1232158203125,9.564162254333496,-1.661570429801941,-1.3915417194366455
1765881739905722000,-1.09327783203125,9.563883781433105,-1.6561170816421509,-1.3999273777008057
1765881739915670800,-1.0833291015625,9.564096450805664,-1.6534385681152344,-1.4016386270523071
1765881739925680600,-1.0733193359375,9.564180374145508,-1.648974895477295,-1.4063118696212769
1765881739935690200,-1.063309814453125,9.564053535461426,-1.6468456983566284,-1.4096708297729492
1765881739945700000,-1.0532998046875,9.563934326171875,-1.6456186771392822,-1.4119096994400024
1765881739955710000,-1.0432900390625,9.563523292541504,-1.6452884674072266,-1.4150731563568115
1765881739965719600,-1.033280517578125,9.563454627990723,-1.6450169086456299,-1.4158542156219482
1765881739975699000,-1.023301025390625,9.563586235046387,-1.6453056335449219,-1.414625883102417
1765881739985708500,-1.01329150390625,9.56415843963623,-1.6436930894851685,-1.4126358032226562
1765881740005697500,-0.993302490234375,9.566866874694824,-1.6324588060379028,-1.4073100090026855
1765881740025656000,-0.973343994140625,9.569160461425781,-1.621527910232544,-1.4043487310409546
1765881740035604700,-0.963395263671875,9.568944931030273,-1.6228262186050415,-1.404323935508728
1765881740045584100,-0.953415771484375,9.568653106689453,-1.6230124235153198,-1.4060956239700317
1765881740055563300,-0.943436767578125,9.568967819213867,-1.6211696863174438,-1.4060801267623901
1765881740065573000,-0.933427001953125,9.569670677185059,-1.6179488897323608,-1.4050043821334839
1765881740075521800,-0.923478271484375,9.570860862731934,-1.6119529008865356,-1.4037848711013794
1765881740085531600,-0.91346826171875,9.571847915649414,-1.6070890426635742,-1.402630090713501
1765881740095510800,-0.9034892578125,9.572150230407715,-1.6057367324829102,-1.402122139930725
1765881740105490200,-0.893509765625,9.57183837890625,-1.6076977252960205,-1.4020023345947266
1765881740115438800,-0.88356103515625,9.571346282958984,-1.6110949516296387,-1.4014612436294556
1765881740125479200,-0.873520751953125,9.57032585144043,-1.617321491241455,-1.4012571573257446
1765881740135488800,-0.86351123046875,9.569914817810059,-1.6211410760879517,-1.3996440172195435
1765881740155478000,-0.84352197265625,9.572648048400879,-1.611362099647522,-1.3922312259674072
1765881740165487600,-0.833512451171875,9.57378101348877,-1.6072797775268555,-1.3891518115997314
1765881740175497500,-0.82350244140625,9.573714256286621,-1.6087701320648193,-1.3878941535949707
1765881740185507300,-0.81349267578125,9.573214530944824,-1.6116399765014648,-1.3880109786987305
1765881740195517000,-0.803483154296875,9.572587013244629,-1.6147176027297974,-1.3887661695480347
1765881740215506000,-0.783494140625,9.572606086730957,-1.6111030578613281,-1.3928179740905762
1765881740225515800,-0.773484130859375,9.572835922241211,-1.6096669435501099,-1.3929036855697632
1765881740235495000,-0.763505126953125,9.572969436645508,-1.6091216802597046,-1.392615556716919
1765881740245474300,-0.753525634765625,9.57294750213623,-1.6090812683105469,-1.3928085565567017
1765881740255453400,-0.743546630859375,9.572982788085938,-1.6096726655960083,-1.3918825387954712
1765881740265432800,-0.733567138671875,9.572988510131836,-1.6108453273773193,-1.3904834985733032
1765881740275442400,-0.7235576171875,9.572945594787598,-1.6105657815933228,-1.3911081552505493
1765881740285421800,-0.713578125,9.5726318359375,-1.6125866174697876,-1.3909196853637695
1765881740295401000,-0.70359912109375,9.572690963745117,-1.6133015155792236,-1.3896876573562622
1765881740325369300,-0.673630615234375,9.573921203613281,-1.610675573348999,-1.3842495679855347
1765881740335318000,-0.663681884765625,9.573540687561035,-1.6166653633117676,-1.3798854351043701
1765881740345327900,-0.653672119140625,9.57331371307373,-1.6207436323165894,-1.3766791820526123
1765881740355276500,-0.643723388671875,9.572879791259766,-1.626001238822937,-1.3734899759292603
1765881740365255700,-0.633744384765625,9.572908401489258,-1.6280628442764282,-1.3708531856536865
1765881740375265500,-0.623734375,9.574507713317871,-1.6225130558013916,-1.3662548065185547
1765881740385275400,-0.613724609375,9.576790809631348,-1.6140705347061157,-1.3602362871170044
1765881740395285000,-0.603715087890625,9.577919960021973,-1.608747959136963,-1.3585920333862305
1765881740415274000,-0.58372607421875,9.57715892791748,-1.6117762327194214,-1.36036217212677
1765881740465292300,-0.533707763671875,9.577595710754395,-1.6073596477508545,-1.3625177145004272
1765881740495291100,-0.503708984375,9.576830863952637,-1.609215497970581,-1.365699291229248
1765881740506301000,-0.492698974609375,9.57737922668457,-1.6060069799423218,-1.3656291961669922
1765881740516310800,-0.482689208984375,9.577632904052734,-1.605695366859436,-1.3642082214355469
1765881740526350800,-0.472649169921875,9.577948570251465,-1.6068546772003174,-1.360625147819519
1765881740561324000,-0.437676025390625,9.623231887817383,-1.5345368385314941,-1.0995464324951172
1765881740581313000,-0.41768701171875,9.624338150024414,-1.5296889543533325,-1.0966079235076904
1765881740611251000,-0.3877490234375,9.624680519104004,-1.5305137634277344,-1.0924476385116577
1765881740621230000,-0.37777001953125,9.62419319152832,-1.5334872007369995,-1.0925698280334473
1765881740661208000,-0.3377919921875,9.62260627746582,-1.541853427886963,-1.0947717428207397
1765881740671156700,-0.32784326171875,9.622919082641602,-1.5396479368209839,-1.0951272249221802
1765881740681166600,-0.31783349609375,9.623270034790039,-1.537156581878662,-1.0955363512039185
1765881740691176400,-0.307823486328125,9.623761177062988,-1.536031723022461,-1.0927966833114624
1765881740701155600,-0.297844482421875,9.623505592346191,-1.5385195016860962,-1.0915528535842896
1765881740711135000,-0.287864990234375,9.622775077819824,-1.5429437160491943,-1.0917513370513916
1765881740721114000,-0.277885986328125,9.622251510620117,-1.5448235273361206,-1.0936980247497559
1765881740731154400,-0.267845458984375,9.622966766357422,-1.538340449333191,-1.096539855003357
1765881740741133600,-0.257866455078125,9.623516082763672,-1.5337944030761719,-1.0980888605117798
1765881740751113000,-0.247886962890625,9.62337589263916,-1.5326493978500366,-1.1009124517440796
1765881740761153300,-0.2378466796875,9.622249603271484,-1.538155436515808,-1.1030765771865845
1765881740771163000,-0.227837158203125,9.620975494384766,-1.5436619520187378,-1.106500267982483
1765881740781203200,-0.217796875,9.620647430419922,-1.543422818183899,-1.1096702814102173
1765881740791182600,-0.2078173828125,9.621102333068848,-1.5387794971466064,-1.112181305885315
1765881740801161700,-0.19783837890625,9.62211799621582,-1.5304266214370728,-1.1149158477783203
1765881740811140900,-0.187859130859375,9.623265266418457,-1.521533489227295,-1.1171833276748657
1765881740821150700,-0.177849365234375,9.623348236083984,-1.5185142755508423,-1.1205683946609497
1765881740831130000,-0.167869873046875,9.622320175170898,-1.5252609252929688,-1.1202369928359985
1765881740851149600,-0.147850341796875,9.618371963500977,-1.551358699798584,-1.1182951927185059
1765881740861128700,-0.137871337890625,9.617486953735352,-1.5558725595474243,-1.1196379661560059
1765881740871077600,-0.12792236328125,9.618400573730469,-1.548818826675415,-1.1215671300888062
1765881740881087200,-0.117912841796875,9.619547843933105,-1.539724588394165,-1.1242494583129883
1765881740891066600,-0.107933349609375,9.620028495788574,-1.5334336757659912,-1.1287317276000977
1765881740901045800,-0.097954345703125,9.61939525604248,-1.5368998050689697,-1.129406213760376
1765881740910994400,-0.088005615234375,9.617533683776855,-1.549424171447754,-1.128143310546875
1765881740921004300,-0.07799560546875,9.615918159484863,-1.5581966638565063,-1.129833459854126
1765881740931014100,-0.06798583984375,9.614753723144531,-1.563684105873108,-1.1321651935577393
1765881740970992000,-0.0280078125,9.614875793457031,-1.5520920753479004,-1.1469790935516357
1765881740980971300,-0.01802880859375,9.61408805847168,-1.5583059787750244,-1.1451563835144043
1765881740990981000,-0.008018798828125,9.612147331237793,-1.5696712732315063,-1.145921230316162
1765881741000960300,0.001960205078125,9.610593795776367,-1.5766927003860474,-1.1493111848831177
1765881741010939600,0.011939697265625,9.609201431274414,-1.5827749967575073,-1.1525925397872925
1765881741020980000,0.02197998046875,9.608125686645508,-1.5858254432678223,-1.1573487520217896
1765881741030989600,0.031989501953125,9.607605934143066,-1.5851918458938599,-1.1625264883041382
1765881741040999400,0.04199951171875,9.607420921325684,-1.5840686559677124,-1.165583610534668
1765881741060988400,0.061988525390625,9.60626220703125,-1.5904088020324707,-1.1664977073669434
1765881741070967600,0.071967529296875,9.60633659362793,-1.591432809829712,-1.164486289024353
1765881741080947000,0.081947021484375,9.607309341430664,-1.5893092155456543,-1.1593518257141113
1765881741090956500,0.09195654296875,9.607759475708008,-1.5898174047470093,-1.1549113988876343
1765881741100936000,0.10193603515625,9.607645988464355,-1.5936410427093506,-1.1505823135375977
1765881741110945800,0.11194580078125,9.60718059539795,-1.5963456630706787,-1.1507185697555542
1765881741120925000,0.121925048828125,9.606444358825684,-1.599692940711975,-1.1522142887115479
1765881741130934800,0.131934814453125,9.606223106384277,-1.6001777648925781,-1.153379201889038
1765881741140944400,0.1419443359375,9.606124877929688,-1.6004643440246582,-1.1538044214248657
1765881741160933400,0.161933349609375,9.605555534362793,-1.602858543395996,-1.1552232503890991
1765881741170943200,0.171943115234375,9.604887962341309,-1.6054099798202515,-1.1572321653366089
1765881741180953000,0.181953125,9.604516983032227,-1.6066887378692627,-1.1585338115692139
1765881741190932200,0.19193212890625,9.604581832885742,-1.6057339906692505,-1.15931236743927
1765881741200911600,0.20191162109375,9.604551315307617,-1.6063119173049927,-1.1587704420089722
1765881741210890800,0.211890869140625,9.604783058166504,-1.6052929162979126,-1.1582585573196411
1765881741220900600,0.221900634765625,9.604222297668457,-1.610080599784851,-1.1562550067901611
1765881741230879700,0.231879638671875,9.60256576538086,-1.6198323965072632,-1.1563974618911743
1765881741240920000,0.241920166015625,9.60173511505127,-1.6245564222335815,-1.1566728353500366
1765881741270857700,0.271857666015625,9.600687980651855,-1.6314805746078491,-1.1556129455566406
1765881741290877400,0.29187744140625,9.603155136108398,-1.6210622787475586,-1.149766445159912
1765881741300856600,0.301856689453125,9.60436725616455,-1.615416407585144,-1.1475814580917358
1765881741310835700,0.311835693359375,9.604783058166504,-1.614740014076233,-1.1450520753860474
1765881741320845600,0.321845458984375,9.604644775390625,-1.6166203022003174,-1.1435589790344238
1765881741330824700,0.33182470703125,9.604090690612793,-1.6221864223480225,-1.1403172016143799
1765881741340834600,0.34183447265625,9.602783203125,-1.6296136379241943,-1.1407461166381836
1765881741350783200,0.351783203125,9.602002143859863,-1.6336241960525513,-1.1415798664093018
1765881741380812500,0.3818125,9.60112476348877,-1.6373695135116577,-1.1435964107513428
1765881741390822400,0.391822509765625,9.600957870483398,-1.6390713453292847,-1.142562747001648
1765881741400832300,0.401832275390625,9.600728034973145,-1.6418651342391968,-1.14047372341156
1765881741410841900,0.411841796875,9.599547386169434,-1.6468087434768677,-1.1432827711105347
1765881741420851700,0.421851806640625,9.598892211914062,-1.650964379310608,-1.1427944898605347
1765881741430861600,0.431861572265625,9.59969711303711,-1.646424412727356,-1.1425814628601074
1765881741440840700,0.4418408203125,9.601038932800293,-1.639913558959961,-1.1406601667404175
1765881741450850600,0.4518505859375,9.601905822753906,-1.638867735862732,-1.1348603963851929
1765881741460860200,0.461860107421875,9.601652145385742,-1.6425435543060303,-1.1316893100738525
1765881741480879900,0.4818798828125,9.59908676147461,-1.6569302082061768,-1.1324753761291504
1765881741510878500,0.51187841796875,9.600357055664062,-1.6437809467315674,-1.140842080116272
1765881741520857900,0.52185791015625,9.601180076599121,-1.6385554075241089,-1.141431450843811
1765881741530867500,0.531867431640625,9.601309776306152,-1.6386263370513916,-1.14024019241333
1765881741540877300,0.541877197265625,9.6006498336792,-1.6431454420089722,-1.139290452003479
1765881741550887200,0.55188720703125,9.599910736083984,-1.647525429725647,-1.1391891241073608
1765881741560896800,0.561896728515625,9.599346160888672,-1.6508128643035889,-1.1391937732696533
1765881741570906600,0.57190673828125,9.599853515625,-1.6473692655563354,-1.1398991346359253
1765881741590956500,0.59195654296875,9.601880073547363,-1.6358904838562012,-1.1393669843673706
1765881741610976300,0.611976318359375,9.602011680603027,-1.6361361742019653,-1.137905478477478
1765881741620955400,0.621955322265625,9.600446701049805,-1.6450583934783936,-1.1382434368133545
1765881741630965200,0.63196533203125,9.599638938903809,-1.6501903533935547,-1.137628197669983
1765881741640944400,0.6419443359375,9.59985637664795,-1.6515511274337769,-1.133812427520752
1765881741650923800,0.651923828125,9.599996566772461,-1.6548080444335938,-1.1278563737869263
1765881741660933400,0.661933349609375,9.600838661193848,-1.6528905630111694,-1.1234911680221558
1765881741670912800,0.671912841796875,9.601645469665527,-1.650068759918213,-1.1207433938980103
1765881741680922400,0.68192236328125,9.603408813476562,-1.6426187753677368,-1.1165772676467896
1765881741690932200,0.69193212890625,9.605148315429688,-1.6362082958221436,-1.1110082864761353
1765881741700942000,0.701942138671875,9.604686737060547,-1.63723886013031,-1.113478660583496
1765881741710951700,0.71195166015625,9.603880882263184,-1.640499234199524,-1.115630030632019
1765881741720961500,0.72196142578125,9.603692054748535,-1.6393052339553833,-1.119003415107727
1765881741730940700,0.731940673828125,9.603375434875488,-1.640045166015625,-1.1206331253051758
1765881741740950500,0.741950439453125,9.601981163024902,-1.6478291749954224,-1.1211652755737305
1765881741750960400,0.75196044921875,9.600563049316406,-1.6543935537338257,-1.1236387491226196
1765881741760970000,0.761969970703125,9.599358558654785,-1.6614590883255005,-1.1234996318817139
1765881741770979800,0.771979736328125,9.599791526794434,-1.6598668098449707,-1.1221483945846558
1765881741810957800,0.811957763671875,9.601222038269043,-1.6624199151992798,-1.1060267686843872
1765881741820967700,0.8219677734375,9.600152969360352,-1.6691615581512451,-1.1051441431045532
1765881741830977500,0.8319775390625,9.5996732711792,-1.6690722703933716,-1.1094393730163574
1765881741840956700,0.841956787109375,9.599160194396973,-1.6705644130706787,-1.1116280555725098
1765881741850966500,0.851966552734375,9.598684310913086,-1.6703358888626099,-1.1160792112350464
1765881741860976000,0.86197607421875,9.598512649536133,-1.6694345474243164,-1.1188931465148926
1765881741870955500,0.87195556640625,9.598649978637695,-1.6677610874176025,-1.1202095746994019
1765881741880965000,0.881965087890625,9.598475456237793,-1.6650564670562744,-1.1257163286209106
1765881741910903000,0.911903076171875,9.597684860229492,-1.6613072156906128,-1.1379287242889404
1765881741920912600,0.92191259765625,9.59616470336914,-1.6688793897628784,-1.13966965675354
1765881741930892000,0.93189208984375,9.594644546508789,-1.6762970685958862,-1.141579031944275
1765881741940901600,0.941901611328125,9.592582702636719,-1.6875194311141968,-1.14237380027771
1765881741950881000,0.951881103515625,9.591904640197754,-1.6921418905258179,-1.1412317752838135
1765881741960890600,0.961890625,9.592636108398438,-1.6887598037719727,-1.1400928497314453
1765881741970900500,0.971900390625,9.593771934509277,-1.6804639101028442,-1.1427884101867676
1765881741980910300,0.981910400390625,9.59555721282959,-1.6701557636260986,-1.1429084539413452
1765881742000868900,1.001868896484375,9.595492362976074,-1.6742820739746094,-1.1374074220657349
1765881742010848000,1.011847900390625,9.59477424621582,-1.6777245998382568,-1.1383901834487915
1765881742020888300,1.021888427734375,9.59502124786377,-1.676633358001709,-1.1379125118255615
1765881742030867500,1.031867431640625,9.59574031829834,-1.6713182926177979,-1.1396713256835938
1765881742040877300,1.041877197265625,9.595952033996582,-1.6670267581939697,-1.144162654876709
1765881742050887200,1.05188720703125,9.595462799072266,-1.6638023853302002,-1.1529232263565063
1765881742060896800,1.061896728515625,9.595205307006836,-1.662890911102295,-1.1563806533813477
1765881742070906600,1.07190673828125,9.594619750976562,-1.6620149612426758,-1.1624844074249268
1765881742080885800,1.0818857421875,9.593770027160645,-1.6634681224822998,-1.1674028635025024
1765881742090865200,1.091865234375,9.592927932739258,-1.6653027534484863,-1.1717040538787842
1765881742120833300,1.121833251953125,9.592016220092773,-1.6581164598464966,-1.18922758102417
1765881742130812700,1.131812744140625,9.592305183410645,-1.6494286060333252,-1.1989418268203735
1765881742140791800,1.141791748046875,9.590618133544922,-1.6492630243301392,-1.2125858068466187
1765881742150771200,1.151771240234375,9.588810920715332,-1.63985013961792,-1.2393454313278198
1765881742160780800,1.16178076171875,9.586169242858887,-1.6155099868774414,-1.2906851768493652
1765881742170790700,1.171790771484375,9.584329605102539,-1.5758085250854492,-1.3519783020019531
1765881742180800500,1.181800537109375,9.58218765258789,-1.51799476146698,-1.4310028553009033
1765881742220809000,1.22180908203125,9.562381744384766,-1.6300135850906372,-1.4402378797531128
1765881742230818800,1.23181884765625,9.546304702758789,-1.754879117012024,-1.399590253829956
1765881742240798000,1.2417978515625,9.507421493530273,-2.006153106689453,-1.3246450424194336
1765881742250777300,1.25177734375,9.470582008361816,-2.202908992767334,-1.2750098705291748
1765881742260787000,1.261786865234375,9.424741744995117,-2.417726993560791,-1.2244315147399902
1765881742280745500,1.281745361328125,9.30842113494873,-2.8794822692871094,-1.110073447227478
1765881742290724600,1.291724609375,9.272851943969727,-2.9994454383850098,-1.0899240970611572
1765881742300704000,1.3017041015625,9.143861770629883,-3.401132345199585,-0.9962278604507446
1765881742320693000,1.32169287109375,8.967316627502441,-3.8579866886138916,-0.934646725654602
1765881742330672000,1.331672119140625,8.72161865234375,-4.403038024902344,-0.846757709980011
1765881742340712400,1.34171240234375,8.505410194396973,-4.817456245422363,-0.7877264022827148
1765881742350661400,1.351661376953125,8.240347862243652,-5.266515254974365,-0.7286158800125122
1765881742360671000,1.3616708984375,7.908417224884033,-5.75874662399292,-0.6812939047813416
1765881742370680800,1.371680908203125,7.399956703186035,-6.397985935211182,-0.6905027627944946
1765881742380721200,1.38172119140625,6.94791841506958,-6.887761116027832,-0.674964964389801
1765881742390700300,1.3917001953125,6.492844104766846,-7.319027900695801,-0.6672279238700867
1765881742400710100,1.401710205078125,6.254190921783447,-7.5240349769592285,-0.6666165590286255
1765881742430739500,1.431739501953125,4.784165382385254,-8.528700828552246,-0.7371642589569092
1765881742440718600,1.441718505859375,4.385084629058838,-8.7373046875,-0.7752022743225098
1765881742450728400,1.451728515625,3.987267255783081,-8.922239303588867,-0.8159387707710266
1765881742460738000,1.461738037109375,3.775963544845581,-9.012144088745117,-0.8329299688339233
1765881742470748000,1.471747802734375,3.3903894424438477,-9.160052299499512,-0.8769757151603699
1765881742480757800,1.4817578125,2.8195950984954834,-9.344481468200684,-0.9491729736328125
1765881742490737000,1.49173681640625,2.4105405807495117,-9.454874038696289,-0.9823612570762634
1765881742500746800,1.501746826171875,2.1907835006713867,-9.50715160369873,-0.9924337267875671
1765881742510726000,1.511725830078125,1.6287286281585693,-9.609774589538574,-1.081603765487671
1765881742540724700,1.541724853515625,0.6407998204231262,-9.709033966064453,-1.2224711179733276
1765881742550703900,1.551703857421875,0.25525134801864624,-9.721794128417969,-1.2617305517196655
1765881742560683300,1.561683349609375,-0.10599471628665924,-9.72067928314209,-1.2913402318954468
1765881742570692900,1.57169287109375,-0.5785722136497498,-9.699203491210938,-1.3270628452301025
1765881742580733200,1.581733154296875,-0.7346469759941101,-9.688324928283691,-1.3292980194091797
1765881742590643000,1.591642822265625,-1.0307302474975586,-9.658474922180176,-1.349757194519043
1765881742600652800,1.60165283203125,-1.3035186529159546,-9.623360633850098,-1.3646211624145508
1765881742610662700,1.61166259765625,-1.6861995458602905,-9.56230640411377,-1.3745639324188232
1765881742650549000,1.651549072265625,-2.36720871925354,-9.430394172668457,-1.2784279584884644
1765881742680578300,1.681578369140625,-2.7904598712921143,-9.340771675109863,-1.0647650957107544
1765881742690588200,1.691588134765625,-2.984898567199707,-9.294951438903809,-0.9298657774925232
1765882370225376800,629.2263767089844,9.528731346130371,0.35195454955101013,2.2912449836730957
1765882370284544000,629.2855439453125,9.487262725830078,0.2572977840900421,2.4690146446228027
1765882370314512100,629.3155122070312,9.457060813903809,0.15650087594985962,2.5903453826904297
1765882370324460800,629.3254606933593,9.433950424194336,0.06363414973020554,2.677109479904175
1765882370344419300,629.3454194335937,9.416450500488281,0.0015697518829256296,2.7387654781341553
1765882370404447500,629.4054475097656,9.293229103088379,0.17648594081401825,3.1265206336975098
1765882370444425500,629.4454255371094,9.186214447021484,0.4164413809776306,3.40740704536438
1765882370534360800,629.5353608398437,8.930517196655273,0.513585090637207,4.019014835357666
1765882370564298500,629.5652985839844,8.84638500213623,0.15290893614292145,4.229476451873779
1765882370624235000,629.6252351074219,8.38371753692627,-1.7222087383270264,4.787240982055664
1765882370724149500,629.7251494140625,6.535667896270752,-6.014139175415039,4.157590389251709
1765882583187480600,842.18848046875,7.231150150299072,3.878662586212158,5.369993686676025
1765882583197321000,842.1983210449218,7.227771282196045,3.879460096359253,5.373965263366699
1765882583226958600,842.2279584960937,7.216980934143066,3.94985294342041,5.337063312530518
1765882583256896500,842.257896484375,7.223817348480225,4.027497291564941,5.2693562507629395
1765882583326781700,842.3277817382813,7.273070335388184,3.9762754440307617,5.240427494049072
1765882583396667000,842.3976669921875,7.225722789764404,4.189413070678711,5.138885498046875
1765882583416656000,842.4176557617187,7.219897747039795,4.195346832275391,5.142230987548828
1765882583446593800,842.44759375,7.16044807434082,4.239078521728516,5.189275741577148
1765882583486571800,842.4875717773438,7.038257598876953,4.4854865074157715,5.1491498947143555
1765882583506560800,842.5075607910156,6.971075534820557,4.676554203033447,5.069944381713867
1765882583516570600,842.5175705566406,6.956636905670166,4.718147277832031,5.051205158233643
1765882583576507100,842.5775070800781,6.81455135345459,5.070043087005615,4.901727676391602
1765882583596465700,842.5974655761719,6.773922443389893,5.135569095611572,4.889814853668213
1765882583606414300,842.6074143066406,6.75174617767334,5.186073303222656,4.867128849029541
1765882583616454700,842.6174545898438,6.689908504486084,5.3370184898376465,4.788710117340088
1765882583636413200,842.6374130859375,6.566621780395508,5.581809043884277,4.679025173187256
1765882583646361900,842.6473618164063,6.5032429695129395,5.7214484214782715,4.598177909851074
1765882583656402200,842.6574020996094,6.469682216644287,5.818235874176025,4.523464202880859
1765882583666381300,842.6673813476563,6.467232704162598,5.868795871734619,4.4612250328063965
1765882583676360400,842.6773603515625,6.492465972900391,5.887338638305664,4.399718284606934
1765882583686339800,842.68733984375,6.487711429595947,5.915256977081299,4.369177341461182
1765882583696349700,842.697349609375,6.478538990020752,5.921749114990234,4.373992443084717
1765882583706298400,842.7072983398438,6.4793620109558105,5.915470123291016,4.381263256072998
1765882583716277500,842.7172775878906,6.537673473358154,5.815092086791992,4.428759574890137
1765882583736266500,842.7372666015625,6.673040390014648,5.55622673034668,4.557331562042236
1765882583756286200,842.7572861328125,6.815347194671631,5.26411771774292,4.691534519195557
1765882583766235000,842.7672348632813,6.982470512390137,4.920436382293701,4.817135810852051
1765882583776244500,842.7772443847656,7.038464546203613,4.799854755401611,4.857140064239502
1765882583786193400,842.787193359375,7.14084529876709,4.579658031463623,4.919905185699463
1765882583796172500,842.7971726074219,7.2359514236450195,4.357302188873291,4.982501029968262
1765882583806152000,842.8071518554688,7.320891380310059,4.139755725860596,5.043545246124268
1765882583816161500,842.8171616210938,7.3389201164245605,4.0915446281433105,5.05666971206665
1765882583856048000,842.8570480957031,7.360235691070557,4.173295021057129,4.9579176902771
1765882583866027300,842.86702734375,7.392989158630371,4.1404337882995605,4.936690330505371
1765882583895995600,842.8969956054688,7.596780776977539,3.8749442100524902,4.841912746429443
1765882583906005200,842.9070051269531,7.60949182510376,3.8602285385131836,4.8336992263793945
1765882583915954200,842.9169541015625,7.618729591369629,3.872114658355713,4.809582233428955
1765882583925902800,842.9269028320313,7.617995738983154,3.916097402572632,4.775008678436279
1765882583945891800,842.9468918457031,7.6156816482543945,3.9489989280700684,4.751546859741211
1765882583965820000,842.9668198242188,7.630777835845947,3.9385108947753906,4.736005783081055
1765882583975829500,842.9768295898438,7.643139839172363,3.893523693084717,4.753238677978516
1765882583985809000,842.9868088378906,7.650482654571533,3.8635573387145996,4.765861988067627
1765882583995818500,842.9968186035156,7.696430683135986,3.6963772773742676,4.824119567871094
1765882584005767400,843.0067673339844,7.714637279510498,3.6295223236083984,4.845753192901611
1765882584015777000,843.0167770996094,7.775755882263184,3.3898234367370605,4.921088695526123
1765882584025725700,843.0267255859375,7.80842924118042,3.203317165374756,4.99375581741333
1765882584035735600,843.0367355957031,7.822499752044678,3.10932993888855,5.030998706817627
1765882584055755000,843.0567551269531,7.853299617767334,2.809873580932617,5.157585144042969
1765882584065734400,843.066734375,7.850222587585449,2.7646491527557373,5.1866278648376465
1765882584075744000,843.0767438964843,7.839165687561035,2.625156879425049,5.275074481964111
1765882584095702500,843.0967026367188,7.808147430419922,2.4077606201171875,5.422721862792969
1765882584105682000,843.1066818847656,7.7941670417785645,2.3275532722473145,5.477576732635498
1765882584115661000,843.1166611328125,7.7737812995910645,2.3036139011383057,5.51652717590332
1765882584125640400,843.1266403808594,7.763298511505127,2.244793176651001,5.555401802062988
1765882584135650000,843.1366501464844,7.757861137390137,2.180002212524414,5.588700294494629
1765882584165618400,843.1666184082031,7.790284633636475,1.929434895515442,5.635524749755859
1765882584175628000,843.1766279296875,7.800801753997803,1.8345818519592285,5.6526265144348145
1765882584185607400,843.186607421875,7.8007493019104,1.8065482378005981,5.661721229553223
1765882584195586600,843.1965866699219,7.801807880401611,1.760675072669983,5.674698829650879
1765882584205566000,843.2065659179688,7.7948174476623535,1.7518572807312012,5.687020301818848
1765882584215575600,843.2165754394531,7.791822910308838,1.749802589416504,5.691755771636963
1765882584225524500,843.2265244140625,7.78696346282959,1.7455722093582153,5.699699401855469
1765882584235503600,843.2365036621094,7.781553745269775,1.7344950437545776,5.710458755493164
1765882584245483000,843.2464829101563,7.786426067352295,1.711970567703247,5.7106146812438965
1765882584275481600,843.2764816894531,7.775575637817383,1.7042700052261353,5.7276763916015625
1765882584285461000,843.2864609375,7.780601978302002,1.6921136379241943,5.724453926086426
1765882584295470600,843.296470703125,7.781937599182129,1.686285138130188,5.724358558654785
1765882584305450000,843.3064499511719,7.7850518226623535,1.6903578042984009,5.7189202308654785
1765882584315429000,843.3164291992188,7.774509429931641,1.6996536254882812,5.730493545532227
1765882584325408500,843.3264084472656,7.766738414764404,1.705453872680664,5.739302635192871
1765882584335418000,843.3364182128906,7.7594218254089355,1.6958320140838623,5.752035140991211
1765882584345397500,843.3463974609375,7.758899688720703,1.6613059043884277,5.762805461883545
1765882584355376600,843.3563767089844,7.759626865386963,1.6514915227890015,5.764647483825684
1765882584395293700,843.3962937011719,7.734414577484131,1.8202403783798218,5.747689723968506
1765882584405272800,843.4062729492188,7.730727195739746,1.8766180276870728,5.734504699707031
1765882584415282700,843.4162827148438,7.732404708862305,1.9206633567810059,5.717635631561279
1765882584425261800,843.42626171875,7.739536762237549,1.9497462511062622,5.6981096267700195
1765882584435241200,843.4362412109375,7.7468461990356445,1.9720344543457031,5.680479049682617
1765882584445220400,843.4462204589844,7.744404315948486,1.9967950582504272,5.675156593322754
1765882584455199700,843.4561997070313,7.71937370300293,2.0339183807373047,5.6960368156433105
1765882584465209300,843.4662092285156,7.694980621337891,2.0661745071411133,5.717393398284912
1765882584505187600,843.5061875,7.681260585784912,2.2167887687683105,5.679301738739014
1765882584515197200,843.516197265625,7.677185535430908,2.2384674549102783,5.6763081550598145
1765882584525176600,843.5261765136719,7.66610860824585,2.275752544403076,5.676452159881592
1765882584535217000,843.536216796875,7.648825645446777,2.2949743270874023,5.692006587982178
1765882584545165600,843.5461655273438,7.6411309242248535,2.2939581871032715,5.702741622924805
1765882584555144700,843.5561447753906,7.627193450927734,2.304100513458252,5.717292308807373
1765882584565124000,843.5661240234375,7.612101078033447,2.3417410850524902,5.722111225128174
1765882584575103200,843.5761032714844,7.5857744216918945,2.44105863571167,5.715561389923096
1765882584595092200,843.5960922851563,7.561556339263916,2.5432255268096924,5.703092575073242
1765882584605071600,843.6060715332031,7.5489935874938965,2.6144471168518066,5.687508583068848
1765882584615050800,843.61605078125,7.531719207763672,2.7452375888824463,5.648650646209717
1765882584625030000,843.6260297851562,7.5167951583862305,2.8533027172088623,5.614878177642822
1765882584635039700,843.6360397949219,7.506221771240234,2.910262107849121,5.599768161773682
1765882584645019100,843.6460190429688,7.466958045959473,3.096222400665283,5.552326679229736
1765882584655028700,843.6560288085938,7.447815418243408,3.1511101722717285,5.547155380249023
1765882584665008000,843.6660080566406,7.391310214996338,3.2984609603881836,5.5370635986328125
1765882584675017700,843.6760178222656,7.347033500671387,3.4571382999420166,5.499061584472656
1765882584704986000,843.7059860839844,7.243590831756592,3.796252965927124,5.411953449249268
1765882584714934800,843.7159348144531,7.24245023727417,3.8231821060180664,5.394495964050293
1765882584724914000,843.7259138183593,7.262313365936279,3.8009331226348877,5.383503437042236
1765882584734923800,843.735923828125,7.281308174133301,3.754467487335205,5.390446186065674
1765882584744872400,843.7458725585938,7.298867225646973,3.687645435333252,5.412781715393066
1765882584754851800,843.7558518066406,7.301556587219238,3.6697909832000732,5.421280860900879
1765882584764831000,843.7658310546875,7.2936015129089355,3.653684139251709,5.442827224731445
1765882584774840800,843.7758408203125,7.289281368255615,3.623199939727783,5.468928813934326
1765882584794860300,843.7958603515625,7.370093822479248,3.386317729949951,5.51225471496582
1765882584804809000,843.8058090820313,7.393054008483887,3.334132432937622,5.513320446014404
1765882584814818800,843.8158188476563,7.415188789367676,3.2753498554229736,5.518826484680176
1765882584824798000,843.8257978515625,7.45057487487793,3.1849145889282227,5.5240960121154785
1765882584834807800,843.8358078613281,7.485326766967773,3.0858089923858643,5.533358573913574
1765882584844787200,843.845787109375,7.515894412994385,2.9928486347198486,5.542975425720215
1765882584854796800,843.855796875,7.532674312591553,2.9269981384277344,5.555347442626953
1765882584864776200,843.8657761230469,7.542400360107422,2.878525972366333,5.567465305328369
1765882584874724900,843.8757248535156,7.5513787269592285,2.8237109184265137,5.583343029022217
1765882584884704000,843.8857041015625,7.562819004058838,2.778067111968994,5.590751647949219
1765882584904693000,843.9056928710937,7.609172344207764,2.636488914489746,5.596410751342773
1765882584924651500,843.9256516113281,7.64406156539917,2.5467419624328613,5.590421676635742
1765882584934661400,843.9356613769531,7.662195205688477,2.516833782196045,5.57913064956665
1765882584944640500,843.945640625,7.684667110443115,2.493525743484497,5.558651924133301
1765882584954650400,843.955650390625,7.720263957977295,2.40578031539917,5.547985076904297
1765882584964660200,843.96566015625,7.7375922203063965,2.338809013366699,5.5524797439575195
1765882584974700300,843.9757001953125,7.739490985870361,2.330333948135376,5.553396224975586
1765882584984679700,843.9856796875,7.726112365722656,2.373339891433716,5.553812503814697
1765882584994658800,843.9956589355469,7.6984429359436035,2.4530792236328125,5.557586193084717
1765882585004638200,844.0056381835938,7.659642696380615,2.566493511199951,5.5599799156188965
1765882585034545400,844.0355454101563,7.646255016326904,2.469613790512085,5.621938228607178
1765882585054534400,844.0555344238281,7.660809516906738,2.2747464179992676,5.684004783630371
1765882585064544300,844.0655441894531,7.666037082672119,2.1658504009246826,5.719384670257568
1765882585074553900,844.0755539550781,7.65935754776001,2.087184429168701,5.757455348968506
1765882585084502800,844.0855026855469,7.650107383728027,2.070291757583618,5.775823593139648
1765882585094512400,844.0955124511719,7.641730308532715,2.058398723602295,5.79114294052124
1765882585104491800,844.1054916992188,7.637512683868408,2.029066562652588,5.807036876678467
1765882585134490400,844.1354904785156,7.665258884429932,1.774375319480896,5.85369873046875
1765882585144469800,844.1454697265625,7.672760963439941,1.7156585454940796,5.861368179321289
1765882585164458800,844.1654587402344,7.706333160400391,1.5852023363113403,5.854053974151611
1765882585174499000,844.1754990234375,7.712657928466797,1.5877102613449097,5.845038890838623
1765882585184478200,844.1854782714844,7.715757846832275,1.5950658321380615,5.838942050933838
1765882585194457600,844.1954575195313,7.722690582275391,1.578629970550537,5.834240913391113
1765882585204436700,844.2054367675781,7.735995292663574,1.520053744316101,5.832169055938721
1765882585214446600,844.2154465332031,7.752414703369141,1.4227615594863892,5.8349127769470215
1765882585234405000,844.2354050292969,7.770102024078369,1.1764585971832275,5.866160869598389
1765882585244384300,844.2453842773438,7.766816139221191,1.0178494453430176,5.900079250335693
1765882585254363400,844.25536328125,7.772971153259277,0.9282169938087463,5.906752586364746
1765882585264312300,844.2653122558594,7.778282165527344,0.8918007016181946,5.905371189117432
1765882585274352600,844.2753525390625,7.788970947265625,0.8359798789024353,5.899445056915283
1765882585284331800,844.2853317871094,7.79997444152832,0.7779458165168762,5.892842769622803
1765882585294311000,844.2953107910156,7.811665058135986,0.698760449886322,5.887275695800781
1765882585304290300,844.3052902832031,7.826097011566162,0.5741735100746155,5.881575107574463
1765882585314269400,844.31526953125,7.830477714538574,0.5268803238868713,5.880171298980713
1765882585344237800,844.3452377929688,7.824379920959473,0.6503967642784119,5.875922679901123
1765882585354217000,844.3552170410156,7.8283371925354,0.684933066368103,5.866718769073486
1765882585364196400,844.3651962890625,7.830068111419678,0.698203444480896,5.862843036651611
1765882585374206000,844.3752060546875,7.842295169830322,0.7127882838249207,5.844717979431152
1765882585384185300,844.3851853027344,7.861700534820557,0.7070091962814331,5.819294452667236
1765882585394195000,844.3951948242187,7.872171401977539,0.6991451382637024,5.806074619293213
1765882585404174300,844.4051743164063,7.8758625984191895,0.7025750875473022,5.800652027130127
1765882585414153500,844.4151535644531,7.8815460205078125,0.6357659101486206,5.800639629364014
1765882585424102100,844.4251020507812,7.882187843322754,0.5665683746337891,5.8069353103637695
1765882585464049700,844.4650495605468,7.837732791900635,0.5361518859863281,5.869657039642334
1765882585474029000,844.4750290527344,7.808822154998779,0.40911954641342163,5.91821813583374
1765882585484008200,844.4850083007813,7.798610687255859,0.3392409384250641,5.936074256896973
1765882585494018000,844.4950180664063,7.773367404937744,0.21090014278888702,5.97500467300415
1765882585503997200,844.5049970703125,7.746237277984619,0.12026048451662064,6.012631416320801
1765882585513976600,844.5149765625,7.706776142120361,0.07286839932203293,6.063883304595947
1765882585523955700,844.5249558105469,7.684256553649902,0.07644782960414886,6.092350959777832
1765882585533935000,844.5349350585938,7.6695404052734375,0.07413341104984283,6.110895156860352
1765882585573913000,844.5749130859375,7.688302993774414,0.3237333595752716,6.079110622406006
1765882585583892200,844.5848923339844,7.6993727684021,0.4035392999649048,6.060297966003418
1765882585593871600,844.5948715820313,7.716714859008789,0.48541197180747986,6.03217077255249
1765882585603850800,844.6048508300781,7.723077297210693,0.5121504664421082,6.0218071937561035
1765882585613860600,844.6148605957031,7.737733840942383,0.5556393265724182,5.999094486236572
1765882585623839700,844.62483984375,7.752664566040039,0.6220337152481079,5.973245143890381
1765882585633819100,844.6348190917969,7.763141632080078,0.79075026512146,5.9395904541015625
1765882585663787300,844.6647873535156,7.766486167907715,1.2928751707077026,5.846413612365723
1765882585673766700,844.6747666015625,7.770517826080322,1.477332592010498,5.797148704528809
1765882585683745800,844.6847458496094,7.773850917816162,1.5641810894012451,5.769832611083984
1765882585693755600,844.6947556152344,7.768390655517578,1.7265843152999878,5.730742931365967
1765882585703734800,844.7047348632813,7.753468990325928,1.8697117567062378,5.705986976623535
1765882585723693300,844.724693359375,7.704948902130127,2.063584804534912,5.704890251159668
1765882585733672700,844.7346726074219,7.680161952972412,2.081247568130493,5.731833457946777
1765882585743651800,844.7446518554688,7.650219917297363,2.0617690086364746,5.778722763061523
1765882585753600500,844.7546005859375,7.600932598114014,2.0364718437194824,5.852263450622559
1765882585763580000,844.7645798339844,7.581074237823486,2.0330753326416016,5.879141807556152
1765882585773589500,844.7745895996094,7.5424323081970215,2.038238763809204,5.9268622398376465
1765882585783599400,844.7845993652344,7.502933502197266,2.0464348793029785,5.9739837646484375
1765882585793609200,844.7946091308594,7.478147029876709,2.0573930740356445,6.001237392425537
1765882585803588400,844.8045883789063,7.4515581130981445,2.0827298164367676,6.0255208015441895
1765882585813537000,844.814537109375,7.430882453918457,2.1414082050323486,6.030484199523926
1765882585823516400,844.8245163574219,7.408085823059082,2.223864793777466,6.028687953948975
1765882585843475000,844.8444748535156,7.362682342529297,2.2713370323181152,6.066493034362793
1765882585863433200,844.8644331054687,7.331395149230957,2.0419883728027344,6.184765338897705
1765882585873473500,844.8744736328125,7.316822528839111,1.9731950759887695,6.224226951599121
1765882585883422200,844.8844221191406,7.262669563293457,1.871399998664856,6.318376541137695
1765882585893432000,844.8944321289063,7.189995765686035,1.8004096746444702,6.421282768249512
1765882585903411500,844.9044113769531,7.1079535484313965,1.7304348945617676,6.53092622756958
1765882585913421000,844.9144211425781,7.021910667419434,1.632709264755249,6.6481146812438965
1765882585923400400,844.924400390625,6.934497356414795,1.497443675994873,6.770582675933838
1765882585933410000,844.93441015625,6.818639278411865,1.3951629400253296,6.908695220947266
1765882585943420000,844.944419921875,6.691678047180176,1.321786880493164,7.045900821685791
1765882585953399000,844.9543989257812,6.543044567108154,1.2917678356170654,7.189597129821777
1765882585963348000,844.9643479003906,6.441275119781494,1.225305438041687,7.292392730712891
1765882585993255200,844.9942551269531,6.213980197906494,1.094702124595642,7.507226943969727
1765882586003234300,845.004234375,6.199054718017578,1.038458228111267,7.527529239654541
1765882586013244200,845.014244140625,6.194036960601807,0.9821562170982361,7.53920841217041
1765882586023223300,845.0242233886719,6.1947431564331055,0.9458011388778687,7.543276309967041
1765882586033263600,845.034263671875,6.194264888763428,0.9391977190971375,7.544492721557617
1765882586043243000,845.0442429199219,6.1906890869140625,0.9244303107261658,7.549250602722168
1765882586053222100,845.0542221679688,6.184140205383301,0.8550801277160645,7.562779903411865
1765882586063201300,845.064201171875,6.1764302253723145,0.7442379593849182,7.580780029296875
1765882586083159800,845.0841599121094,6.162904739379883,0.5880058407783508,7.605474472045898
1765882586093139200,845.0941391601563,6.158169746398926,0.5459375381469727,7.612443447113037
1765882586103118300,845.1041184082031,6.158487796783447,0.4633115530014038,7.6176605224609375
1765882586113097700,845.11409765625,6.161386489868164,0.4311921298503876,7.617203712463379
1765882586123076900,845.1240769042969,6.178982257843018,0.37636446952819824,7.605848789215088
1765882586133025500,845.1340256347656,6.209041595458984,0.3472934365272522,7.582716941833496
1765882586143005000,845.1440048828125,6.24477481842041,0.3523916006088257,7.553079128265381
1765882586152984000,845.1539841308594,6.317712783813477,0.4263730049133301,7.488331317901611
1765883017149309700,1276.150309814453,2.673814296722412,-8.71005630493164,3.627122640609741
1765883017159150000,1276.1601501464843,2.6693179607391357,-8.715953826904297,3.616255283355713
1765883017168898800,1276.1698989257814,2.6575772762298584,-8.717560768127441,3.621025800704956
1765883017198797600,1276.199797607422,2.1439030170440674,-8.748896598815918,3.8769664764404297
1765883017208807200,1276.2098071289063,1.9012871980667114,-8.746217727661133,4.007390022277832
1765883017218817000,1276.219817138672,1.831753134727478,-8.741921424865723,4.048938274383545
1765883017228796200,1276.2297961425782,1.7320021390914917,-8.724044799804688,4.130570888519287
1765883017238806000,1276.2398059082032,1.6385124921798706,-8.681774139404297,4.255876541137695
1765883017248846300,1276.249846435547,1.590553641319275,-8.647379875183105,4.343197822570801
1765883017308782800,1276.3097829589844,1.1943342685699463,-8.461853981018066,4.810509204864502
1765883017398596000,1276.3995961914063,0.1631862372159958,-8.001470565795898,5.667470932006836
1765883017458532600,1276.4595327148438,0.31740766763687134,-7.436115741729736,6.385440349578857
1765883017498480000,1276.4994802246094,0.5406874418258667,-7.129328727722168,6.7119855880737305
1765883017558416600,1276.559416748047,0.8108189702033997,-6.6335835456848145,7.176943778991699
1765883017568395800,1276.5693957519532,0.8367325663566589,-6.562184810638428,7.2393388748168945
1765883017578375200,1276.5793752441407,0.8539426326751709,-6.493472576141357,7.2990403175354
1765883017588354300,1276.589354248047,0.8580424785614014,-6.428236961364746,7.356081485748291
1765883017598364200,1276.5993642578126,0.8557657599449158,-6.368028163909912,7.408526420593262
1765883017608343300,1276.6093432617188,0.8416454792022705,-6.300240516662598,7.4678635597229
1765883017628301800,1276.6293017578125,0.8251555562019348,-6.186614990234375,7.5640788078308105
1765883017638281200,1276.63928125,0.8090654015541077,-6.029526233673096,7.69159460067749
1765883017648260400,1276.6492602539063,0.8056173324584961,-5.988092422485352,7.724256992340088
1765883017678259200,1276.6792592773438,0.7551900148391724,-5.734725475311279,7.919156074523926
1765883303139787800,1562.140787841797,9.669962882995605,-1.6268723011016846,0.12451660633087158
1765883303149597700,1562.15059765625,9.67392635345459,-1.6033827066421509,0.12124058604240417
1765883303159377000,1562.160376953125,9.678140640258789,-1.5784151554107666,0.11216682940721512
1765883303169186600,1562.1701865234375,9.679935455322266,-1.567627191543579,0.10850173234939575
1765883303179166000,1562.180166015625,9.687516212463379,-1.5209064483642578,0.09619206190109253
1765883303189175600,1562.1901755371093,9.692983627319336,-1.4855989217758179,0.09721994400024414
1765883303199185400,1562.2001853027343,9.701180458068848,-1.4307377338409424,0.10236746817827225
1765883303209195300,1562.2101953125,9.710492134094238,-1.3650696277618408,0.11540690809488297
1765883303219113500,1562.2201135253906,9.722139358520508,-1.2731257677078247,0.17189182341098785
1765883303229092600,1562.2300925292968,9.728575706481934,-1.2122753858566284,0.23575904965400696
1765883303239071700,1562.2400717773437,9.73275089263916,-1.159567952156067,0.31520208716392517
1765883303249020700,1562.2500207519531,9.733992576599121,-1.1364197731018066,0.35822492837905884
1765883303258999800,1562.2599997558593,9.73471736907959,-1.0807685852050781,0.4874342679977417
1765883303298977800,1562.299977783203,9.723349571228027,-0.9281747937202454,0.8748496770858765
1765883303378903300,1562.3799033203125,9.681516647338867,-0.9306105375289917,1.254028558731079
1765883303398861800,1562.3998618164062,9.685367584228516,-0.9148372411727905,1.2357652187347412
1765883303458768000,1562.4597678222656,9.728915214538574,-0.8843454718589783,0.8582125306129456
1765883303498776600,1562.4997766113281,9.70648193359375,-0.9031241536140442,1.0672192573547363
1765883303508755700,1562.5097556152343,9.683064460754395,-0.9299952387809753,1.2424827814102173
1765883303518734800,1562.5197348632812,9.654146194458008,-0.9669903516769409,1.4257512092590332
1765883303578702000,1562.5797021484375,9.490915298461914,-1.250898003578186,2.1279494762420654
1765883303648617700,1562.6496176757812,9.476181030273438,-1.5159013271331787,2.0185177326202393
1765883303678555400,1562.6795554199218,9.465234756469727,-1.5592329502105713,2.036792039871216
1765883303728512800,1562.7295126953125,9.358671188354492,-1.6606135368347168,2.4141318798065186
1765883303768521200,1562.7695212402343,9.301782608032227,-1.6834592819213867,2.6102070808410645
1765883303778470100,1562.7794702148437,9.298449516296387,-1.6591103076934814,2.637530565261841
1765883303788449300,1562.78944921875,9.296875,-1.6391630172729492,2.655496835708618
1765883303838437000,1562.8394370117187,9.270854949951172,-1.7269415855407715,2.690598487854004
1765883303848416300,1562.8494162597656,9.271377563476562,-1.7556685209274292,2.6701266765594482
1765883303858395600,1562.8593957519531,9.293144226074219,-1.7456345558166504,2.60011887550354
1765883303868405200,1562.8694052734375,9.29679012298584,-1.7255220413208008,2.600508451461792
1765883303878384600,1562.8793845214843,9.301016807556152,-1.6178441047668457,2.654064655303955
1765883303888363800,1562.8893637695312,9.338459014892578,-1.5290229320526123,2.574035406112671
1765883303898343200,1562.8993432617187,9.379361152648926,-1.4269036054611206,2.4823219776153564
1765883303918332200,1562.9193322753906,9.44992446899414,-1.264371395111084,2.295794725418091
1765883303928311300,1562.9293112792968,9.469958305358887,-1.2353626489639282,2.2280375957489014
1765883303938321200,1562.9393210449218,9.485963821411133,-1.2073036432266235,2.174692153930664
1765883303948300300,1562.9493002929687,9.499889373779297,-1.1718922853469849,2.1328744888305664
1765883303958279700,1562.9592797851562,9.504974365234375,-1.1498750448226929,2.1221771240234375
1765883303968289300,1562.9692893066406,9.505535125732422,-1.1381884813308716,2.1259639263153076
1765883303978268700,1562.9792685546875,9.507885932922363,-1.1122372150421143,2.129181146621704
1765883303988247800,1562.9892478027343,9.507513046264648,-1.0793097019195557,2.147714614868164
1765883303998227200,1562.9992272949219,9.504850387573242,-1.019327998161316,2.1884207725524902
1765883304018185700,1563.0191857910156,9.483332633972168,-0.9225205183029175,2.3207197189331055
1765883304028195300,1563.0291953125,9.468804359436035,-0.9084521532058716,2.3847107887268066
1765883304038174700,1563.0391748046875,9.452933311462402,-0.8882043957710266,2.454289674758911
1765883304048184300,1563.0491843261718,9.439252853393555,-0.8502486348152161,2.5195207595825195
1765883304058194200,1563.0591940917968,9.417187690734863,-0.7710164785385132,2.6253554821014404
1765883304068204000,1563.0692041015625,9.405545234680176,-0.6432600021362305,2.700432062149048
1765883304078152700,1563.0791525878906,9.395649909973145,-0.5454729199409485,2.7558343410491943
1765883304088162600,1563.0891625976562,9.387337684631348,-0.48420003056526184,2.795323371887207
1765883304098111200,1563.099111328125,9.389568328857422,-0.4322618246078491,2.7963457107543945
1765883304108090400,1563.1090903320312,9.391278266906738,-0.41628676652908325,2.7930233478546143
1765883304128049000,1563.129048828125,9.38925552368164,-0.39344650506973267,2.803116798400879
1765883304138028000,1563.1390280761718,9.38314151763916,-0.3501015901565552,2.8292174339294434
1765883304148007400,1563.1490073242187,9.373676300048828,-0.3276616334915161,2.86307954788208
1765883304157956000,1563.1589560546875,9.359142303466797,-0.2899327874183655,2.9142374992370605
1765883304167935500,1563.168935546875,9.289385795593262,-0.21223507821559906,3.135706901550293
1765883304177914600,1563.1789145507812,9.26147747039795,-0.18366993963718414,3.2189576625823975
1765883304187924500,1563.1889245605469,9.236300468444824,-0.1507788896560669,3.29217529296875
1765883304197903600,1563.198903564453,9.22645092010498,-0.13898001611232758,3.3201918601989746
1765883304207913500,1563.2089135742187,9.217171669006348,-0.12020955979824066,3.346590757369995
1765883304227872000,1563.2288720703125,9.178998947143555,-0.0796826109290123,3.4510889053344727
1765883304237851100,1563.2388510742187,9.163885116577148,-0.08774711191654205,3.490830183029175
1765883304247830500,1563.2488305664062,9.125356674194336,-0.12277444452047348,3.5893146991729736
1765883304257809700,1563.2588095703125,9.103924751281738,-0.1579921841621399,3.641974449157715
1765883304267788800,1563.2687888183593,9.075765609741211,-0.1789940446615219,3.710636854171753
1765883304277768200,1563.2787683105469,9.043161392211914,-0.15625761449337006,3.7904090881347656
1765883304287808500,1563.28880859375,9.030728340148926,-0.13314400613307953,3.820812702178955
1765883304297787600,1563.2987875976562,8.994697570800781,-0.07945946604013443,3.9063405990600586
1765883304307797500,1563.3087976074219,8.965426445007324,-0.054028820246458054,3.9734859466552734
1765883304347714600,1563.3487145996094,8.836894035339355,-0.017547931522130966,4.251986026763916
1765883304367703600,1563.3687036132812,8.798535346984863,0.06517740339040756,4.330348491668701
1765883304377682700,1563.3786826171875,8.79290771484375,0.09065262228250504,4.341307163238525
1765883304387661800,1563.3886618652343,8.784209251403809,0.11246932297945023,4.358371734619141
1765883304397641200,1563.3986411132812,8.77285385131836,0.1155763491988182,4.381103515625
1765883304407681500,1563.408681640625,8.772019386291504,0.09290493279695511,4.383314609527588
1765883304417691100,1563.4186911621093,8.772237777709961,0.0556289479136467,4.3835062980651855
1765883304437680400,1563.4386804199219,8.709050178527832,0.07610095292329788,4.507443904876709
1765883304447690000,1563.4486899414062,8.694849014282227,0.0987359806895256,4.534339904785156
1765883304457669400,1563.4586694335937,8.688799858093262,0.11716756224632263,4.545483589172363
1765883304467679000,1563.468678955078,8.681471824645996,0.10684023052453995,4.559716701507568
1765883304477658400,1563.4786584472656,8.663182258605957,0.05908040329813957,4.59523344039917
1765883304487637500,1563.4886374511718,8.64600944519043,0.0380687415599823,4.627684593200684
1765883304497617000,1563.4986169433594,8.58587646484375,0.08417349308729172,4.7377238273620605
1765883304507596000,1563.5085959472656,8.547051429748535,0.12739668786525726,4.806461811065674
1765883304517575200,1563.5185751953125,8.493154525756836,0.18858444690704346,4.899097919464111
1765883304527585000,1563.5285849609375,8.46036434173584,0.21818916499614716,4.954292297363281
1765883304567563000,1563.5685629882812,8.345672607421875,0.3298400044441223,5.139196395874023
1765883304577572900,1563.5785727539062,8.314711570739746,0.3802620470523834,5.18568754196167
1765883304587582700,1563.5885827636719,8.290596008300781,0.3809109926223755,5.224109649658203
1765883304597561900,1563.598561767578,8.288509368896484,0.3442153036594391,5.229963302612305
1765883304607571700,1563.6085717773437,8.284734725952148,0.31258344650268555,5.237925052642822
1765883304617550800,1563.61855078125,8.276460647583008,0.31248176097869873,5.2509942054748535
1765883304627530000,1563.6285300292968,8.249377250671387,0.33285483717918396,5.292200088500977
1765883304637509400,1563.6385092773437,8.201376914978027,0.39893838763237,5.361777305603027
1765883304657498400,1563.6584982910156,8.128454208374023,0.5135980844497681,5.462128162384033
1765883304667538700,1563.6685385742187,8.040348052978516,0.6167581081390381,5.580573558807373
1765883304677487400,1563.6784873046875,7.9850311279296875,0.6797266602516174,5.652224063873291
1765883304687466800,1563.688466796875,7.923708915710449,0.7512414455413818,5.728949546813965
1765883304697446000,1563.6984458007812,7.852628707885742,0.8320387005805969,5.815008163452148
1765883304707455700,1563.7084558105469,7.736450672149658,0.9946238994598389,5.943772792816162
1765883304717435000,1563.718434814453,7.694006443023682,1.0521775484085083,5.988788604736328
1765883304727444700,1563.7284448242187,7.629645824432373,1.1312934160232544,6.0563249588012695
1765883304777341000,1563.7783408203125,7.383365154266357,1.2717574834823608,6.327632904052734
1765883304787350800,1563.7883508300781,7.349301815032959,1.2831482887268066,6.364878177642822
1765883304797330000,1563.7983298339843,7.3206586837768555,1.2819807529449463,6.398037433624268
1765883304807339800,1563.80833984375,7.3095784187316895,1.273729920387268,6.412336349487305
1765883304817319000,1563.8183188476562,7.281496047973633,1.3123326301574707,6.436458110809326
1765883304827328800,1563.8283288574219,7.25895357131958,1.3458499908447266,6.454972267150879
1765883304837308000,1563.838307861328,7.231463432312012,1.3819173574447632,6.478165626525879
1765883304867276300,1563.8682763671875,7.1503825187683105,1.3764257431030273,6.568704128265381
1765883304877286000,1563.8782858886718,7.150202751159668,1.315010666847229,6.581470012664795
1765883304887265300,1563.8882653808594,7.154557228088379,1.2962822914123535,6.580451488494873
1765883304897244400,1563.8982443847656,7.155420303344727,1.3025795221328735,6.578270435333252
1765883304907254300,1563.9082541503906,7.146336555480957,1.3312500715255737,6.58240270614624
1765883304917264000,1563.9182639160156,7.1370086669921875,1.3510323762893677,6.588490962982178
1765883304927273700,1563.9282736816406,7.112395763397217,1.3858450651168823,6.607847690582275
1765883304937222400,1563.9382224121093,7.063004493713379,1.4187196493148804,6.653688907623291
1765883304967190800,1563.968190673828,6.928267955780029,1.5191049575805664,6.772135257720947
1765883304977200600,1563.9782006835937,6.891913414001465,1.544485092163086,6.803417682647705
1765883304987210200,1563.988210205078,6.805826187133789,1.5670573711395264,6.884435653686523
1765883304997189600,1563.9981896972656,6.751928329467773,1.5572631359100342,6.939509391784668
1765883305007199200,1564.00819921875,6.722424507141113,1.5475871562957764,6.970248222351074
1765883305017209000,1564.018208984375,6.696084499359131,1.5442349910736084,6.9962968826293945
1765883305027219000,1564.0282189941406,6.669144630432129,1.5470503568649292,7.0213623046875
1765883305037167600,1564.0381677246094,6.6375250816345215,1.5778172016143799,7.0444416999816895
1765883305047177200,1564.0481772460937,6.624011039733887,1.5917603969573975,7.054018020629883
1765883305067135700,1564.0681357421875,6.564518928527832,1.6763261556625366,7.089951515197754
1765883305077115100,1564.078115234375,6.501086235046387,1.735809326171875,7.133949279785156
1765883305087124700,1564.0881247558593,6.398247241973877,1.803730845451355,7.209671974182129
1765883305097134600,1564.0981345214843,6.360666751861572,1.8454896211624146,7.2323222160339355
1765883305107144400,1564.10814453125,6.334872245788574,1.8697963953018188,7.248700141906738
1765883305117123600,1564.1181235351562,6.276956081390381,1.8972116708755493,7.291831016540527
1765883305127133400,1564.1281335449219,6.23016881942749,1.9106199741363525,7.328363418579102
1765883305137082000,1564.13808203125,6.168899059295654,1.8968720436096191,7.383559703826904
1765883305147092000,1564.1480920410156,6.129405975341797,1.87494957447052,7.421949863433838
1765883305187070000,1564.1880700683594,6.01908016204834,1.8687983751296997,7.513232707977295
1765883305197049000,1564.1980490722656,6.004467487335205,1.8664666414260864,7.525493621826172
1765883305207059000,1564.2080588378906,5.9946136474609375,1.875073790550232,7.531208038330078
1765883305217038000,1564.2180380859375,5.981564521789551,1.8928242921829224,7.537140846252441
1765883305227048000,1564.2280478515625,5.9512939453125,1.918904185295105,7.554488658905029
1765883305237027000,1564.2380270996093,5.926257133483887,1.9443176984786987,7.567661285400391
1765883305247037000,1564.2480368652343,5.890142440795898,1.9796085357666016,7.5866851806640625
1765883305257046800,1564.258046875,5.849495887756348,1.995640516281128,7.613881587982178
1765883305286923500,1564.2879235839844,5.854416370391846,1.995522379875183,7.61013126373291
1765883305296902700,1564.2979025878906,5.851855754852295,1.9879037141799927,7.61409330368042
1765883305306881800,1564.3078818359375,5.827137470245361,1.994518756866455,7.631300449371338
1765883305316891600,1564.3178916015625,5.831397533416748,1.9913222789764404,7.628881931304932
1765883305326932000,1564.3279318847656,5.844270706176758,1.9841046333312988,7.620906352996826
1765883305336941800,1564.3379418945312,5.861419677734375,1.9716230630874634,7.6109700202941895
1765883305346921000,1564.3479208984375,5.880936622619629,1.954679250717163,7.600276470184326
1765883305356900400,1564.357900390625,5.917099952697754,1.9237697124481201,7.580066680908203
1765883305386899000,1564.3878989257812,5.997583866119385,1.8785595893859863,7.527974605560303
1765883305396908800,1564.3979086914062,6.011063098907471,1.874286413192749,7.51828145980835
1765883305416958700,1564.4179587402343,6.0548996925354,1.8686081171035767,7.484442710876465
1765883305426938000,1564.4279382324219,6.1185503005981445,1.8653289079666138,7.433322429656982
1765883305436947700,1564.4379477539062,6.144874095916748,1.8708994388580322,7.410172462463379
1765883305446927000,1564.447927001953,6.167622089385986,1.8815088272094727,7.388555526733398
1765883305456906200,1564.45790625,6.187193393707275,1.892829179763794,7.3692755699157715
1765883305466916000,1564.467916015625,6.195521354675293,1.8995275497436523,7.360550403594971
1765883305486966300,1564.4879663085937,6.2207794189453125,1.9274019002914429,7.331943988800049
1765883305496945400,1564.4979453125,6.219633102416992,1.9521117210388184,7.3263773918151855
1765883305506955300,1564.5079553222656,6.209182262420654,1.9951930046081543,7.32363748550415
1765883305516934400,1564.5179343261718,6.187325477600098,2.0741608142852783,7.320193767547607
1765883305526913500,1564.5279135742187,6.160510063171387,2.1424450874328613,7.323144435882568
1765883305536893000,1564.5378928222656,6.12415885925293,2.2087416648864746,7.333930015563965
1765883305546902800,1564.5479028320312,6.087079048156738,2.2635488510131836,7.348075866699219
1765883305556882000,1564.5578818359375,6.035628318786621,2.3335013389587402,7.3686065673828125
1765883305566922200,1564.5679221191406,5.988528728485107,2.405158042907715,7.38397741317749
1765883305596890400,1564.5978903808593,5.91691780090332,2.4792568683624268,7.417126178741455
1765883305606900200,1564.6079001464843,5.876644134521484,2.47700572013855,7.44982385635376
1765883305616910000,1564.61791015625,5.836795806884766,2.4828903675079346,7.479135036468506
1765883305626919700,1564.6279196777343,5.784247398376465,2.4981157779693604,7.514804840087891
1765883305636838000,1564.637837890625,5.747580051422119,2.4961557388305664,7.543535232543945
1765883305646908700,1564.6479086914062,5.736903190612793,2.5025479793548584,7.549542427062988
1765883305656888000,1564.6578881835937,5.71809720993042,2.498811721801758,7.565030097961426
1765883305676846600,1564.6778466796875,5.656191825866699,2.481174945831299,7.617194652557373
1765883305736752600,1564.7377526855469,5.467775821685791,2.524461030960083,7.739568710327148
1765883305746762200,1564.7477622070312,5.412158489227295,2.5347137451171875,7.775226593017578
1765883305756741600,1564.7577416992187,5.369551658630371,2.5477352142333984,7.800471782684326
1765883305766751200,1564.767751220703,5.343380451202393,2.556429624557495,7.815583229064941
1765883305776730600,1564.7777307128906,5.293955326080322,2.576991319656372,7.842419147491455
1765883305786709800,1564.7877097167968,5.236745357513428,2.5938918590545654,7.8751912117004395
1765883305796689200,1564.7976892089844,5.166398525238037,2.584716558456421,7.924516677856445
1765883305806698800,1564.8076987304687,5.063704967498779,2.5976767539978027,7.98632287979126
1765883305816678100,1564.8176782226562,4.988598823547363,2.6176958084106445,8.026951789855957
1765883305826687700,1564.8276877441406,4.90547513961792,2.648777961730957,8.067879676818848
1765883305836667100,1564.8376672363281,4.792413711547852,2.688857078552246,8.122389793395996
1765883305846676700,1564.8476767578125,4.717405796051025,2.710850477218628,8.158905982971191
1765883305856656100,1564.85765625,4.60837459564209,2.7549221515655518,8.206318855285645
1765883305866665700,1564.8676657714843,4.509837627410889,2.794621229171753,8.247535705566406
1765883305876645000,1564.8776450195312,4.423320770263672,2.805253028869629,8.290668487548828
1765883305886685400,1564.887685546875,4.36214542388916,2.821622133255005,8.317483901977539
1765883305896664600,1564.8976645507812,4.2855610847473145,2.846219301223755,8.348855972290039
1765883305906644000,1564.9076440429687,4.241027355194092,2.8648436069488525,8.36521053314209
1765883305946560800,1564.9475607910156,4.074314117431641,2.9405808448791504,8.421599388122559
1765883305956540200,1564.9575400390625,3.9897379875183105,2.9888999462127686,8.445049285888672
1765883305966549800,1564.9675498046875,3.9116501808166504,3.0236425399780273,8.469179153442383
1765883305976529200,1564.9775290527343,3.8390133380889893,3.052231788635254,8.492128372192383
1765883305986539000,1564.9875390625,3.76708984375,3.081864833831787,8.513609886169434
1765883305996548600,1564.9975485839843,3.676656723022461,3.126037359237671,8.537005424499512
1765883306006528000,1565.0075280761719,3.6477556228637695,3.1400227546691895,8.544268608093262
1765883306036496100,1565.03749609375,3.3827240467071533,3.2702770233154297,8.60423469543457
1765883306046506000,1565.0475061035156,3.186044216156006,3.3455917835235596,8.650232315063477
1765883306056485000,1565.0574851074218,3.1069326400756836,3.3731493949890137,8.668289184570312
1765883306076443600,1565.0774436035156,2.935346841812134,3.4345457553863525,8.703909873962402
1765883306086484000,1565.0874838867187,2.876004457473755,3.4585235118865967,8.71422004699707
1765883306096432600,1565.0974326171875,2.826719284057617,3.4798529148101807,8.721851348876953
1765883306106442500,1565.1074423828125,2.7786412239074707,3.500875234603882,8.728883743286133
1765883306116452400,1565.1174523925781,2.7331583499908447,3.519951105117798,8.735570907592773
1765883306126462000,1565.1274619140625,2.66747784614563,3.541815996170044,8.747029304504395
1765883306136441300,1565.13744140625,2.6421120166778564,3.5520572662353516,8.750572204589844
1765883306146451000,1565.1474509277343,2.5798838138580322,3.5744845867156982,8.760003089904785
1765883306156430300,1565.1574304199219,2.4976181983947754,3.601980686187744,8.77257251739502
1765883306166409500,1565.167409423828,2.423901319503784,3.631989002227783,8.780875205993652
1765883306176419300,1565.1774194335937,2.336409330368042,3.6813294887542725,8.784042358398438
1765883306186429000,1565.187428955078,2.305152654647827,3.6973977088928223,8.785552024841309
1765883306206418200,1565.2074182128906,2.198939800262451,3.76572585105896,8.783756256103516
1765883306216427800,1565.217427734375,2.11678409576416,3.822113037109375,8.779583930969238
1765883306236416800,1565.2374167480468,2.017507791519165,3.886104106903076,8.77486515045166
1765883306246396200,1565.2473962402344,1.9676625728607178,3.9330079555511475,8.765279769897461
1765883306266385200,1565.2673852539062,1.8157378435134888,4.08375358581543,8.729056358337402
1765883306286404600,1565.2874045410156,1.71965754032135,4.194944381713867,8.695722579956055
1765883306296383700,1565.2973837890625,1.6511019468307495,4.274697303771973,8.670132637023926
1765883306306393600,1565.3073935546875,1.576195478439331,4.353566646575928,8.644794464111328
1765883306336423000,1565.3374228515625,1.3222476243972778,4.590148448944092,8.56461238861084
1765883306346432800,1565.3474328613281,1.2790613174438477,4.625618934631348,8.552079200744629
1765883306356412000,1565.3574118652343,1.218870759010315,4.6821088790893555,8.530099868774414
1765883306366421800,1565.367421875,1.1712801456451416,4.731075763702393,8.509725570678711
1765883306376401000,1565.3774008789062,1.1310516595840454,4.777671813964844,8.489109992980957
1765883306386441200,1565.3874411621093,1.0971651077270508,4.82124137878418,8.468900680541992
1765883306396390000,1565.397389892578,1.0599901676177979,4.868257999420166,8.446707725524902
1765883306406399700,1565.407399658203,0.9909294247627258,4.945624828338623,8.410067558288574
1765883306416409600,1565.4174096679687,0.937107264995575,4.990246772766113,8.38985538482666
1765883306426288600,1565.4272885742187,0.8334130644798279,5.072874069213867,8.351153373718262
1765883306446278000,1565.4472778320312,0.6698504090309143,5.197503089904785,8.289008140563965
1765883306456257000,1565.457257080078,0.596855878829956,5.257697105407715,8.256562232971191
1765883306466267000,1565.467266845703,0.5343009233474731,5.321255207061768,8.220046997070312
1765883306476246000,1565.47724609375,0.49211132526397705,5.350113868713379,8.20393180847168
1765883306486255900,1565.487255859375,0.4691314399242401,5.389758586883545,8.179291725158691
1765883306496235000,1565.4972351074218,0.45706164836883545,5.419419765472412,8.160353660583496
1765883306506244900,1565.5072448730468,0.42511168122291565,5.4633989334106445,8.132710456848145
1765883306516224000,1565.5172241210937,0.41260406374931335,5.476346015930176,8.124641418457031
1765883306526233900,1565.5272338867187,0.36758652329444885,5.518525123596191,8.098219871520996
1765883306556202000,1565.5572019042968,0.20448037981987,5.617730140686035,8.035526275634766
1765883306566211800,1565.5672119140625,0.14478491246700287,5.651968002319336,8.01278305053711
1765883306576221700,1565.5772216796875,0.09458090364933014,5.6813530921936035,7.9927263259887695
1765883306586200800,1565.5872009277343,0.047590602189302444,5.709996700286865,7.972710132598877
1765883306596210700,1565.5972106933593,0.02338438294827938,5.72369909286499,7.962986469268799
1765883306606220300,1565.6072202148437,-0.07375029474496841,5.775135040283203,7.925451278686523
1765883306616199700,1565.6171997070312,-0.14900340139865875,5.814826965332031,7.895312786102295
1765883306626209300,1565.6272092285155,-0.22677111625671387,5.854571342468262,7.864028453826904
1765883306636188700,1565.637188720703,-0.30560675263404846,5.8970723152160645,7.829529285430908
1765883306676136200,1565.6771362304687,-0.44325873255729675,6.007307052612305,7.738616466522217
1765883306686176500,1565.6871765136718,-0.5004279017448425,6.038498878479004,7.7108049392700195
1765883306696155600,1565.6971557617187,-0.5347416996955872,6.053974628448486,7.696352958679199
1765883306706135000,1565.7071350097656,-0.6062445044517517,6.074429988861084,7.674905776977539
1765883306716114200,1565.7171142578125,-0.6529068946838379,6.093188762664795,7.656182765960693
1765883306726124000,1565.7271240234375,-0.704821765422821,6.126176834106445,7.6251935958862305
1765883306736103200,1565.7371032714843,-0.7504957318305969,6.149494171142578,7.602032661437988
1765883306746113000,1565.7471130371093,-0.8092413544654846,6.170401573181152,7.579029083251953
1765883306776081200,1565.7770810546874,-0.9360498785972595,6.2406158447265625,7.506592750549316
1765883306796039700,1565.7970397949218,-1.0314420461654663,6.313368797302246,7.432892799377441
1765883306806080000,1565.807080078125,-1.0606207847595215,6.34637451171875,7.400608539581299
1765883306816059100,1565.8170590820312,-1.0873621702194214,6.377134323120117,7.3702239990234375
1765883306826069000,1565.8270690917968,-1.1178916692733765,6.409979820251465,7.337088584899902
1765883306836048400,1565.8370483398437,-1.1638917922973633,6.433716773986816,7.309107303619385
1765883306846058000,1565.8470581054687,-1.2221242189407349,6.491259574890137,7.248473167419434
1765883306856037400,1565.8570373535156,-1.2583709955215454,6.513662815093994,7.222125053405762
1765883306905994500,1565.9069943847655,-1.3997381925582886,6.727534770965576,6.996527671813965
1765883306915943200,1565.9169431152343,-1.4245249032974243,6.771768093109131,6.948689937591553
1765883306925953000,1565.926953125,-1.4416396617889404,6.806513786315918,6.911112308502197
1765883306935932400,1565.9369323730468,-1.4515917301177979,6.823563575744629,6.892187595367432
1765883306945942000,1565.9469418945312,-1.4566344022750854,6.8637213706970215,6.851126670837402
1765883306955890700,1565.956890625,-1.4531623125076294,6.885265350341797,6.8302178382873535
1765883306965931000,1565.966930908203,-1.4509434700012207,6.896688461303711,6.819155216217041
1765883306995899400,1565.9968994140625,-1.3451257944107056,6.940240859985352,6.796627521514893
1765883307005909000,1566.0069089355468,-1.309078335762024,6.943776607513428,6.800052642822266
1765883307015888400,1566.0168884277343,-1.2903963327407837,6.944953918457031,6.802418231964111
1765883307025898200,1566.0268981933593,-1.2246575355529785,6.945458889007568,6.8140435218811035
1765883307035907800,1566.0369079589843,-1.1785013675689697,6.9440131187438965,6.823652744293213
1765883307045917700,1566.0469177246093,-1.1284312009811401,6.940146446228027,6.836040496826172
1765883307055896800,1566.0568967285155,-1.1052876710891724,6.938287734985352,6.841704845428467
1765883307065876200,1566.066876220703,-1.0045183897018433,6.915286064147949,6.880418300628662
1765883307075855400,1566.07685546875,-0.9741904735565186,6.90660285949707,6.893487930297852
1765883307115864000,1566.1168640136718,-0.6545236706733704,6.793877601623535,7.041679382324219
1765883307125873700,1566.1268737792968,-0.5755056738853455,6.7500834465026855,7.090528964996338
1765883307135822300,1566.136822265625,-0.48969608545303345,6.7011895179748535,7.143153190612793
1765883307145832200,1566.1468322753906,-0.33500760793685913,6.625083923339844,7.222631931304932
1765883307155811600,1566.1568115234375,-0.21328970789909363,6.564564228057861,7.282267093658447
1765883307165821200,1566.1668212890625,-0.08185060322284698,6.492664813995361,7.349081516265869
1765883307175800600,1566.1768005371093,0.04880524054169655,6.4183125495910645,7.414396286010742
1765883307205768700,1566.206768798828,0.3392021358013153,6.246278285980225,7.5524396896362305
1765883307215717400,1566.2167172851562,0.4959715008735657,6.1314167976379395,7.637418270111084
1765883307225666300,1566.2266662597656,0.6080845594406128,6.053675174713135,7.691141128540039
1765883307235676000,1566.2366760253906,0.7309831976890564,5.970204830169678,7.7454962730407715
1765883307245685800,1566.2466857910156,0.8015695214271545,5.933544158935547,7.766655921936035
1765883307255665000,1566.2566647949218,1.0119658708572388,5.780389785766602,7.857062816619873
1765883307265674800,1566.2666748046875,1.1326345205307007,5.665468215942383,7.924013614654541
1765883307275654000,1566.2766538085937,1.2562825679779053,5.538697242736816,7.994683742523193
1765883307285663700,1566.2866638183593,1.3079320192337036,5.468647003173828,8.034527778625488
1765883307315662600,1566.3166625976562,1.6564128398895264,4.977207660675049,8.285776138305664
1765883307325703000,1566.3267028808593,1.7380414009094238,4.838706970214844,8.350839614868164
1765883307335682000,1566.3366821289062,1.8406997919082642,4.712602615356445,8.400809288024902
1765883307345692000,1566.3466918945312,1.9404624700546265,4.589152812957764,8.446578979492188
1765883307355671000,1566.356671142578,2.046259880065918,4.463423728942871,8.488882064819336
1765883307365681000,1566.366680908203,2.0897767543792725,4.397632598876953,8.512582778930664
1765883307375660000,1566.3766599121093,2.210181951522827,4.2669782638549805,8.548590660095215
1765883307385670000,1566.386669921875,2.429277181625366,4.051092147827148,8.594047546386719
1765883307395618600,1566.3966186523437,2.582653284072876,3.90106463432312,8.618699073791504
1765883307435627000,1566.436626953125,3.1622097492218018,3.3849196434020996,8.6436767578125
1765883307445636900,1566.4466369628906,3.3606250286102295,3.2302486896514893,8.627982139587402
1765883307455616300,1566.4566162109375,3.6628592014312744,3.009671211242676,8.58462142944336
1765883307465595400,1566.4665954589843,3.8670735359191895,2.864494562149048,8.544635772705078
1765883307475574500,1566.4765744628905,3.9688868522644043,2.7926900386810303,8.521690368652344
1765883307485554000,1566.486553955078,4.16737174987793,2.643094301223755,8.474518775939941
1765883307495533000,1566.4965329589843,4.464692115783691,2.416290760040283,8.390378952026367
1765883307515491600,1566.5164916992187,4.77433967590332,2.1907918453216553,8.28109359741211
1765883307535511000,1566.536510986328,5.1500983238220215,1.9446523189544678,8.115737915039062
1765883307545521000,1566.5465209960937,5.32167387008667,1.8502485752105713,8.026628494262695
1765883307555500300,1566.5565002441406,5.553820610046387,1.7269034385681152,7.8957743644714355
1765883307565540400,1566.566540283203,5.684704780578613,1.6475120782852173,7.8192219734191895
1765883307575550200,1566.5765502929687,5.795439720153809,1.558638572692871,7.755895614624023
1765883307585560000,1566.5865600585937,5.8917059898376465,1.4554041624069214,7.703245639801025
1765883307595539200,1566.5965393066406,5.985504150390625,1.3333982229232788,7.652854919433594
1765883307605549000,1566.6065490722656,6.030877590179443,1.2689398527145386,7.628151893615723
1765883307635517200,1566.6365170898437,6.115201473236084,1.1158883571624756,7.58482027053833
1765883307645527000,1566.6465270996093,6.10772180557251,1.1192492246627808,7.590350151062012
1765883307655506200,1566.6565061035155,6.0873026847839355,1.0734649896621704,7.613331317901611
1765883307665485600,1566.666485595703,6.065418243408203,0.9772703647613525,7.643692970275879
1765883307675464700,1566.6764645996093,6.074944496154785,0.9404782056808472,7.640742778778076
1765883307685444000,1566.6864440917968,6.015471458435059,0.9100269675254822,7.691315650939941
1765883307695453700,1566.6964536132812,5.951932907104492,0.9018383622169495,7.741548538208008
1765883307705433000,1566.7064331054687,5.908073902130127,0.8476096391677856,7.78117036819458
1765883307735432000,1566.7364318847656,5.7808098793029785,0.7398477792739868,7.887031078338623
1765883307745411000,1566.7464111328125,5.608524799346924,0.8567895889282227,7.998797416687012
1765883307755390200,1566.7563901367187,5.463566303253174,0.9907219409942627,8.083210945129395
1765883307765369600,1566.7663696289062,5.311975955963135,1.1451553106307983,8.163451194763184
1765883307775348700,1566.7763486328124,5.236143112182617,1.2241771221160889,8.200889587402344
1765883307785328000,1566.786328125,5.16493034362793,1.3128812313079834,8.232267379760742
1765883307795337700,1566.7963376464843,5.121051788330078,1.3825374841690063,8.248260498046875
1765883307805347600,1566.80634765625,5.140960216522217,1.3893238306045532,8.234725952148438
1765883307835316000,1566.8363159179687,4.965260028839111,1.601313829421997,8.303757667541504
1765883307855274200,1566.8562741699218,4.674689292907715,1.8071260452270508,8.42923355102539
1765883307865314600,1566.866314453125,4.568120002746582,1.872859001159668,8.473196983337402
1765883307875294000,1566.8762939453125,4.553625106811523,1.900284767150879,8.474892616271973
1765883307885303600,1566.8863034667968,4.468683242797852,1.9551211595535278,8.507572174072266
1765883307895283000,1566.8962829589843,4.1817145347595215,2.114428758621216,8.614686965942383
1765883307905262000,1566.9062619628905,4.071225643157959,2.177541971206665,8.651810646057129
1765883307915241500,1566.916241455078,3.8792667388916016,2.339982509613037,8.697481155395508
1765883307945179100,1566.9461791992187,3.394075393676758,2.7126317024230957,8.791601181030273
1765883307955158300,1566.956158203125,3.314338445663452,2.742452621459961,8.81274700164795
1765883307965168000,1566.9661682128906,3.233649969100952,2.803304433822632,8.823569297790527
1765883307975147500,1566.9761474609375,3.13653564453125,2.897653102874756,8.828146934509277
1765883307985126700,1566.9861267089843,3.105747699737549,2.92757511138916,8.829157829284668
1765883307995105800,1566.9961057128905,2.9905567169189453,3.029163360595703,8.83465576171875
1765883308005115600,1567.0061157226562,2.905411720275879,3.0987796783447266,8.838922500610352
1765883308015125500,1567.0161254882812,2.811119556427002,3.1679162979125977,8.844902038574219
1765883308065082600,1567.0660825195312,2.427278518676758,3.5401604175567627,8.81736946105957
1765883308075031600,1567.0760314941406,2.3137147426605225,3.605642557144165,8.821364402770996
1765883308085010700,1567.0860107421875,2.1774649620056152,3.702756881713867,8.815816879272461
1765883308095020500,1567.0960205078125,2.1136534214019775,3.7461037635803223,8.813035011291504
1765883308105030100,1567.1060300292968,2.0121102333068848,3.8310117721557617,8.800292015075684
1765883308115040000,1567.1160400390625,1.9309552907943726,3.9066433906555176,8.785210609436035
1765883308125049900,1567.1260498046875,1.8354092836380005,4.0023393630981445,8.762587547302246
1765883308145038800,1567.1460388183593,1.7981665134429932,4.065323352813721,8.741291046142578
1765883308154987500,1567.155987548828,1.769711971282959,4.106595039367676,8.727795600891113
1765883308164966700,1567.1659665527343,1.7237211465835571,4.156633377075195,8.713298797607422
1765883308174946000,1567.1759460449218,1.6332781314849854,4.226330757141113,8.697178840637207
1765883308184925200,1567.1859252929687,1.469285249710083,4.337668418884277,8.671576499938965
1765883308194904600,1567.1959045410156,1.3281220197677612,4.425529956817627,8.649924278259277
1765883308204914200,1567.2059140625,1.1974369287490845,4.509034156799316,8.62584114074707
1765883308214893600,1567.2158935546875,1.0560247898101807,4.634459018707275,8.577702522277832
1765883308224842200,1567.2258422851562,1.0082979202270508,4.678843021392822,8.559332847595215
1765883308234791000,1567.235791015625,0.8906704783439636,4.780749797821045,8.515958786010742
1765883308264789800,1567.2657897949218,0.7196388244628906,4.921113014221191,8.451931953430176
1765883308274769000,1567.275768798828,0.6828478574752808,4.957578659057617,8.433653831481934
1765883308284748300,1567.2857482910156,0.6592097878456116,4.984150409698486,8.4198637008667
1765883308294727400,1567.2957275390625,0.5882791876792908,5.0604143142700195,8.379530906677246
1765883308304737300,1567.3057373046875,0.5418599843978882,5.107614994049072,8.353983879089355
1765883308314716400,1567.3157163085937,0.5165536999702454,5.131936073303223,8.34067153930664
1765883308324665300,1567.325665283203,0.4359714984893799,5.20462703704834,8.300132751464844
1765883308364612600,1567.365612548828,0.159376323223114,5.411374568939209,8.176919937133789
1765883308374592000,1567.3755920410156,0.08482172340154648,5.482613563537598,8.13044548034668
1765883308384601900,1567.3856018066406,0.07063362747430801,5.5019049644470215,8.117539405822754
1765883308394581000,1567.3955810546875,0.0507347472012043,5.554037094116211,8.082108497619629
1765883308404560100,1567.4055600585937,0.03532791882753372,5.590847969055176,8.056772232055664
1765883308414570000,1567.4155700683593,0.014735212549567223,5.628207683563232,8.030782699584961
1765883308424579800,1567.4255798339843,-0.01815875805914402,5.671112537384033,8.000533103942871
1765883308434559000,1567.4355590820312,-0.07545008510351181,5.716650485992432,7.967723369598389
1765883308454548000,1567.4555478515624,-0.15417233109474182,5.779238700866699,7.921300888061523
1765883308484516400,1567.4855163574218,-0.32824352383613586,5.910525321960449,7.818463325500488
1765883308494526000,1567.4955258789062,-0.38748013973236084,5.952163219451904,7.784088134765625
1765883308504505300,1567.5055053710937,-0.4537339508533478,5.995483875274658,7.7471723556518555
1765883308514484500,1567.515484375,-0.522265613079071,6.035373687744141,7.711801528930664
1765883308524494300,1567.5254943847656,-0.5871943235397339,6.072934627532959,7.6775689125061035
1765883308534504200,1567.5355041503906,-0.6453624367713928,6.109822750091553,7.643557548522949
1765883308544483300,1567.5454833984375,-0.7053413987159729,6.149255752563477,7.606545925140381
1765883308594471200,1567.5954711914062,-0.9186357855796814,6.310369968414307,7.450215816497803
1765883308604480800,1567.6054807128905,-0.9610837697982788,6.3322625160217285,7.426249027252197
1765883308634449200,1567.63544921875,-1.1757599115371704,6.440729141235352,7.301026821136475
1765883308644428300,1567.6454282226562,-1.1918740272521973,6.472059726715088,7.270645618438721
1765883308654438100,1567.6554382324218,-1.2017179727554321,6.5190229415893555,7.226935863494873
1765883308684437000,1567.6854370117187,-1.2599117755889893,6.610109806060791,7.133681774139404
1765883308694446600,1567.695446533203,-1.2900258302688599,6.64141321182251,7.09914493560791
1765883308704426000,1567.7054260253906,-1.3066390752792358,6.658159255981445,7.080395698547363
1765883308714405000,1567.7154050292968,-1.3857406377792358,6.717751979827881,7.008703231811523
1765883308724384500,1567.7253845214843,-1.4648329019546509,6.763486385345459,6.948371887207031
1765883308734394000,1567.7353940429687,-1.5323013067245483,6.810548305511475,6.887587547302246
1765883308744373500,1567.7453735351562,-1.5649685859680176,6.835396766662598,6.855554580688477
1765883308754352600,1567.7553525390624,-1.6392630338668823,6.8974199295043945,6.775601387023926
1765883308784351500,1567.7853515625,-1.6312304735183716,7.021364688873291,6.649059295654297
1765883308794361300,1567.795361328125,-1.613794207572937,7.045392036437988,6.6278605461120605
1765883308804371000,1567.8053708496093,-1.6107863187789917,7.053731918334961,6.61971378326416
1765883308814350300,1567.8153503417968,-1.6292483806610107,7.075664043426514,6.591732501983643
1765883308824390700,1567.825390625,-1.653529405593872,7.087342262268066,6.5731120109558105
1765883308834369800,1567.8353698730468,-1.6705623865127563,7.09768533706665,6.557626724243164
1765883308844318500,1567.845318359375,-1.7165993452072144,7.118582248687744,6.522997856140137
1765883308854328300,1567.8553283691406,-1.75993812084198,7.140545845031738,6.4873456954956055
1765883308864338200,1567.8653381347656,-1.8053783178329468,7.165544509887695,6.44716739654541
1765883308874317300,1567.8753173828125,-1.8184669017791748,7.171705722808838,6.436630725860596
1765883308924274700,1567.925274658203,-1.7379776239395142,7.103542804718018,6.533718109130859
1765883308934284300,1567.9352841796874,-1.730495810508728,7.088669300079346,6.5518341064453125
1765883308944294100,1567.945294189453,-1.6964737176895142,7.033030033111572,6.620337009429932
1765883308954304000,1567.955303955078,-1.6650094985961914,6.992722988128662,6.670831680297852
1765883308964313600,1567.965313720703,-1.6476457118988037,6.972753047943115,6.695996284484863
1765883308994312400,1567.9953125,-1.4438685178756714,6.791106224060059,6.925785541534424
1765883309004261000,1568.0052612304687,-1.3736252784729004,6.731158256530762,6.998219966888428
1765883309014271000,1568.0152709960937,-1.3347370624542236,6.69862174987793,7.036858558654785
1765883309024280600,1568.025280517578,-1.2630665302276611,6.624379634857178,7.11987829208374
1765883309034229500,1568.0352294921875,-1.1836445331573486,6.551167011260986,7.200806140899658
1765883309044269800,1568.0452697753906,-1.1029647588729858,6.476449012756348,7.280762672424316
1765883309054249000,1568.0552490234375,-1.012571930885315,6.400094032287598,7.360968589782715
1765883309064289300,1568.0652893066406,-0.8024433255195618,6.252339839935303,7.512308120727539
1765883309094196500,1568.095196533203,-0.5691530704498291,6.100438594818115,7.6570963859558105
1765883309114216000,1568.1152158203124,-0.3039174973964691,5.934375762939453,7.801357746124268
1765883309124225800,1568.125225830078,-0.11191197484731674,5.786691188812256,7.916570663452148
1765883309134205000,1568.1352048339843,0.012967034243047237,5.679253578186035,7.994765758514404
1765883309144214800,1568.14521484375,0.07533201575279236,5.6202287673950195,8.036028861999512
1765883309154194000,1568.1551938476562,0.20328034460544586,5.475636959075928,8.133049011230469
1765883309164173300,1568.1651733398437,0.33430618047714233,5.348467826843262,8.212949752807617
1765883309174213600,1568.1752136230468,0.47747841477394104,5.215071678161621,8.291287422180176
1765883309194202600,1568.1952026367187,0.8203191757202148,4.877819061279297,8.467842102050781
1765883309214191600,1568.2151916503906,1.0198346376419067,4.662205696105957,8.567039489746094
1765883309224201500,1568.2252014160156,1.2544325590133667,4.4075775146484375,8.67006778717041
1765883309234150100,1568.2351501464843,1.3361749649047852,4.315765380859375,8.703977584838867
1765883309244129300,1568.2451293945312,1.5163222551345825,4.132763385772705,8.763072967529297
1765883309254169600,1568.2551696777343,1.6916736364364624,3.953211545944214,8.813669204711914
1765883309264179500,1568.2651794433593,1.8648598194122314,3.7866368293762207,8.851783752441406
1765883309274128100,1568.275128173828,2.0408289432525635,3.6185357570648193,8.883221626281738
1765883309284138000,1568.285137939453,2.302739143371582,3.360062837600708,8.920636177062988
1765883309304127000,1568.305126953125,2.658271074295044,3.006192922592163,8.948004722595215
1765883309314106000,1568.3151062011718,2.750833749771118,2.917757272720337,8.949302673339844
1765883309324116000,1568.3251159667968,2.9357104301452637,2.7491912841796875,8.943933486938477
1765883309334156300,1568.33515625,3.204866886138916,2.5123109817504883,8.921183586120605
1765883309344166000,1568.3451657714843,3.288278818130493,2.44240403175354,8.910234451293945
1765883309354145300,1568.3551452636718,3.442049503326416,2.3146047592163086,8.88624095916748
1765883309364185600,1568.365185546875,3.6055262088775635,2.183990001678467,8.854421615600586
1765883309374164700,1568.3751647949218,3.791400194168091,2.051060199737549,8.808452606201172
1765883309384174600,1568.3851745605468,4.091206073760986,1.859340786933899,8.716379165649414
1765883309404132900,1568.4051328125,4.414521217346191,1.6269205808639526,8.604391098022461
1765883309424152600,1568.4251525878906,4.577457904815674,1.4769611358642578,8.546101570129395
1765883309434131700,1568.4351315917968,4.686098098754883,1.3906655311584473,8.501583099365234
1765883309444172000,1568.4451721191406,4.74299955368042,1.3979560136795044,8.468770980834961
1765883309454182000,1568.4551818847656,4.7506890296936035,1.4738380908966064,8.451577186584473
1765883309464191500,1568.46519140625,4.726998805999756,1.525684118270874,8.455658912658691
1765883309474171000,1568.4751708984375,4.701869010925293,1.5481297969818115,8.465584754943848
1765883309484150000,1568.4851499023437,4.636284351348877,1.5979269742965698,8.492460250854492
1765883309494160000,1568.4951599121093,4.563048362731934,1.6590681076049805,8.520356178283691
1765883309524189200,1568.5251892089843,4.365370273590088,1.794137954711914,8.596220970153809
1765883309574238000,1568.5752380371093,3.764404535293579,2.0505292415618896,8.820146560668945
1765883309584217300,1568.5852172851562,3.7085447311401367,2.0942156314849854,8.833536148071289
1765883309594196500,1568.595196533203,3.5593442916870117,2.2332146167755127,8.860823631286621
1765883309604236800,1568.6052368164062,3.418365955352783,2.3547616004943848,8.884833335876465
1765883309614246400,1568.6152463378905,3.265267848968506,2.471208333969116,8.910754203796387
1765883309624256300,1568.6252563476562,3.108696699142456,2.5886330604553223,8.933385848999023
1765883309634235600,1568.635235595703,2.9728567600250244,2.6839938163757324,8.95146369934082
1765883309644214800,1568.64521484375,2.871701717376709,2.7557637691497803,8.962672233581543
1765883309654255000,1568.655255126953,2.7892589569091797,2.8171887397766113,8.969609260559082
1765883309664264700,1568.6652646484374,2.6687936782836914,2.8910155296325684,8.982759475708008
1765883309674213600,1568.6752136230468,2.6249499320983887,2.91751766204834,8.98710823059082
1765883309684223200,1568.6852231445312,2.4854776859283447,3.0067245960235596,8.997355461120605
1765883309694233000,1568.6952331542968,2.4440479278564453,3.0337204933166504,8.999643325805664
1765883309704243000,1568.7052429199218,2.266221761703491,3.159083127975464,9.003045082092285
1765883309714252500,1568.7152524414062,2.219789743423462,3.2025671005249023,8.999250411987305
1765883309724232000,1568.7252319335937,2.1009225845336914,3.2829220294952393,8.998830795288086
1765883309744281900,1568.7452817382812,1.7621283531188965,3.5313472747802734,8.977465629577637
1765883309754261200,1568.7552612304687,1.7005490064620972,3.575484275817871,8.971868515014648
1765883309764270800,1568.765270751953,1.5873943567276,3.660703420639038,8.958227157592773
1765883309774280700,1568.7752807617187,1.4864964485168457,3.731536626815796,8.946303367614746
1765883309784259800,1568.785259765625,1.4061756134033203,3.7783281803131104,8.93964958190918
1765883309794239200,1568.7952392578125,1.3911480903625488,3.7846343517303467,8.9393310546875
1765883309804218400,1568.8052182617187,1.3642747402191162,3.790663003921509,8.940919876098633
1765883309814228200,1568.8152282714843,1.3271938562393188,3.8035459518432617,8.941028594970703
1765883309824238000,1568.8252380371093,1.2325795888900757,3.832221508026123,8.942327499389648
1765883309834217200,1568.8352172851562,1.1889841556549072,3.8477585315704346,8.941556930541992
1765883309854236700,1568.8552365722655,0.9380810856819153,4.008521556854248,8.90068244934082
1765883309864216000,1568.865216064453,0.8859809041023254,4.049542427062988,8.887443542480469
1765883309874195200,1568.8751953125,0.8010399341583252,4.128130912780762,8.85930347442627
1765883309884205000,1568.885205078125,0.724794864654541,4.205943584442139,8.829219818115234
1765883309894184200,1568.8951840820312,0.6328688859939575,4.302369117736816,8.789738655090332
1765883309904194000,1568.9051940917968,0.6013607978820801,4.352324485778809,8.767327308654785
1765883309914142700,1568.9151428222656,0.5920984745025635,4.371667385101318,8.758330345153809
1765883309924152600,1568.9251525878906,0.5322890281677246,4.425931930541992,8.734883308410645
1765883309934162200,1568.935162109375,0.5107476115226746,4.444888591766357,8.726540565490723
1765883309954151400,1568.9551513671875,0.37699851393699646,4.551218032836914,8.6784029006958
1765883309964161000,1568.9651611328125,0.3333744704723358,4.567586898803711,8.671587944030762
1765883309974140400,1568.9751403808593,0.259392112493515,4.626470565795898,8.642850875854492
1765883309984150000,1568.9851499023437,0.16752572357654572,4.694629669189453,8.608296394348145
1765883309994129400,1568.9951293945312,0.07143676280975342,4.766672134399414,8.569954872131348
1765883310004108500,1569.005108642578,-0.0022755437530577183,4.822484016418457,8.538973808288574
1765883310014118400,1569.015118408203,-0.06388941407203674,4.869875431060791,8.511795043945312
1765883310024128000,1569.0251279296874,-0.14101824164390564,4.939155101776123,8.470846176147461
1765883310034107400,1569.035107421875,-0.16483984887599945,4.96054220199585,8.457910537719727
1765883335168641500,1594.1696416015625,5.922123432159424,7.816533088684082,0.025615211576223373
1765883335188200200,1594.1892001953124,5.969326972961426,7.780586242675781,0.0005082417628727853
1765883335198240300,1594.199240234375,6.09596586227417,7.681110858917236,-0.10058306902647018
1765883335208219600,1594.2092197265624,6.258522033691406,7.54612398147583,-0.23936814069747925
1765883335218229500,1594.2192294921874,6.417087554931641,7.405868053436279,-0.3801303803920746
1765883335228239000,1594.229239013672,6.658894062042236,7.1765007972717285,-0.5721475481987
1765883335238218500,1594.2392185058593,6.821403503417969,7.012670993804932,-0.6791867017745972
1765883335248228000,1594.2492280273439,6.980417728424072,6.844671726226807,-0.7711223363876343
1765883335258268400,1594.259268310547,7.140623092651367,6.667855262756348,-0.8494666814804077
1765883335308256300,1594.3092563476562,7.887265682220459,5.726400852203369,-1.081555962562561
1765883335338194000,1594.3391938476564,8.290782928466797,5.113716125488281,-1.1327929496765137
1765883335378172000,1594.379171875,8.719219207763672,4.35211706161499,-1.097577691078186
1765883335408140300,1594.4091403808593,9.043952941894531,3.6699411869049072,-0.9533300995826721
1765883335438139100,1594.4391391601562,9.263877868652344,3.1265225410461426,-0.7588281035423279
1765883335488065800,1594.4890656738282,9.55453872680664,2.1830878257751465,-0.33956849575042725
1765883335498106000,1594.4991062011718,9.578125953674316,2.0810813903808594,-0.31462883949279785
1765883335508116000,1594.5091159667968,9.623998641967773,1.8631647825241089,-0.27865129709243774
1765883335518095000,1594.5190952148437,9.66956615447998,1.6144081354141235,-0.2521109879016876
1765883335528074200,1594.52907421875,9.724576950073242,1.247149109840393,-0.21820665895938873
1765883335538084000,1594.539083984375,9.740180969238281,1.121199131011963,-0.20535913109779358
1765883335548063500,1594.5490634765624,9.765350341796875,0.881070077419281,-0.17895227670669556
1765883335568052500,1594.5690524902343,9.802587509155273,0.26182207465171814,-0.10544785112142563
1765883335578062000,1594.5790620117189,9.805317878723145,0.13575665652751923,-0.08772625029087067
1765883335588072000,1594.5890720214843,9.805937767028809,-0.10576903820037842,-0.052657127380371094
1765883335598081800,1594.5990817871093,9.796186447143555,-0.4528105556964874,-0.00869867205619812
1765883335608091400,1594.6090913085939,9.782660484313965,-0.6853634119033813,0.015127170830965042
1765883335618131700,1594.619131591797,9.76372241973877,-0.9160080552101135,0.03233852609992027
1765883335628141600,1594.6291416015624,9.739631652832031,-1.1438075304031372,0.04078260436654091
1765883335638151200,1594.639151123047,9.708233833312988,-1.3850233554840088,0.04789959639310837
1765883335648161000,1594.6491611328124,9.66821575164795,-1.6409415006637573,0.057537779211997986
1765883335678068200,1594.6790681152345,9.541275024414062,-2.2654378414154053,0.04747698828577995
1765883335688078000,1594.689078125,9.515219688415527,-2.3726282119750977,0.04008673131465912
1765883335698057200,1594.6990571289064,9.407266616821289,-2.770106315612793,0.01512596569955349
1765883335708067000,1594.7090671386718,9.378931045532227,-2.864609718322754,0.007605725899338722
1765883335718046200,1594.7190461425782,9.318431854248047,-3.055678606033325,-0.006837225519120693
1765883335728056000,1594.7290561523437,9.217644691467285,-3.3473312854766846,-0.027973830699920654
1765883335738096400,1594.7390964355468,9.148219108581543,-3.5325047969818115,-0.04350771754980087
1765883335748075500,1594.7490754394532,9.113297462463379,-3.621469497680664,-0.05605214461684227
1765883335758055000,1594.7590549316405,9.051471710205078,-3.7729666233062744,-0.07730097323656082
1765883335798063400,1594.7990634765624,8.815617561340332,-4.293668746948242,-0.1403052806854248
1765883335808042800,1594.8090427246093,8.787335395812988,-4.350999355316162,-0.14809578657150269
1765883335818052400,1594.8190522460939,8.72612476348877,-4.472019195556641,-0.16183482110500336
1765883335828001000,1594.8290009765626,8.632290840148926,-4.6491007804870605,-0.19946692883968353
1765883335837980400,1594.83898046875,8.601971626281738,-4.703841209411621,-0.2244054079055786
1765883335847990000,1594.8489899902345,8.53525161743164,-4.821410179138184,-0.2717991769313812
1765883335858000000,1594.8589997558595,8.514556884765625,-4.85668420791626,-0.29211336374282837
1765883335868009700,1594.869009765625,8.471660614013672,-4.929132461547852,-0.3240586519241333
1765883335898008600,1594.8990085449218,8.343887329101562,-5.137904644012451,-0.3896995782852173
1765883335907987700,1594.9089877929687,8.307151794433594,-5.194939136505127,-0.4174107313156128
1765883335917997600,1594.9189975585937,8.254936218261719,-5.274150848388672,-0.4579724669456482
1765883335928007200,1594.9290070800782,8.222451210021973,-5.323028087615967,-0.4765108823776245
1765883335938017000,1594.9390170898437,8.206622123718262,-5.347208499908447,-0.4786541759967804
1765883335948027000,1594.9490268554687,8.170053482055664,-5.401994705200195,-0.4889591336250305
1765883335958006000,1594.9590061035155,8.156875610351562,-5.422057151794434,-0.4868864417076111
1765883335968016000,1594.9690158691405,8.117329597473145,-5.480103015899658,-0.4978201985359192
1765883335978025500,1594.979025390625,8.102975845336914,-5.50143575668335,-0.4963565468788147
1765883336007963400,1595.0089633789062,8.025484085083008,-5.61085844039917,-0.5293890833854675
1765883336017942500,1595.018942626953,7.98100471496582,-5.674372673034668,-0.524834156036377
1765883336027891200,1595.0288911132814,7.968029499053955,-5.694550514221191,-0.5029861927032471
1765883336037901000,1595.0389011230468,7.94896125793457,-5.721067905426025,-0.5037747025489807
1765883336047880200,1595.0488801269532,7.914030075073242,-5.767033576965332,-0.5290018320083618
1765883336057890000,1595.0588901367187,7.8878936767578125,-5.802903652191162,-0.5270930528640747
1765883336077848600,1595.0788486328124,7.836852073669434,-5.870765686035156,-0.536879301071167
1765883336097807000,1595.0988071289062,7.806412220001221,-5.9088616371154785,-0.5618440508842468
1765883336107786200,1595.1087861328126,7.784419536590576,-5.936092376708984,-0.5796617269515991
1765883336117796000,1595.118796142578,7.744596481323242,-5.987107753753662,-0.5883538722991943
1765883336127775200,1595.1287751464845,7.762146949768066,-5.963104248046875,-0.6007182598114014
1765883336137785000,1595.13878515625,7.772588729858398,-5.948029518127441,-0.6149681806564331
1765883336147795000,1595.148794921875,7.774527549743652,-5.943963527679443,-0.6296105980873108
1765883336157774000,1595.1587741699218,7.785524845123291,-5.927801609039307,-0.6458755135536194
1765883336167753200,1595.1687531738282,7.801845073699951,-5.90769100189209,-0.6330718398094177
1765883336177732600,1595.1787326660155,7.819164276123047,-5.8840179443359375,-0.6398312449455261
1765883336227720400,1595.2287204589843,7.677497386932373,-5.988475322723389,-1.1681488752365112
1765883336237730000,1595.2387299804689,7.487432479858398,-6.1989827156066895,-1.296674132347107
1765883336247709400,1595.2487094726562,7.3839874267578125,-6.303674697875977,-1.3823232650756836
1765883336257688600,1595.2586884765626,7.333044528961182,-6.32139778137207,-1.5610132217407227
1765883336267668000,1595.26866796875,7.307733535766602,-6.341120719909668,-1.5992486476898193
1765883336277677600,1595.2786774902345,7.2568206787109375,-6.383268356323242,-1.6621772050857544
1765883336307707000,1595.3087067871095,7.039888381958008,-6.531656742095947,-1.9869115352630615
1765883336317716700,1595.318716796875,7.010435104370117,-6.547591686248779,-2.037947177886963
1765883336327726600,1595.3287265625,6.895344257354736,-6.605226993560791,-2.2350833415985107
1765883336337705700,1595.3387058105468,6.850866794586182,-6.631686210632324,-2.2927606105804443
1765883336347684900,1595.3486848144532,6.694041728973389,-6.722719669342041,-2.4829909801483154
1765883336357694700,1595.3586948242187,6.634805202484131,-6.757181167602539,-2.547597885131836
1765883336367704600,1595.3687045898437,6.446731090545654,-6.850847244262695,-2.7705488204956055
1765883336377683700,1595.37868359375,6.324155330657959,-6.90403413772583,-2.917152166366577
1765883336387693600,1595.3886936035155,6.194545745849609,-6.936356067657471,-3.1120662689208984
1765883336417723000,1595.4187229003905,5.807139873504639,-6.973249912261963,-3.7177019119262695
1765883336427702000,1595.428701904297,5.700560569763184,-6.976680278778076,-3.8729748725891113
1765883336437681400,1595.4386813964843,5.653379440307617,-6.976672172546387,-3.9415392875671387
1765883336447691000,1595.4486909179689,5.577991008758545,-6.9775285720825195,-4.046047687530518
1765883336457700900,1595.4587009277343,5.517332553863525,-6.976390361785889,-4.130303859710693
1765883336477720300,1595.4787202148439,5.3765740394592285,-7.0202202796936035,-4.240206241607666
1765883336487699700,1595.4886997070312,5.290376663208008,-7.062424659729004,-4.278369903564453
1765883336507719200,1595.5087192382812,5.076357364654541,-7.182214736938477,-4.337831020355225
1765883336517729000,1595.5187290039062,4.9960408210754395,-7.226500511169434,-4.357482433319092
1765883336527738600,1595.5287385253907,4.919367790222168,-7.265470027923584,-4.379857540130615
1765883336537718000,1595.538718017578,4.884615898132324,-7.274715900421143,-4.4033427238464355
1765883336547727600,1595.5487275390626,4.819005012512207,-7.298699855804443,-4.435827732086182
1765883336557707000,1595.55870703125,4.749734878540039,-7.314911842346191,-4.483579158782959
1765883336567686100,1595.5686860351564,4.674842357635498,-7.32792854309082,-4.540672302246094
1765883336577696000,1595.5786960449218,4.582657337188721,-7.364535331726074,-4.57528829574585
1765883494275388400,1753.2763884277344,8.447040557861328,4.925421714782715,0.7470768690109253
1765883494285167600,1753.2861677246094,8.45827579498291,4.905517578125,0.7509031295776367
1765883494325084400,1753.3260844726562,8.83436107635498,4.159079074859619,0.909127950668335
1765883494365062700,1753.3660627441407,9.14711856842041,3.347996950149536,1.136457920074463
1765883494405040600,1753.4060405273437,9.320594787597656,2.733461380004883,1.3509587049484253
1765883494475017500,1753.476017578125,9.531901359558105,1.6670361757278442,1.5919266939163208
1765883494555004000,1753.55600390625,9.548620223999023,0.6211482882499695,2.1467220783233643
1765883494564983300,1753.5659833984375,9.549256324768066,0.4639204144477844,2.183314561843872
1765883494574993000,1753.5759929199219,9.549206733703613,0.29663389921188354,2.212477445602417
1765883494585002800,1753.5860026855469,9.544791221618652,0.13400843739509583,2.2470853328704834
1765883494594982000,1753.5959819335937,9.535892486572266,-0.014044965617358685,2.288435697555542
1765883494614971000,1753.6159709472656,9.521622657775879,-0.22719547152519226,2.336122989654541
1765883494624980700,1753.6259807128906,9.500360488891602,-0.4916481673717499,2.3815577030181885
1765883494634990600,1753.6359904785156,9.47932243347168,-0.6976932287216187,2.413724660873413
1765883494664958700,1753.6659587402344,9.413284301757812,-1.2258960008621216,2.461229085922241
1765883494674999000,1753.6759990234375,9.381077766418457,-1.409420132637024,2.485820770263672
1765883494684978400,1753.685978515625,9.324057579040527,-1.7204135656356812,2.5044987201690674
1765883494694957600,1753.6959575195312,9.275522232055664,-1.939695119857788,2.524413824081421
1765883494704967400,1753.705967529297,9.221452713012695,-2.1593940258026123,2.544052839279175
1765883494724956400,1753.7259562988281,9.141278266906738,-2.4521656036376953,2.567937135696411
1765883494734966000,1753.7359660644531,9.06209945678711,-2.7077460289001465,2.5916876792907715
1765883494744976000,1753.7459758300781,9.03580093383789,-2.7918701171875,2.594252347946167
1765883494754985700,1753.7559858398438,8.984968185424805,-2.9842729568481445,2.5563368797302246
1765883494764964900,1753.76596484375,8.925272941589355,-3.1905152797698975,2.5160481929779053
1765883494774944300,1753.7759443359375,8.82504653930664,-3.5119004249572754,2.4403903484344482
1765883494784984300,1753.785984375,8.7483491897583,-3.7267327308654785,2.3975489139556885
1765883494794994200,1753.795994140625,8.667724609375,-3.924776315689087,2.3742525577545166
1765883494814983200,1753.8159831542969,8.554457664489746,-4.174590587615967,2.358907461166382
1765883494824962600,1753.8259626464844,8.451803207397461,-4.399929046630859,2.3190605640411377
1765883494845012500,1753.8460124511719,8.362712860107422,-4.604086399078369,2.2445054054260254
1765883494854992000,1753.8559919433594,8.294938087463379,-4.764484405517578,2.1596477031707764
1765883494865001500,1753.8660014648437,8.26585865020752,-4.84246826171875,2.0967767238616943
1765883494874980900,1753.8759809570313,8.242629051208496,-4.9088454246521,2.0329017639160156
1765883494884960000,1753.8859599609375,8.220685958862305,-4.970539093017578,1.9709047079086304
1765883494895000300,1753.8960002441406,8.211220741271973,-4.998793125152588,1.9386323690414429
1765883494905010200,1753.9060102539063,8.194363594055176,-5.049117088317871,1.8786190748214722
1765883494924999200,1753.9259992675782,8.189095497131348,-5.105894088745117,1.74325692653656
1765883494934978300,1753.9359782714844,8.214094161987305,-5.082607269287109,1.6929665803909302
1765883494945018600,1753.9460185546875,8.232354164123535,-5.061801910400391,1.6664007902145386
1765883494955028500,1753.9560285644532,8.288094520568848,-4.993651866912842,1.594151258468628
1765883494965038000,1753.9660380859375,8.320334434509277,-4.955012798309326,1.5460474491119385
1765883494975048000,1753.9760478515625,8.333404541015625,-4.941702842712402,1.51800537109375
1765883494985027000,1753.9860270996094,8.351460456848145,-4.926564693450928,1.467123031616211
1765883494995067400,1753.9960673828125,8.373547554016113,-4.906503200531006,1.4072391986846924
1765883495005077200,1754.0060771484375,8.411142349243164,-4.86074686050415,1.3402290344238281
1765883495025096700,1754.0260966796875,8.57252311706543,-4.60921573638916,1.1989020109176636
1765883495035076000,1754.036076171875,8.641788482666016,-4.491402626037598,1.1476856470108032
1765883495045055200,1754.0460551757812,8.703444480895996,-4.381587505340576,1.1054999828338623
1765883495055034400,1754.0560344238281,8.758600234985352,-4.277429103851318,1.077457308769226
1765883495065013800,1754.066013671875,8.785223007202148,-4.225461006164551,1.0656973123550415
1765883495075023600,1754.0760236816407,8.837428092956543,-4.119110584259033,1.0503212213516235
1765883495085033200,1754.086033203125,8.888461112976074,-4.011144161224365,1.0374841690063477
1765883495095043000,1754.09604296875,8.942953109741211,-3.8913981914520264,1.025185227394104
1765883495105022200,1754.1060222167969,8.999774932861328,-3.7620890140533447,1.0105096101760864
1765883495115001600,1754.1160017089844,9.054426193237305,-3.6346096992492676,0.9886189699172974
1765883495145000200,1754.1460002441406,9.155807495117188,-3.3951528072357178,0.9025086760520935
1765883495155010000,1754.1560100097656,9.163272857666016,-3.3779773712158203,0.8911134004592896
1765883495165020000,1754.1660200195313,9.175930976867676,-3.3482396602630615,0.8729128837585449
1765883495175029500,1754.1760295410156,9.186711311340332,-3.322866439819336,0.856326162815094
1765883495185009000,1754.1860087890625,9.188614845275879,-3.320068597793579,0.8466872572898865
1765883495195018500,1754.1960185546875,9.18786907196045,-3.3237709999084473,0.8402308225631714
1765883495204998000,1754.2059978027344,9.186875343322754,-3.3270816802978516,0.8380013108253479
1765883495214946600,1754.2159465332031,9.185763359069824,-3.332723617553711,0.8277031779289246
1765883495224926000,1754.2259260253907,9.186379432678223,-3.332505702972412,0.8217197060585022
1765883495234874600,1754.2358745117187,9.186443328857422,-3.3371474742889404,0.80192631483078
1765883495264904000,1754.2659040527344,9.17426586151123,-3.3898489475250244,0.7156519293785095
1765883495274883000,1754.2758830566406,9.16417407989502,-3.4287338256835938,0.6573394536972046
1765883495284893000,1754.2858928222656,9.160801887512207,-3.441587209701538,0.636840283870697
1765883495294872000,1754.2958720703125,9.138118743896484,-3.514256477355957,0.5614097714424133
1765883495304882000,1754.3058818359375,9.128128051757812,-3.5440046787261963,0.5363827347755432
1765883495314891800,1754.3158918457032,9.09079647064209,-3.6489999294281006,0.46108943223953247
1765883495324931800,1754.3259318847656,9.077542304992676,-3.684612989425659,0.43845775723457336
1765883495354900200,1754.3559001464844,9.007999420166016,-3.862976551055908,0.3221050202846527
1765883495364910000,1754.36591015625,8.980896949768066,-3.927554130554199,0.2969862222671509
1765883495374889200,1754.3758891601562,8.936184883117676,-4.029129505157471,0.28478682041168213
1765883495384838000,1754.385837890625,8.904824256896973,-4.0975775718688965,0.2904210090637207
1765883495394847700,1754.39584765625,8.872475624084473,-4.166401386260986,0.30109935998916626
1765883495404796400,1754.4057963867187,8.84155559539795,-4.230953693389893,0.3103415369987488
1765883495414836700,1754.4158366699219,8.824738502502441,-4.265556812286377,0.31529462337493896
1765883495424846600,1754.4258466796875,8.786360740661621,-4.343687534332275,0.32035818696022034
1765883495484813600,1754.4858134765625,8.648384094238281,-4.613542079925537,0.301759272813797
1765883495494792700,1754.4957927246094,8.638398170471191,-4.632094383239746,0.30359336733818054
1765883495504802600,1754.5058024902344,8.620474815368652,-4.6656718254089355,0.2988331615924835
1765883495514843000,1754.5158427734375,8.614519119262695,-4.676721572875977,0.2978742718696594
1765883495524852500,1754.5258525390625,8.599445343017578,-4.7051100730896,0.28612083196640015
1765883495534831900,1754.5358317871094,8.594537734985352,-4.714335918426514,0.28168827295303345
1765883495544811000,1754.5458110351562,8.584077835083008,-4.73406982421875,0.26938992738723755
1765883495564800000,1754.5658000488281,8.560683250427246,-4.777703285217285,0.242165669798851
1765883495594768400,1754.5957683105469,8.496429443359375,-4.893975734710693,0.17345380783081055
1765883495604747500,1754.6057475585937,8.466113090515137,-4.946944236755371,0.1518189013004303
1765883495614787800,1754.6157878417969,8.429978370666504,-5.008993148803711,0.1258775144815445
1765883495624767200,1754.6257673339844,8.40259838104248,-5.055456161499023,0.09535861015319824
1765883495634776800,1754.6357768554687,8.357196807861328,-5.130929946899414,0.03461158648133278
1765883495644786700,1754.6457866210937,8.326851844787598,-5.180133819580078,-0.012187720276415348
1765883495674816000,1754.6758159179687,8.218332290649414,-5.3490166664123535,-0.13198110461235046
1765883495684825900,1754.6858259277344,8.187036514282227,-5.396012306213379,-0.16088643670082092
1765883495694835500,1754.6958354492187,8.160619735717773,-5.434948921203613,-0.18973961472511292
1765883495704845300,1754.7058452148437,8.137925148010254,-5.467853546142578,-0.2171102911233902
1765883495714824400,1754.7158244628906,8.127973556518555,-5.482063293457031,-0.23112653195858002
1765883495724834300,1754.7258342285156,8.105904579162598,-5.514037609100342,-0.24515753984451294
1765883495734813400,1754.7358134765625,8.094941139221191,-5.529998779296875,-0.24784663319587708
1765883495744823300,1754.7458232421875,8.090814590454102,-5.535908222198486,-0.25066477060317993
1765883495784801300,1754.7858012695312,8.032934188842773,-5.62164306640625,-0.1987248808145523
1765883495794780700,1754.7957807617188,8.0309419631958,-5.625000476837158,-0.18366818130016327
1765883495804820700,1754.8058208007812,8.031615257263184,-5.624271869659424,-0.1763867884874344
1765883495814830600,1754.8158305664062,8.028193473815918,-5.629369258880615,-0.16937661170959473
1765883495824810000,1754.8258100585938,8.022616386413574,-5.637411117553711,-0.16613544523715973
1765883495834819600,1754.8358195800781,7.991799831390381,-5.6805644035339355,-0.18087971210479736
1765883495844829400,1754.8458293457031,7.963840007781982,-5.7189178466796875,-0.20400486886501312
1765883495854839300,1754.8558393554688,7.91379451751709,-5.786258220672607,-0.24789778888225555
1765883495894847700,1754.89584765625,7.8820037841796875,-5.828677177429199,-0.26633214950561523
1765883495914836700,1754.9158366699219,7.855833530426025,-5.863775730133057,-0.26907530426979065
1765883495924846600,1754.9258466796875,7.83983039855957,-5.884884834289551,-0.27492403984069824
1765883495934856200,1754.9358562011719,7.824400424957275,-5.905121326446533,-0.2805216908454895
1765883495944835600,1754.9458356933594,7.816946983337402,-5.914633274078369,-0.28781887888908386
1765883495954876000,1754.9558759765625,7.806888580322266,-5.926493167877197,-0.31554216146469116
1765883495964824600,1754.9658244628906,7.746250629425049,-6.006490707397461,-0.29674336314201355
1765883495974803700,1754.9758037109375,7.695703029632568,-6.072072982788086,-0.276528537273407
1765883495994762200,1754.9957622070312,7.704503059387207,-6.058102607727051,-0.3322910666465759
1765883496004772000,1755.005772216797,7.707213401794434,-6.0555338859558105,-0.31584465503692627
1765883496014781700,1755.0157817382812,7.7224345207214355,-6.036736011505127,-0.30367520451545715
1765883496024761000,1755.0257609863281,7.739850997924805,-6.014150142669678,-0.30838000774383545
1765883496034740200,1755.035740234375,7.740617752075195,-6.010770320892334,-0.35194647312164307
1765883496044719600,1755.0457197265625,7.725716590881348,-6.023745536804199,-0.4451879560947418
1765883496054729200,1755.0557292480469,7.7289719581604,-6.019098281860352,-0.4514801800251007
1765883496064708600,1755.0657084960937,7.7436323165893555,-5.974607467651367,-0.7145745158195496
1765883496094707500,1755.0957075195313,7.592768669128418,-6.063327312469482,-1.3252627849578857
1765883496104686600,1755.1056865234375,7.275329113006592,-6.359252452850342,-1.6732850074768066
1765883496114665700,1755.1156657714844,7.160375118255615,-6.4587931632995605,-1.7842072248458862
1765883496124645000,1755.1256450195312,6.951545715332031,-6.601809978485107,-2.0645854473114014
1765883496134624300,1755.1356242675781,6.9101057052612305,-6.616550445556641,-2.154552936553955
1765883496144603600,1755.1456037597657,6.8633503913879395,-6.574521064758301,-2.4167096614837646
1765883496154613200,1755.15561328125,6.850205421447754,-6.556782245635986,-2.500736713409424
1765883496164592600,1755.1655925292969,6.7639665603637695,-6.551613807678223,-2.73779296875
1765883496174602200,1755.1756022949219,6.664543151855469,-6.592533111572266,-2.8797147274017334
1765883496214580500,1755.2155805664063,6.131302833557129,-6.924149990081787,-3.2609283924102783
1765883496224590000,1755.2255900878906,6.027532577514648,-6.9562764167785645,-3.383706569671631
1765883496234600000,1755.2355998535156,5.975473880767822,-6.959428310394287,-3.4684951305389404
1765883496244579000,1755.2455791015625,5.943089485168457,-6.963141441345215,-3.5163533687591553
1765883496254558500,1755.2555583496094,5.842504024505615,-6.990756034851074,-3.628342866897583
1765883496264537600,1755.2655375976562,5.747532367706299,-7.010740280151367,-3.739757776260376
1765883496274547500,1755.2755473632812,5.622959136962891,-7.032062530517578,-3.8862359523773193
1765883496284526600,1755.2855266113281,5.595608711242676,-7.00862455368042,-3.967205762863159
1765883496314556000,1755.3155559082031,5.52449369430542,-6.955790042877197,-4.15540075302124
1765883496324565800,1755.3255656738281,5.470941543579102,-6.955860137939453,-4.225539684295654
1765883496334575600,1755.3355756835938,5.452561855316162,-6.957925796508789,-4.245848178863525
1765883496344585200,1755.3455852050781,5.393538951873779,-6.9729132652282715,-4.296347141265869
1765883496354595000,1755.3555949707031,5.354752540588379,-6.986613750457764,-4.322526931762695
1765883496364604700,1755.3656047363281,5.3366475105285645,-6.9935994148254395,-4.333609580993652
1765883496374614500,1755.3756145019531,5.262407302856445,-7.037487030029297,-4.353303909301758
1765883496384624400,1755.3856242675781,5.204198837280273,-7.07851505279541,-4.356757164001465
1765883496424694000,1755.425694091797,4.946506023406982,-7.235926151275635,-4.398163318634033
1765883496434673200,1755.4356730957031,4.903695583343506,-7.259067058563232,-4.407960414886475
1765883496444683000,1755.4456831054688,4.8649091720581055,-7.289402008056641,-4.400870323181152
1765883496454662100,1755.455662109375,4.801872730255127,-7.351149559020996,-4.367265224456787
1765883496464672000,1755.4656721191407,4.763967037200928,-7.3901686668396,-4.342857837677002
1765883496474681600,1755.475681640625,4.7304205894470215,-7.428995132446289,-4.313182353973389
1765883496484661000,1755.4856608886719,4.716033935546875,-7.44454288482666,-4.302115440368652
1765883496494670600,1755.4956706542969,4.686252117156982,-7.480775356292725,-4.271703243255615
1765883496514659800,1755.5156599121094,4.627604961395264,-7.548468112945557,-4.216192722320557
1765883496524639000,1755.5256389160156,4.633647918701172,-7.517548561096191,-4.264523506164551
