time,seconds_elapsed,z,y,x
1765881739576162800,-1.422837158203125,0.004886921960860491,0.08185594528913498,0.19914206862449646
1765881739606192000,-1.392807861328125,0.019547687843441963,0.05497787147760391,-0.13439035415649414
1765881739616140800,-1.382859130859375,-0.00855211354792118,0.028099801391363144,-0.2174680233001709
1765881739626120000,-1.372880126953125,0.010995574295520782,0.05864306539297104,-0.14782938361167908
1765881739636068600,-1.362931396484375,0.0024434609804302454,0.045204028487205505,-0.05619960278272629
1765881739646048000,-1.352951904296875,0.00366519158706069,0.02321287989616394,-0.015882495790719986
1765881739666037000,-1.332962890625,0.006108652334660292,0.004886921960860491,-0.06719517707824707
1765881739675985700,-1.323014404296875,0.013439035043120384,0.0012217304902151227,-0.05742133408784866
1765881739695944200,-1.303055908203125,0.019547687843441963,-0.00366519158706069,-0.04153883829712868
1765881739705923600,-1.293076416015625,0.01710422709584236,-0.010995574295520782,-0.01466076634824276
1765881739715872300,-1.283127685546875,0.02076941914856434,-0.025656340643763542,0.03298672288656235
1765881739725851400,-1.273148681640625,0.02076941914856434,-0.025656340643763542,0.03298672288656235
1765881739735830800,-1.263169189453125,0.021991148591041565,-0.0354301854968071,0.05619960278272629
1765881739745840400,-1.25315966796875,0.025656340643763542,-0.04153883829712868,0.0403171069920063
1765881739755819800,-1.24318017578125,0.024434609338641167,-0.04642575979232788,0.009773843921720982
1765881739765860000,-1.233139892578125,0.019547687843441963,-0.04764748737215996,-0.012217304669320583
1765881739805838000,-1.193161865234375,-0.00733038317412138,-0.01710422709584236,0.03420845419168472
1765881739815847700,-1.18315234375,-0.00855211354792118,0.0024434609804302454,0.025656340643763542
1765881739825857500,-1.173142578125,-0.012217304669320583,0.019547687843441963,0.024434609338641167
1765881739835867400,-1.163132568359375,-0.018325956538319588,0.028099801391363144,0.04398229718208313
1765881739845846500,-1.153153564453125,-0.02076941914856434,0.03298672288656235,0.06841690838336945
1765881739855826000,-1.143174072265625,-0.015882495790719986,0.03298672288656235,0.07330382615327835
1765881739865835500,-1.13316455078125,-0.012217304669320583,0.028099801391363144,0.045204028487205505
1765881739875784200,-1.1232158203125,-0.010995574295520782,0.024434609338641167,0.015882495790719986
1765881739905722000,-1.09327783203125,-0.02321287989616394,0.045204028487205505,0.02932153269648552
1765881739915670800,-1.0833291015625,-0.024434609338641167,0.05375614017248154,0.0354301854968071
1765881739925680600,-1.0733193359375,-0.025656340643763542,0.05009094998240471,0.028099801391363144
1765881739945700000,-1.0532998046875,-0.021991148591041565,0.03787364438176155,0.006108652334660292
1765881739955710000,-1.0432900390625,-0.02076941914856434,0.02932153269648552,0.009773843921720982
1765881739965719600,-1.033280517578125,-0.024434609338641167,0.021991148591041565,0.009773843921720982
1765881739975699000,-1.023301025390625,-0.02687807008624077,0.01466076634824276,0.013439035043120384
1765881739985708500,-1.01329150390625,-0.03298672288656235,0.012217304669320583,0.02076941914856434
1765881740005697500,-0.993302490234375,-0.03420845419168472,0.009773843921720982,0.036651913076639175
1765881740025656000,-0.973343994140625,-0.025656340643763542,0.00733038317412138,0.018325956538319588
1765881740035604700,-0.963395263671875,-0.021991148591041565,0.010995574295520782,0.006108652334660292
1765881740045584100,-0.953415771484375,-0.02321287989616394,0.009773843921720982,0.00733038317412138
1765881740055563300,-0.943436767578125,-0.02076941914856434,0,0.02932153269648552
1765881740065573000,-0.933427001953125,-0.018325956538319588,-0.0024434609804302454,0.0403171069920063
1765881740075521800,-0.923478271484375,-0.018325956538319588,-0.0024434609804302454,0.03176499158143997
1765881740085531600,-0.91346826171875,-0.01710422709584236,-0.004886921960860491,0.010995574295520782
1765881740095510800,-0.9034892578125,-0.01466076634824276,0,-0.00855211354792118
1765881740105490200,-0.893509765625,-0.015882495790719986,-0.0024434609804302454,-0.02932153269648552
1765881740115438800,-0.88356103515625,-0.012217304669320583,-0.00733038317412138,-0.03787364438176155
1765881740125479200,-0.873520751953125,-0.015882495790719986,-0.00855211354792118,-0.036651913076639175
1765881740135488800,-0.86351123046875,-0.02321287989616394,-0.00855211354792118,-0.010995574295520782
1765881740155478000,-0.84352197265625,-0.019547687843441963,-0.00366519158706069,0.021991148591041565
1765881740165487600,-0.833512451171875,-0.01710422709584236,0.0024434609804302454,0.004886921960860491
1765881740175497500,-0.82350244140625,-0.01466076634824276,0.010995574295520782,-0.019547687843441963
1765881740185507300,-0.81349267578125,-0.015882495790719986,0.013439035043120384,-0.025656340643763542
1765881740195517000,-0.803483154296875,-0.013439035043120384,0.012217304669320583,0.0012217304902151227
1765881740215506000,-0.783494140625,-0.012217304669320583,0.012217304669320583,0.013439035043120384
1765881740225515800,-0.773484130859375,-0.0024434609804302454,0.0012217304902151227,0.012217304669320583
1765881740235495000,-0.763505126953125,0.004886921960860491,0.0012217304902151227,0.004886921960860491
1765881740245474300,-0.753525634765625,0.006108652334660292,0,-0.006108652334660292
1765881740255453400,-0.743546630859375,0.013439035043120384,-0.00733038317412138,-0.0012217304902151227
1765881740265432800,-0.733567138671875,0.018325956538319588,-0.006108652334660292,0.0012217304902151227
1765881740275442400,-0.7235576171875,0.015882495790719986,-0.004886921960860491,-0.009773843921720982
1765881740285421800,-0.713578125,0.009773843921720982,-0.00855211354792118,-0.013439035043120384
1765881740295401000,-0.70359912109375,0,-0.013439035043120384,-0.00855211354792118
1765881740325369300,-0.673630615234375,-0.0012217304902151227,-0.028099801391363144,-0.045204028487205505
1765881740335318000,-0.663681884765625,0.00366519158706069,-0.02932153269648552,-0.04886921867728233
1765881740345327900,-0.653672119140625,0.00366519158706069,-0.02932153269648552,-0.04886921867728233
1765881740355276500,-0.643723388671875,0.006108652334660292,-0.025656340643763542,-0.030543262138962746
1765881740365255700,-0.633744384765625,0.0012217304902151227,-0.019547687843441963,-0.006108652334660292
1765881740375265500,-0.623734375,0.006108652334660292,-0.018325956538319588,0.018325956538319588
1765881740385275400,-0.613724609375,0.01466076634824276,-0.018325956538319588,0.01710422709584236
1765881740395285000,-0.603715087890625,0.02076941914856434,-0.00733038317412138,-0.00733038317412138
1765881740415274000,-0.58372607421875,0.021991148591041565,0.006108652334660292,-0.02687807008624077
1765881740465292300,-0.533707763671875,0.019547687843441963,0.009773843921720982,0.004886921960860491
1765881740495291100,-0.503708984375,0.00733038317412138,0,0.006108652334660292
1765881740506301000,-0.492698974609375,0.0024434609804302454,-0.012217304669320583,0.01710422709584236
1765881740516310800,-0.482689208984375,-0.0012217304902151227,-0.02076941914856434,0.004886921960860491
1765881740526350800,-0.472649169921875,-0.0012217304902151227,-0.02076941914856434,-0.01710422709584236
1765881740536299800,-0.4627001953125,0,-0.025656340643763542,-0.021991148591041565
1765881740581313000,-0.41768701171875,0.0012217304902151227,-0.025656340643763542,0.00366519158706069
1765881740611251000,-0.3877490234375,0.013439035043120384,-0.02687807008624077,-0.019547687843441963
1765881740621230000,-0.37777001953125,0.012217304669320583,-0.018325956538319588,-0.028099801391363144
1765881740661208000,-0.3377919921875,-0.010995574295520782,-0.01466076634824276,0.009773843921720982
1765881740671156700,-0.32784326171875,-0.010995574295520782,-0.018325956538319588,0.028099801391363144
1765881740681166600,-0.31783349609375,-0.009773843921720982,-0.02321287989616394,0.013439035043120384
1765881740691176400,-0.307823486328125,-0.004886921960860491,-0.02321287989616394,-0.010995574295520782
1765881740701155600,-0.297844482421875,-0.00366519158706069,-0.012217304669320583,-0.024434609338641167
1765881740711135000,-0.287864990234375,-0.00855211354792118,-0.0024434609804302454,-0.015882495790719986
1765881740721114000,-0.277885986328125,-0.012217304669320583,-0.0012217304902151227,0.00855211354792118
1765881740731154400,-0.267845458984375,-0.013439035043120384,-0.00733038317412138,0.028099801391363144
1765881740741133600,-0.257866455078125,-0.00366519158706069,-0.006108652334660292,0.018325956538319588
1765881740751113000,-0.247886962890625,0.0024434609804302454,-0.00366519158706069,-0.012217304669320583
1765881740761153300,-0.2378466796875,0.004886921960860491,0.0012217304902151227,-0.018325956538319588
1765881740771163000,-0.227837158203125,0.00855211354792118,0.006108652334660292,0.02076941914856434
1765881740781203200,-0.217796875,0.004886921960860491,0.006108652334660292,0.051312681287527084
1765881740791182600,-0.2078173828125,0.004886921960860491,0.00366519158706069,0.0659734457731247
1765881740801161700,-0.19783837890625,0.00733038317412138,-0.00733038317412138,0.05619960278272629
1765881740811140900,-0.187859130859375,0.013439035043120384,-0.021991148591041565,0.03298672288656235
1765881740821150700,-0.177849365234375,0.019547687843441963,-0.03420845419168472,-0.006108652334660292
1765881740831130000,-0.167869873046875,0.019547687843441963,-0.04153883829712868,-0.03787364438176155
1765881740851149600,-0.147850341796875,0.004886921960860491,-0.03176499158143997,-0.010995574295520782
1765881740861128700,-0.137871337890625,-0.0012217304902151227,-0.02687807008624077,0.015882495790719986
1765881740871077600,-0.12792236328125,0.00366519158706069,-0.028099801391363144,0.024434609338641167
1765881740881087200,-0.117912841796875,0.010995574295520782,-0.025656340643763542,0.010995574295520782
1765881740901045800,-0.097954345703125,0.019547687843441963,-0.02321287989616394,-0.0403171069920063
1765881740910994400,-0.088005615234375,0.021991148591041565,-0.013439035043120384,-0.036651913076639175
1765881740921004300,-0.07799560546875,0.024434609338641167,0,-0.01710422709584236
1765881740931014100,-0.06798583984375,0.018325956538319588,0.00733038317412138,0.004886921960860491
1765881740970992000,-0.0280078125,0.015882495790719986,-0.02076941914856434,-0.019547687843441963
1765881740980971300,-0.01802880859375,0.012217304669320583,-0.015882495790719986,-0.03787364438176155
1765881740990981000,-0.008018798828125,0.00366519158706069,-0.00855211354792118,-0.04153883829712868
1765881741000960300,0.001960205078125,-0.006108652334660292,0.0012217304902151227,-0.03420845419168472
1765881741010939600,0.011939697265625,-0.00855211354792118,0.00733038317412138,-0.019547687843441963
1765881741020980000,0.02197998046875,-0.009773843921720982,0.0024434609804302454,-0.00733038317412138
1765881741030989600,0.031989501953125,-0.010995574295520782,-0.0024434609804302454,-0.0024434609804302454
1765881741040999400,0.04199951171875,-0.010995574295520782,-0.013439035043120384,-0.00855211354792118
1765881741050978600,0.051978515625,-0.00733038317412138,-0.02321287989616394,-0.01710422709584236
1765881741060988400,0.061988525390625,-0.006108652334660292,-0.02932153269648552,-0.02687807008624077
1765881741070967600,0.071967529296875,-0.00366519158706069,-0.0354301854968071,-0.02321287989616394
1765881741080947000,0.081947021484375,0,-0.03787364438176155,-0.018325956538319588
1765881741090956500,0.09195654296875,0.00733038317412138,-0.03420845419168472,-0.02076941914856434
1765881741100936000,0.10193603515625,0.009773843921720982,-0.02687807008624077,-0.02932153269648552
1765881741110945800,0.11194580078125,0.012217304669320583,-0.02076941914856434,-0.028099801391363144
1765881741120925000,0.121925048828125,0.013439035043120384,-0.01710422709584236,-0.015882495790719986
1765881741130934800,0.131934814453125,0.012217304669320583,-0.013439035043120384,-0.010995574295520782
1765881741140944400,0.1419443359375,0.013439035043120384,-0.01710422709584236,-0.006108652334660292
1765881741160933400,0.161933349609375,0.012217304669320583,-0.021991148591041565,0.0024434609804302454
1765881741170943200,0.171943115234375,0.010995574295520782,-0.025656340643763542,0.0012217304902151227
1765881741180953000,0.181953125,0.009773843921720982,-0.030543262138962746,-0.004886921960860491
1765881741190932200,0.19193212890625,0.01466076634824276,-0.03298672288656235,-0.01710422709584236
1765881741200911600,0.20191162109375,0.01710422709584236,-0.03420845419168472,-0.02932153269648552
1765881741210890800,0.211890869140625,0.01710422709584236,-0.02932153269648552,-0.04153883829712868
1765881741220900600,0.221900634765625,0.01466076634824276,-0.021991148591041565,-0.04886921867728233
1765881741230879700,0.231879638671875,0.00855211354792118,-0.009773843921720982,-0.04764748737215996
1765881741240920000,0.241920166015625,0.00366519158706069,-0.00733038317412138,-0.036651913076639175
1765881741270857700,0.271857666015625,0.004886921960860491,-0.009773843921720982,0.01466076634824276
1765881741290877400,0.29187744140625,0.00733038317412138,-0.012217304669320583,0.02076941914856434
1765881741300856600,0.301856689453125,0.009773843921720982,-0.010995574295520782,0.013439035043120384
1765881741310835700,0.311835693359375,0.010995574295520782,-0.012217304669320583,0.0012217304902151227
1765881741320845600,0.321845458984375,0.013439035043120384,-0.019547687843441963,-0.012217304669320583
1765881741330824700,0.33182470703125,0.01710422709584236,-0.024434609338641167,-0.01466076634824276
1765881741350783200,0.351783203125,0.015882495790719986,-0.01710422709584236,-0.004886921960860491
1765881741380812500,0.3818125,0.006108652334660292,-0.024434609338641167,0.00733038317412138
1765881741390822400,0.391822509765625,0.004886921960860491,-0.028099801391363144,-0.009773843921720982
1765881741400832300,0.401832275390625,0.004886921960860491,-0.028099801391363144,-0.02687807008624077
1765881741410841900,0.411841796875,0.0012217304902151227,-0.028099801391363144,-0.02932153269648552
1765881741420851700,0.421851806640625,-0.006108652334660292,-0.030543262138962746,-0.01710422709584236
1765881741430861600,0.431861572265625,-0.00855211354792118,-0.03298672288656235,-0.00366519158706069
1765881741440840700,0.4418408203125,-0.00855211354792118,-0.03298672288656235,-0.00733038317412138
1765881741450850600,0.4518505859375,-0.0024434609804302454,-0.028099801391363144,-0.02321287989616394
1765881741460860200,0.461860107421875,0.00366519158706069,-0.013439035043120384,-0.03787364438176155
1765881741480879900,0.4818798828125,0.004886921960860491,0.00733038317412138,-0.00366519158706069
1765881741510878500,0.51187841796875,0.006108652334660292,0.00366519158706069,0.03298672288656235
1765881741520857900,0.52185791015625,0.004886921960860491,-0.0024434609804302454,0.013439035043120384
1765881741530867500,0.531867431640625,0.006108652334660292,-0.0012217304902151227,-0.0024434609804302454
1765881741540877300,0.541877197265625,0.006108652334660292,0.006108652334660292,-0.00855211354792118
1765881741550887200,0.55188720703125,0,0.006108652334660292,0.0024434609804302454
1765881741560896800,0.561896728515625,-0.00366519158706069,0.004886921960860491,0.018325956538319588
1765881741570906600,0.57190673828125,-0.006108652334660292,0.00366519158706069,0.024434609338641167
1765881741590956500,0.59195654296875,-0.0024434609804302454,-0.013439035043120384,-0.0012217304902151227
1765881741610976300,0.611976318359375,-0.0012217304902151227,-0.02076941914856434,-0.02321287989616394
1765881741620955400,0.621955322265625,-0.006108652334660292,-0.019547687843441963,-0.018325956538319588
1765881741630965200,0.63196533203125,-0.009773843921720982,-0.021991148591041565,-0.00855211354792118
1765881741640944400,0.6419443359375,-0.00733038317412138,-0.028099801391363144,0.009773843921720982
1765881741650923800,0.651923828125,-0.00855211354792118,-0.024434609338641167,0.018325956538319588
1765881741660933400,0.661933349609375,-0.012217304669320583,-0.02076941914856434,0.025656340643763542
1765881741670912800,0.671912841796875,-0.00855211354792118,-0.021991148591041565,0.0354301854968071
1765881741680922400,0.68192236328125,-0.00733038317412138,-0.02321287989616394,0.030543262138962746
1765881741690932200,0.69193212890625,-0.006108652334660292,-0.025656340643763542,0.009773843921720982
1765881741700942000,0.701942138671875,-0.0024434609804302454,-0.025656340643763542,-0.00733038317412138
1765881741710951700,0.71195166015625,-0.004886921960860491,-0.02321287989616394,-0.013439035043120384
1765881741720961500,0.72196142578125,-0.006108652334660292,-0.024434609338641167,-0.015882495790719986
1765881741730940700,0.731940673828125,0,-0.021991148591041565,-0.019547687843441963
1765881741740950500,0.741950439453125,-0.0012217304902151227,-0.009773843921720982,-0.03298672288656235
1765881741750960400,0.75196044921875,-0.010995574295520782,0.0012217304902151227,-0.03420845419168472
1765881741760970000,0.761969970703125,-0.021991148591041565,0.006108652334660292,-0.0024434609804302454
1765881741770979800,0.771979736328125,-0.019547687843441963,0.0012217304902151227,0.02687807008624077
1765881741810957800,0.811957763671875,-0.00366519158706069,-0.0024434609804302454,-0.03176499158143997
1765881741820967700,0.8219677734375,-0.00855211354792118,0.013439035043120384,-0.00366519158706069
1765881741830977500,0.8319775390625,-0.010995574295520782,0.025656340643763542,0.02076941914856434
1765881741840956700,0.841956787109375,-0.00733038317412138,0.03176499158143997,0.02932153269648552
1765881741850966500,0.851966552734375,-0.00855211354792118,0.030543262138962746,0.024434609338641167
1765881741860976000,0.86197607421875,-0.010995574295520782,0.025656340643763542,0.021991148591041565
1765881741870955500,0.87195556640625,-0.00733038317412138,0.024434609338641167,0.030543262138962746
1765881741880965000,0.881965087890625,-0.009773843921720982,0.02687807008624077,0.02076941914856434
1765881741910903000,0.911903076171875,-0.00733038317412138,-0.013439035043120384,-0.025656340643763542
1765881741920912600,0.92191259765625,-0.00366519158706069,-0.018325956538319588,-0.04398229718208313
1765881741930892000,0.93189208984375,-0.00366519158706069,-0.015882495790719986,-0.045204028487205505
1765881741940901600,0.941901611328125,-0.00366519158706069,-0.015882495790719986,-0.045204028487205505
1765881741950881000,0.951881103515625,-0.006108652334660292,-0.00733038317412138,-0.021991148591041565
1765881741960890600,0.961890625,-0.00733038317412138,0.0024434609804302454,0.00855211354792118
1765881741970900500,0.971900390625,-0.006108652334660292,0.00733038317412138,0.018325956538319588
1765881741980910300,0.981910400390625,0,0.006108652334660292,0.0024434609804302454
1765881741990889500,0.991889404296875,0.006108652334660292,0.010995574295520782,-0.013439035043120384
1765881742000868900,1.001868896484375,0.012217304669320583,0.02076941914856434,-0.00855211354792118
1765881742010848000,1.011847900390625,0.009773843921720982,0.025656340643763542,0.012217304669320583
1765881742020888300,1.021888427734375,0.00855211354792118,0.02932153269648552,0.030543262138962746
1765881742030867500,1.031867431640625,0.006108652334660292,0.03298672288656235,0.03420845419168472
1765881742040877300,1.041877197265625,0.00733038317412138,0.0354301854968071,0.02076941914856434
1765881742050887200,1.05188720703125,0.00733038317412138,0.036651913076639175,0.010995574295520782
1765881742060896800,1.061896728515625,-0.0024434609804302454,0.03298672288656235,0.00733038317412138
1765881742070906600,1.07190673828125,-0.00366519158706069,0.02687807008624077,0.006108652334660292
1765881742080885800,1.0818857421875,-0.0024434609804302454,0.02321287989616394,-0.00366519158706069
1765881742090865200,1.091865234375,-0.0024434609804302454,0.01710422709584236,-0.018325956538319588
1765881742120833300,1.121833251953125,0.018325956538319588,-0.00855211354792118,-0.04398229718208313
1765881742130812700,1.131812744140625,0.03176499158143997,-0.01710422709584236,-0.06719517707824707
1765881742140791800,1.141791748046875,0.04886921867728233,-0.030543262138962746,-0.09529497474431992
1765881742150771200,1.151771240234375,0.07208210229873657,-0.05009094998240471,-0.1258382350206375
1765881742160780800,1.16178076171875,0.12095131725072861,-0.09285151958465576,-0.15882496535778046
1765881742170790700,1.171790771484375,0.1966986060142517,-0.16737708449363708,-0.24190263450145721
1765881742180800500,1.181800537109375,0.2932153046131134,-0.26145032048225403,-0.394618958234787
1765881742220809000,1.22180908203125,0.988379955291748,-0.7318165898323059,-1.5247195959091187
1765881742230818800,1.23181884765625,1.2229522466659546,-0.8319984674453735,-1.86191725730896
1765881742240798000,1.2417978515625,1.4220943450927734,-0.9395107626914978,-2.172236919403076
1765881742250777300,1.25177734375,1.5968017578125,-1.047023057937622,-2.422691583633423
1765881742260787000,1.261786865234375,1.7666223049163818,-1.1655309200286865,-2.5815165042877197
1765881742280745500,1.281745361328125,2.0696115493774414,-1.4208725690841675,-2.8600711822509766
1765881742290724600,1.291724609375,2.2088887691497803,-1.5332717895507812,-3.076317310333252
1765881742300704000,1.3017041015625,2.3347270488739014,-1.6688838005065918,-3.3878586292266846
1765881742320693000,1.32169287109375,2.5363125801086426,-1.9706512689590454,-4.195422649383545
1765881742330672000,1.331672119140625,2.6108381748199463,-2.1514673233032227,-4.713436126708984
1765881742340712400,1.34171240234375,2.669481039047241,-2.353052854537964,-5.255884647369385
1765881742350661400,1.351661376953125,2.702467918395996,-2.5216517448425293,-5.793446063995361
1765881742360671000,1.3616708984375,2.693915843963623,-2.6279423236846924,-6.208834171295166
1765881742370680800,1.371680908203125,2.6364943981170654,-2.668259382247925,-6.460510730743408
1765881742380721200,1.38172119140625,2.5033257007598877,-2.6841418743133545,-6.476393222808838
1765881742390700300,1.3917001953125,2.337170362472534,-2.687807083129883,-6.217386245727539
1765881742400710100,1.401710205078125,2.185675859451294,-2.65726375579834,-5.809328556060791
1765881742430739500,1.431739501953125,1.7751743793487549,-2.3848178386688232,-4.728096961975098
1765881742440718600,1.441718505859375,1.653001308441162,-2.29440975189209,-4.555832862854004
1765881742450728400,1.451728515625,1.5173892974853516,-2.2211060523986816,-4.4006733894348145
1765881742460738000,1.461738037109375,1.4098769426345825,-2.12703275680542,-4.2613959312438965
1765881742470748000,1.471747802734375,1.3194689750671387,-2.0476202964782715,-4.175874710083008
1765881742480757800,1.4817578125,1.1997393369674683,-1.9559905529022217,-4.153883457183838
1765881742490737000,1.49173681640625,1.0946705341339111,-1.8374826908111572,-4.0854668617248535
1765881742500746800,1.501746826171875,1.0775662660598755,-1.7385225296020508,-3.9742891788482666
1765881742510726000,1.511725830078125,1.037249207496643,-1.6591099500656128,-3.9767327308654785
1765881742540724700,1.541724853515625,0.5534439086914062,-1.4208725690841675,-4.040262699127197
1765881742550703900,1.551703857421875,0.4288274049758911,-1.3475687503814697,-3.7531561851501465
1765881742560683300,1.561683349609375,0.3139847218990326,-1.281595230102539,-3.4269540309906006
1765881742570692900,1.57169287109375,0.21135938167572021,-1.2107349634170532,-3.128851890563965
1765881742580733200,1.581733154296875,0.21135938167572021,-1.2107349634170532,-3.128851890563965
1765881742590643000,1.591642822265625,0.10751228034496307,-1.1264355182647705,-2.9443705081939697
1765881742600652800,1.60165283203125,-0.006108652334660292,-1.0225883722305298,-2.8234190940856934
1765881742610662700,1.61166259765625,-0.1111774742603302,-0.9150761365890503,-2.6474900245666504
1765881742650549000,1.651549072265625,-0.5827654600143433,-0.5265658497810364,-1.4795156717300415
1765881742680578300,1.681578369140625,-0.7367035150527954,-0.2272418737411499,-1.370781660079956
1765881742690588200,1.691588134765625,-0.7159340381622314,-0.1270599663257599,-1.2315043210983276
1765882370205387800,629.2063876953125,-0.00366519158706069,-0.004886921960860491,-0.00366519158706069
1765882370215397600,629.2163977050782,0.10384709388017654,-0.04642575979232788,-0.48380526900291443
1765882370225376800,629.2263767089844,0.23579397797584534,-0.0403171069920063,0.07330382615327835
1765882370284544000,629.2855439453125,-0.4105014503002167,-0.4691445231437683,-0.3591887652873993
1765882370314512100,629.3155122070312,-0.41661009192466736,-0.6047565937042236,-0.750142514705658
1765882370324460800,629.3254606933593,-0.4190535545349121,-0.646295428276062,-0.807563841342926
1765882370344419300,629.3454194335937,-0.4178318381309509,-0.6401867866516113,-0.46670106053352356
1765882370394437600,629.3954377441406,-0.5656611919403076,-0.6230825781822205,0.4899139404296875
1765882370444425500,629.4454255371094,-0.5717698931694031,-0.788016140460968,0.455705463886261
1765882370524351000,629.5253510742187,0.19914206862449646,-0.6682865619659424,-0.3396410644054413
1765882370564298500,629.5652985839844,0.7550294399261475,-0.7134906053543091,-1.6285667419433594
1765882370574278000,629.5752778320312,1.017701506614685,-0.817337691783905,-2.0366246700286865
1765882370624235000,629.6252351074219,2.6597073078155518,-1.6823228597640991,-3.389080286026001
1765882370724149500,629.7251494140625,5.27665376663208,-0.8881980776786804,-3.2253684997558594
1765882583167991600,842.1689914550781,0.09285151958465576,-0.04153883829712868,-0.48869219422340393
1765882583197321000,842.1983210449218,0.485027015209198,0.2626720666885376,0.7648032903671265
1765882583226958600,842.2279584960937,0.6731734871864319,0.769690215587616,1.047023057937622
1765882583256896500,842.257896484375,0.5766568183898926,0.4605923891067505,0.2687807083129883
1765882583326781700,842.3277817382813,0.45814892649650574,0.3481931984424591,0.40194934606552124
1765882583396667000,842.3976669921875,-0.00855211354792118,0.02687807008624077,0.13439035415649414
1765882583416656000,842.4176557617187,0.03298672288656235,-0.02932153269648552,0.09896016865968704
1765882583446593800,842.44759375,0.14416420459747314,0.019547687843441963,0.5412266254425049
1765882583486571800,842.4875717773438,0.030543262138962746,0.4801400899887085,1.5259413719177246
1765882583506560800,842.5075607910156,-0.09162978827953339,0.4495968222618103,1.1362093687057495
1765882583516570600,842.5175705566406,-0.14782938361167908,0.39217549562454224,0.8539896011352539
1765882583576507100,842.5775070800781,-0.3982841372489929,-0.18448130786418915,0.3604104816913605
1765882583596465700,842.5974655761719,-0.616973876953125,-0.10751228034496307,0.2932153046131134
1765882583606414300,842.6074143066406,-0.8051204085350037,0.1368338167667389,0.5448917746543884
1765882583616454700,842.6174545898438,-0.7782423496246338,0.39217549562454224,1.4294246435165405
1765882583636413200,842.6374130859375,-0.6951646208763123,0.6426302194595337,1.6175711154937744
1765882583646361900,842.6473618164063,-0.5595525503158569,0.6585127115249634,1.0787880420684814
1765882583656402200,842.6574020996094,-0.3066543638706207,0.6890559792518616,0.5656611919403076
1765882583666381300,842.6673813476563,-0.4288274049758911,0.5681046843528748,-0.01710422709584236
1765882583676360400,842.6773603515625,0.024434609338641167,0.455705463886261,0.2528982162475586
1765882583686339800,842.68733984375,0.2822197377681732,0.34086281061172485,0.5742133259773254
1765882583696349700,842.697349609375,0.5925393104553223,0.3225368559360504,0.22479841113090515
1765882583706298400,842.7072983398438,0.6585127115249634,0.22113321721553802,-0.37262779474258423
1765882583716277500,842.7172775878906,0.8112290501594543,0.013439035043120384,-0.8698720932006836
1765882583726257000,842.7272568359375,0.8344419002532959,-0.23945917189121246,-1.3255776166915894
1765882583736266500,842.7372666015625,0.8527678847312927,-0.45326200127601624,-1.843591332435608
1765882583756286200,842.7572861328125,0.675616979598999,-0.66584312915802,-2.7207937240600586
1765882583766235000,842.7672348632813,0.5681046843528748,-0.6414085030555725,-2.9663615226745605
1765882583776244500,842.7772443847656,0.44715335965156555,-0.5375614166259766,-2.7562239170074463
1765882583786193400,842.787193359375,0.44715335965156555,-0.5375614166259766,-2.7562239170074463
1765882583796172500,842.7971726074219,0.3396410644054413,-0.3885102868080139,-2.026850938796997
1765882583806152000,842.8071518554688,0.2064724564552307,-0.19058994948863983,-1.1032226085662842
1765882583816161500,842.8171616210938,0.02076941914856434,0.08429940044879913,-0.3066543638706207
1765882583856048000,842.8570480957031,-0.3225368559360504,0.33108896017074585,-0.5742133259773254
1765882583866027300,842.86702734375,-0.4092797040939331,0.3127630054950714,-1.36955988407135
1765882583895995600,842.8969956054688,-0.4447098970413208,0.1417207419872284,-0.6414085030555725
1765882583906005200,842.9070051269531,-0.37751471996307373,0.16493362188339233,-0.12217304855585098
1765882583915954200,842.9169541015625,-0.31642818450927734,0.21502456068992615,0.18814650177955627
1765882583925902800,842.9269028320313,-0.29565876722335815,0.19425514340400696,0.11972958594560623
1765882583945891800,842.9468918457031,-0.2968805134296417,0.06841690838336945,-0.1368338167667389
1765882583965820000,842.9668198242188,-0.10018189996480942,-0.20036379992961884,-0.45692721009254456
1765882583975829500,842.9768295898438,-0.0708603709936142,-0.3591887652873993,-0.8723155856132507
1765882583985809000,842.9868088378906,-0.03298672288656235,-0.4948008358478546,-1.3426817655563354
1765882583995818500,842.9968186035156,-0.04642575979232788,-0.5754350423812866,-1.7886134386062622
1765882584005767400,843.0067673339844,-0.06475171446800232,-0.6536257863044739,-2.068389654159546
1765882584015777000,843.0167770996094,-0.06719517707824707,-0.7061602473258972,-2.116037130355835
1765882584025725700,843.0267255859375,-0.13072516024112701,-0.7220427393913269,-2.026850938796997
1765882584035735600,843.0367355957031,-0.2125810980796814,-0.7024950385093689,-1.901012659072876
1765882584055755000,843.0567551269531,-0.16004669666290283,-0.7281513810157776,-1.3817771673202515
1765882584065734400,843.066734375,-0.10873401165008545,-0.7049384713172913,-1.292590856552124
1765882584075744000,843.0767438964843,-0.11362093687057495,-0.6475171446800232,-1.379333734512329
1765882584095702500,843.0967026367188,-0.07330382615327835,-0.5082398653030396,-1.243721604347229
1765882584105682000,843.1066818847656,-0.024434609338641167,-0.41661009192466736,-1.0225883722305298
1765882584115661000,843.1166611328125,0.04153883829712868,-0.3090978264808655,-0.8515461683273315
1765882584125640400,843.1266403808594,0.09773843735456467,-0.21380282938480377,-0.8405506014823914
1765882584135650000,843.1366501464844,0.12461651116609573,-0.13072516024112701,-0.9272934198379517
1765882584165618400,843.1666184082031,0.1160643994808197,-0.06108652427792549,-0.7513642311096191
1765882584175628000,843.1766279296875,0.1160643994808197,-0.03787364438176155,-0.5387831330299377
1765882584185607400,843.186607421875,0.09162978827953339,-0.00366519158706069,-0.33719760179519653
1765882584195586600,843.1965866699219,0.04398229718208313,0.02321287989616394,-0.18081611394882202
1765882584205566000,843.2065659179688,0,0.06230825558304787,-0.08552113175392151
1765882584215575600,843.2165754394531,-0.03298672288656235,0.0757472887635231,-0.09529497474431992
1765882584225524500,843.2265244140625,-0.04153883829712868,0.07208210229873657,-0.16004669666290283
1765882584235503600,843.2365036621094,-0.028099801391363144,0.045204028487205505,-0.19792033731937408
1765882584245483000,843.2464829101563,-0.0024434609804302454,0.00855211354792118,-0.1514945775270462
1765882584275481600,843.2764816894531,0.0403171069920063,-0.04398229718208313,0.05253441259264946
1765882584285461000,843.2864609375,0.03176499158143997,-0.05009094998240471,-0.019547687843441963
1765882584295470600,843.296470703125,0.010995574295520782,-0.07330382615327835,-0.04153883829712868
1765882584305450000,843.3064499511719,-0.03787364438176155,-0.1014036312699318,-0.009773843921720982
1765882584315429000,843.3164291992188,-0.045204028487205505,-0.10873401165008545,-0.05619960278272629
1765882584325408500,843.3264084472656,-0.03420845419168472,-0.10384709388017654,-0.18448130786418915
1765882584335418000,843.3364182128906,-0.02321287989616394,-0.09285151958465576,-0.33108896017074585
1765882584345397500,843.3463974609375,-0.019547687843441963,-0.015882495790719986,-0.2590068578720093
1765882584355376600,843.3563767089844,-0.0024434609804302454,0.05864306539297104,0.0708603709936142
1765882584365356000,843.3663559570313,0.03420845419168472,0.09529497474431992,0.45692721009254456
1765882584395293700,843.3962937011719,0.01466076634824276,0.15515977144241333,0.6841690540313721
1765882584405272800,843.4062729492188,0.00733038317412138,0.17104226350784302,0.5229006409645081
1765882584415282700,843.4162827148438,0.039095375686883926,0.1820378452539444,0.3885102868080139
1765882584425261800,843.42626171875,0.07696902006864548,0.18325957655906677,0.3335324227809906
1765882584435241200,843.4362412109375,0.06475171446800232,0.14049901068210602,0.27977627515792847
1765882584445220400,843.4462204589844,0.02321287989616394,0.06230825558304787,0.2724458873271942
1765882584455199700,843.4561997070313,0.04886921867728233,0.04764748737215996,0.3237585723400116
1765882584465209300,843.4662092285156,0.10995574295520782,0.1160643994808197,0.40194934606552124
1765882584505187600,843.5061875,0.24190263450145721,0.16249015927314758,0.807563841342926
1765882584515197200,843.516197265625,0.20891591906547546,0.07696902006864548,0.7049384713172913
1765882584525176600,843.5261765136719,0.18081611394882202,-0.0024434609804302454,0.48258355259895325
1765882584535217000,843.536216796875,0.16004669666290283,-0.0354301854968071,0.2981022298336029
1765882584545165600,843.5461655273438,0.12828169763088226,-0.03176499158143997,0.34086281061172485
1765882584555144700,843.5561447753906,0.12339477986097336,0.00366519158706069,0.5949827432632446
1765882584565124000,843.5661240234375,0.11362093687057495,0.06963863968849182,0.921184778213501
1765882584575103200,843.5761032714844,0.0403171069920063,0.13805554807186127,1.0005972385406494
1765882584595092200,843.5960922851563,-0.11972958594560623,0.21991148591041565,0.8845328688621521
1765882584605071600,843.6060715332031,-0.1771509200334549,0.2883284091949463,0.9773843884468079
1765882584615050800,843.61605078125,-0.2272418737411499,0.3604104816913605,1.1740829944610596
1765882584625030000,843.6260297851562,-0.28588494658470154,0.38728857040405273,1.351233959197998
1765882584635039700,843.6360397949219,-0.2638937830924988,0.37262779474258423,1.519832730293274
1765882584645019100,843.6460190429688,-0.2626720666885376,0.3445279896259308,1.6468926668167114
1765882584655028700,843.6560288085938,-0.3090978264808655,0.3433062732219696,1.7592918872833252
1765882584665008000,843.6660080566406,-0.3237585723400116,0.3579670190811157,1.8545868396759033
1765882584675017700,843.6760178222656,-0.27122417092323303,0.35674530267715454,1.7873916625976562
1765882584704986000,843.7059860839844,-0.25045475363731384,0.025656340643763542,0.19914206862449646
1765882584714934800,843.7159348144531,-0.2565633952617645,-0.11239920556545258,-0.39217549562454224
1765882584724914000,843.7259138183593,-0.20891591906547546,-0.24923302233219147,-0.6719517707824707
1765882584734923800,843.735923828125,-0.3078760802745819,-0.3591887652873993,-0.769690215587616
1765882584744872400,843.7458725585938,-0.38240164518356323,-0.49357911944389343,-0.8063421249389648
1765882584754851800,843.7558518066406,-0.3433062732219696,-0.504574716091156,-0.6401867866516113
1765882584764831000,843.7658310546875,-0.3335324227809906,-0.5326744914054871,-0.8136724829673767
1765882584774840800,843.7758408203125,-0.34208452701568604,-0.5314527750015259,-1.2669345140457153
1765882584794860300,843.7958603515625,-0.5400048494338989,-0.4508185386657715,-1.9755382537841797
1765882584804809000,843.8058090820313,-0.6133087277412415,-0.4092797040939331,-1.9730947017669678
1765882584814818800,843.8158188476563,-0.7024950385093689,-0.3677408695220947,-2.074498414993286
1765882584824798000,843.8257978515625,-0.6389650702476501,-0.35552358627319336,-1.958433985710144
1765882584834807800,843.8358078613281,-0.5852088928222656,-0.33597588539123535,-1.6701055765151978
1765882584844787200,843.845787109375,-0.5216789245605469,-0.2981022298336029,-1.2901474237442017
1765882584854796800,843.855796875,-0.5192354321479797,-0.26511552929878235,-1.0348057746887207
1765882584864776200,843.8657761230469,-0.4996877610683441,-0.25045475363731384,-0.9187413454055786
1765882584874724900,843.8757248535156,-0.4386012554168701,-0.19914206862449646,-0.9896016716957092
1765882584884704000,843.8857041015625,-0.3225368559360504,-0.14049901068210602,-1.0543533563613892
1765882584904693000,843.9056928710937,-0.19058994948863983,-0.03176499158143997,-1.1178834438323975
1765882584924651500,843.9256516113281,-0.08429940044879913,0.039095375686883926,-0.6487388610839844
1765882584934661400,843.9356613769531,-0.08918632566928864,-0.010995574295520782,-0.608421802520752
1765882584944640500,843.945640625,-0.08185594528913498,-0.07208210229873657,-0.7269296646118164
1765882584954650400,843.955650390625,-0.1062905490398407,-0.11972958594560623,-0.6976081132888794
1765882584964660200,843.96566015625,-0.17470745742321014,-0.1514945775270462,-0.35185837745666504
1765882584974700300,843.9757001953125,-0.19303341209888458,-0.1514945775270462,0.30543261766433716
1765882584984679700,843.9856796875,-0.16859880089759827,-0.10751228034496307,0.7110471725463867
1765882584994658800,843.9956589355469,-0.16859880089759827,-0.10751228034496307,0.7110471725463867
1765882585014617300,844.0156174316406,-0.12339477986097336,-0.21380282938480377,-0.6010913848876953
1765882585044524500,844.0455246582031,0.12339477986097336,-0.3188716471195221,-1.4966198205947876
1765882585054534400,844.0555344238281,0.16371189057826996,-0.27977627515792847,-1.1606439352035522
1765882585064544300,844.0655441894531,0.14416420459747314,-0.23579397797584534,-0.6572909951210022
1765882585074553900,844.0755539550781,0.2064724564552307,-0.13072516024112701,-0.1466076523065567
1765882585084502800,844.0855026855469,0.2590068578720093,-0.08552113175392151,0.0659734457731247
1765882585094512400,844.0955124511719,0.3323107063770294,-0.07208210229873657,0.02687807008624077
1765882585104491800,844.1054916992188,0.4129449129104614,-0.0659734457731247,-0.25045475363731384
1765882585134490400,844.1354904785156,0.4398229718208313,0.05253441259264946,-0.8906415104866028
1765882585144469800,844.1454697265625,0.4288274049758911,0.10018189996480942,-0.6352998614311218
1765882585164458800,844.1654587402344,0.40072759985923767,0.21380282938480377,0.20036379992961884
1765882585174499000,844.1754990234375,0.47280970215797424,0.2064724564552307,0.5070181488990784
1765882585184478200,844.1854782714844,0.5778785347938538,0.20402899384498596,0.43737950921058655
1765882585194457600,844.1954575195313,0.6291912198066711,0.19914206862449646,0.01466076634824276
1765882585204436700,844.2054367675781,0.6597344875335693,0.1319468915462494,-0.5729916095733643
1765882585214446600,844.2154465332031,0.7257078886032104,0.051312681287527084,-0.8943067193031311
1765882585234405000,844.2354050292969,0.8894197940826416,-0.09407325088977814,-0.7428121566772461
1765882585244384300,844.2453842773438,0.8197811841964722,-0.028099801391363144,-0.5571091175079346
1765882585254363400,844.25536328125,0.6792821288108826,0.059864792972803116,-0.40072759985923767
1765882585264312300,844.2653122558594,0.5473352670669556,0.07941248267889023,-0.3176499307155609
1765882585274352600,844.2753525390625,0.45204028487205505,0.08429940044879913,-0.3628539443016052
1765882585284331800,844.2853317871094,0.35185837745666504,0.05375614017248154,-0.6206390857696533
1765882585304290300,844.3052902832031,0.06108652427792549,-0.013439035043120384,-0.6023131608963013
1765882585314269400,844.31526953125,-0.05253441259264946,-0.01710422709584236,-0.06719517707824707
1765882585344237800,844.3452377929688,-0.2981022298336029,0.06841690838336945,0.4605923891067505
1765882585354217000,844.3552170410156,-0.4056145250797272,0.09651670604944229,-0.02076941914856434
1765882585364196400,844.3651962890625,-0.44593164324760437,0.1417207419872284,-0.34574973583221436
1765882585374206000,844.3752060546875,-0.37262779474258423,0.16371189057826996,-0.43127086758613586
1765882585384185300,844.3851853027344,-0.33719760179519653,0.1563815027475357,-0.4740314185619354
1765882585394195000,844.3951948242187,-0.22846360504627228,0.07819075137376785,-0.5119050741195679
1765882585404174300,844.4051743164063,-0.08185594528913498,0.00733038317412138,-0.6255260109901428
1765882585414153500,844.4151535644531,0.02687807008624077,-0.05497787147760391,-0.7024950385093689
1765882585424102100,844.4251020507812,0.07819075137376785,-0.10995574295520782,-0.5693264007568359
1765882585464049700,844.4650495605468,0.21502456068992615,-0.37629300355911255,-0.7061602473258972
1765882585474029000,844.4750290527344,0.20036379992961884,-0.4190535545349121,-1.246165156364441
1765882585484008200,844.4850083007813,0.1771509200334549,-0.4434881806373596,-1.3463469743728638
1765882585494018000,844.4950180664063,0.12339477986097336,-0.4398229718208313,-1.0115928649902344
1765882585503997200,844.5049970703125,0.051312681287527084,-0.42149701714515686,-0.485027015209198
1765882585513976600,844.5149765625,0.024434609338641167,-0.33475416898727417,-0.018325956538319588
1765882585523955700,844.5249558105469,-0.02687807008624077,-0.2174680233001709,0.22602014243602753
1765882585533935000,844.5349350585938,-0.12095131725072861,-0.006108652334660292,0.37629300355911255
1765882585573913000,844.5749130859375,-0.05742133408784866,0.25045475363731384,0.8955284357070923
1765882585583892200,844.5848923339844,-0.00733038317412138,0.23457226157188416,0.6621779203414917
1765882585593871600,844.5948715820313,-0.00733038317412138,0.23457226157188416,0.6621779203414917
1765882585603850800,844.6048508300781,0.025656340643763542,0.2480112910270691,0.5534439086914062
1765882585613860600,844.6148605957031,0.09896016865968704,0.2626720666885376,0.8723155856132507
1765882585623839700,844.62483984375,0.2431243658065796,0.22113321721553802,1.4330898523330688
1765882585633819100,844.6348190917969,0.35185837745666504,0.2480112910270691,2.1038198471069336
1765882585663787300,844.6647873535156,0.013439035043120384,0.455705463886261,2.5864033699035645
1765882585673766700,844.6747666015625,-0.15515977144241333,0.42638394236564636,2.29440975189209
1765882585683745800,844.6847458496094,-0.24678955972194672,0.3494149148464203,1.9804251194000244
1765882585693755600,844.6947556152344,-0.2773328125476837,0.21380282938480377,1.6664403676986694
1765882585703734800,844.7047348632813,-0.32986724376678467,0.012217304669320583,1.3060299158096313
1765882585723693300,844.724693359375,-0.4447098970413208,-0.36529740691185,-0.010995574295520782
1765882585733672700,844.7346726074219,-0.46303585171699524,-0.4544837474822998,-0.513126790523529
1765882585743651800,844.7446518554688,-0.3677408695220947,-0.5070181488990784,-0.5485569834709167
1765882585753600500,844.7546005859375,-0.21624629199504852,-0.5363397002220154,-0.25534167885780334
1765882585763580000,844.7645798339844,-0.09285151958465576,-0.5265658497810364,0.02321287989616394
1765882585773589500,844.7745895996094,-0.0659734457731247,-0.4239404797554016,0.10873401165008545
1765882585783599400,844.7845993652344,-0.17592918872833252,-0.2968805134296417,0.05375614017248154
1765882585793609200,844.7946091308594,-0.28466320037841797,-0.13561208546161652,0.21868975460529327
1765882585803588400,844.8045883789063,-0.24923302233219147,-0.028099801391363144,0.6621779203414917
1765882585813537000,844.814537109375,-0.16737708449363708,-0.030543262138962746,0.9651671051979065
1765882585823516400,844.8245163574219,-0.08796459436416626,-0.05864306539297104,0.8234463334083557
1765882585843475000,844.8444748535156,0.039095375686883926,-0.5424483418464661,-0.8381071090698242
1765882585863433200,844.8644331054687,-0.2223549485206604,-1.1203268766403198,-2.009746551513672
1765882585873473500,844.8744736328125,-0.08552113175392151,-1.3072515726089478,-1.4648548364639282
1765882585883422200,844.8844221191406,0.00855211354792118,-1.4306464195251465,-0.9627236127853394
1765882585893432000,844.8944321289063,0.036651913076639175,-1.5234979391098022,-0.9199630618095398
1765882585903411500,844.9044113769531,-0.02932153269648552,-1.6371188163757324,-1.3964380025863647
1765882585913421000,844.9144211425781,-0.0757472887635231,-1.6725490093231201,-1.8374826908111572
1765882585923400400,844.924400390625,-0.03298672288656235,-1.6200146675109863,-1.7250834703445435
1765882585933410000,844.93441015625,0.12461651116609573,-1.5137240886688232,-1.0836749076843262
1765882585943420000,844.944419921875,0.3078760802745819,-1.480737328529358,-0.5998696684837341
1765882585953399000,844.9543989257812,0.37262779474258423,-1.303586483001709,-0.7281513810157776
1765882585973327000,844.9743271484375,0.740368664264679,-0.8038986921310425,-0.08674286305904388
1765882585993255200,844.9942551269531,0.96883225440979,-0.1563815027475357,0.2736676335334778
1765882586003234300,845.004234375,0.7757988572120667,-0.06230825558304787,0.03420845419168472
1765882586013244200,845.014244140625,0.7098253965377808,0.042760565876960754,0.2773328125476837
1765882586023223300,845.0242233886719,0.5167919993400574,0.05497787147760391,0.5143485069274902
1765882586033263600,845.034263671875,0.3701843321323395,-0.02321287989616394,0.21013765037059784
1765882586043243000,845.0442429199219,0.18081611394882202,-0.19914206862449646,-0.8527678847312927
1765882586053222100,845.0542221679688,0.04153883829712868,-0.2919935882091522,-1.7018705606460571
1765882586063201300,845.064201171875,-0.024434609338641167,-0.29077184200286865,-1.5919147729873657
1765882586083159800,845.0841599121094,-0.4043927788734436,-0.1661553531885147,-1.1606439352035522
1765882586093139200,845.0941391601563,-0.6414085030555725,-0.15393804013729095,-1.607797384262085
1765882586103118300,845.1041184082031,-0.8161159753799438,-0.06475171446800232,-1.9914207458496094
1765882586113097700,845.11409765625,-0.9944885969161987,0.10751228034496307,-2.0952677726745605
1765882586123076900,845.1240769042969,-1.1410962343215942,0.3090978264808655,-1.8594738245010376
1765882586133025500,845.1340256347656,-1.1753047704696655,0.4642575979232788,-1.4391984939575195
1765882586143005000,845.1440048828125,-1.1313223838806152,0.5876523852348328,-0.9175195693969727
1765882586152984000,845.1539841308594,-0.978606104850769,0.7024950385093689,-0.28588494658470154
1765883017139430400,1276.1404304199218,0.09529497474431992,-0.036651913076639175,-0.5119050741195679
1765883017149309700,1276.150309814453,0.14416420459747314,-0.06963863968849182,-0.02687807008624077
1765883017159150000,1276.1601501464843,-0.08918632566928864,-0.08674286305904388,-0.2382374405860901
1765883017178808600,1276.17980859375,-1.1081095933914185,0.1869247704744339,-2.1502456665039062
1765883017198797600,1276.199797607422,-1.1850786209106445,0.7012733221054077,-2.2907447814941406
1765883017208807200,1276.2098071289063,-1.1606439352035522,0.9004153609275818,-2.0036380290985107
1765883017218817000,1276.219817138672,-1.1704177856445312,1.0934487581253052,-1.6578882932662964
1765883017228796200,1276.2297961425782,-1.1997393369674683,1.197295904159546,-1.3658946752548218
1765883017238806000,1276.2398059082032,-1.2290608882904053,1.2754865884780884,-1.205847978591919
1765883017248846300,1276.249846435547,-1.3060299158096313,1.3243558406829834,-1.2009611129760742
1765883017308782800,1276.3097829589844,-1.23394775390625,1.226617455482483,-2.744006633758545
1765883017398596000,1276.3995961914063,-1.4440854787826538,1.0213667154312134,-0.7525860071182251
1765883017458532600,1276.4595327148438,-1.4611896276474,0.41661009192466736,0.13072516024112701
1765883017468511700,1276.46951171875,-1.359786033630371,0.4239404797554016,0.4740314185619354
1765883017548406800,1276.5494067382813,-1.026253581047058,0.1514945775270462,0.04153883829712868
1765883017558416600,1276.559416748047,-0.9810495972633362,0.1111774742603302,0.2370157092809677
1765883017568395800,1276.5693957519532,-0.9395107626914978,0.004886921960860491,0.32620203495025635
1765883017578375200,1276.5793752441407,-0.8833111524581909,-0.1270599663257599,0.25045475363731384
1765883017588354300,1276.589354248047,-0.8625417351722717,-0.2480112910270691,0.13927727937698364
1765883017598364200,1276.5993642578126,-0.8991936445236206,-0.3604104816913605,0.12828169763088226
1765883017608343300,1276.6093432617188,-0.960280179977417,-0.4447098970413208,0.2638937830924988
1765883017628301800,1276.6293017578125,-0.9627236127853394,-0.5949827432632446,0.6524040699005127
1765883017638281200,1276.63928125,-0.9944885969161987,-0.6316346526145935,0.6866125464439392
1765883017648260400,1276.6492602539063,-1.0348057746887207,-0.6572909951210022,0.7428121566772461
1765883017678259200,1276.6792592773438,-1.016479730606079,-0.8649851679801941,0.4495968222618103
1765883017688238300,1276.68923828125,-1.0042624473571777,-0.9358455538749695,0.23457226157188416
1765883303119829200,1562.1208293457032,0.12095131725072861,-0.04642575979232788,-0.47769662737846375
1765883303149597700,1562.15059765625,0.6340781450271606,-0.04153883829712868,0.019547687843441963
1765883303159377000,1562.160376953125,0.7709119319915771,-0.02076941914856434,0.21624629199504852
1765883303169186600,1562.1701865234375,0.8356636762619019,-0.042760565876960754,0.3836233615875244
1765883303179166000,1562.180166015625,0.7024950385093689,-0.1160643994808197,0.3689626157283783
1765883303189175600,1562.1901755371093,0.7086036801338196,-0.1563815027475357,0.5693264007568359
1765883303199185400,1562.2001853027343,0.6927211880683899,-0.22968533635139465,0.6743952035903931
1765883303209195300,1562.2101953125,0.7305948138237,-0.41172316670417786,0.6352998614311218
1765883303219113500,1562.2201135253906,0.7428121566772461,-0.6475171446800232,0.6499606370925903
1765883303229092600,1562.2300925292968,0.7293730974197388,-0.8552113175392151,0.6243042945861816
1765883303239071700,1562.2400717773437,0.7623597979545593,-0.9590584635734558,0.49357911944389343
1765883303249020700,1562.2500207519531,0.8063421249389648,-0.9712757468223572,0.4178318381309509
1765883303258999800,1562.2599997558593,0.836885392665863,-0.9871582388877869,0.4056145250797272
1765883303269009700,1562.270009765625,0.8246681094169617,-1.0128145217895508,0.4202753007411957
1765883303298977800,1562.299977783203,0.8063421249389648,-0.9639453291893005,0.4593706727027893
1765883303388882700,1562.3898825683593,0.2675589919090271,0.4960225820541382,0.13316862285137177
1765883303398861800,1562.3998618164062,0.1869247704744339,0.6548475623130798,0.12950342893600464
1765883303458768000,1562.4597678222656,0.0012217304902151227,-0.015882495790719986,0.05253441259264946
1765883303498776600,1562.4997766113281,0.1612684279680252,-1.2657127380371094,-0.30543261766433716
1765883303508755700,1562.5097556152343,0.24434609711170197,-1.585806131362915,-0.38606682419776917
1765883303528744700,1562.5297446289062,0.294437050819397,-1.7324138879776,-0.4202753007411957
1765883303588681200,1562.5896811523437,0.2993239760398865,0.05864306539297104,-0.4495968222618103
1765883303648617700,1562.6496176757812,0.07941248267889023,0.2932153046131134,-0.26633724570274353
1765883303678555400,1562.6795554199218,0.02687807008624077,0.05009094998240471,-0.16982053220272064
1765883303728512800,1562.7295126953125,-0.07452555745840073,-0.2822197377681732,-0.4300491213798523
1765883303778470100,1562.7794702148437,-0.3481931984424591,0.17837265133857727,0.2125810980796814
1765883303798459100,1562.7994592285156,-0.19547687470912933,0.17837265133857727,-0.039095375686883926
1765883303848416300,1562.8494162597656,-0.07941248267889023,0.5387831330299377,-0.05375614017248154
1765883303858395600,1562.8593957519531,-0.17592918872833252,0.6682865619659424,0.2064724564552307
1765883303868405200,1562.8694052734375,-0.2724458873271942,0.8246681094169617,0.5424483418464661
1765883303878384600,1562.8793845214843,-0.3628539443016052,0.9566149711608887,0.8222246170043945
1765883303888363800,1562.8893637695312,-0.39706242084503174,1.1032226085662842,0.960280179977417
1765883303898343200,1562.8993432617187,-0.4031710624694824,1.2583824396133423,0.8393288254737854
1765883303918332200,1562.9193322753906,-0.12461651116609573,0.7819074988365173,0.2626720666885376
1765883303928311300,1562.9293112792968,-0.1771509200334549,0.6646214127540588,0.2321287989616394
1765883303938321200,1562.9393210449218,-0.06963863968849182,0.45814892649650574,0.22846360504627228
1765883303948300300,1562.9493002929687,0.03420845419168472,0.26145032048225403,0.18936823308467865
1765883303958279700,1562.9592797851562,0.0403171069920063,0.15271630883216858,0.2480112910270691
1765883303968289300,1562.9692893066406,0.045204028487205505,0.1270599663257599,0.3237585723400116
1765883303978268700,1562.9792685546875,0.010995574295520782,0.00366519158706069,0.38728857040405273
1765883303988247800,1562.9892478027343,-0.08307767659425735,-0.17348572611808777,0.36529740691185
1765883303998227200,1562.9992272949219,-0.20402899384498596,-0.32131510972976685,0.4178318381309509
1765883304018185700,1563.0191857910156,-0.17104226350784302,-0.6120869517326355,0.2687807083129883
1765883304028195300,1563.0291953125,-0.1466076523065567,-0.5253441333770752,0.15760323405265808
1765883304038174700,1563.0391748046875,-0.24068090319633484,-0.4349360466003418,0.251676470041275
1765883304048184300,1563.0491843261718,-0.24678955972194672,-0.35185837745666504,0.4056145250797272
1765883304058194200,1563.0591940917968,-0.26511552929878235,-0.21380282938480377,0.5314527750015259
1765883304068204000,1563.0692041015625,-0.24068090319633484,-0.045204028487205505,0.5265658497810364
1765883304078152700,1563.0791525878906,-0.24068090319633484,-0.045204028487205505,0.5265658497810364
1765883304088162600,1563.0891625976562,-0.17104226350784302,0.1111774742603302,0.45204028487205505
1765883304098111200,1563.099111328125,0.0403171069920063,0.05619960278272629,0.17592918872833252
1765883304108090400,1563.1090903320312,0.0403171069920063,0.05619960278272629,0.17592918872833252
1765883304128049000,1563.129048828125,-0.036651913076639175,0.004886921960860491,0.2577851414680481
1765883304138028000,1563.1390280761718,-0.03787364438176155,-0.0806342139840126,0.3066543638706207
1765883304148007400,1563.1490073242187,-0.06719517707824707,-0.17959438264369965,0.2785545587539673
1765883304157956000,1563.1589560546875,-0.05619960278272629,-0.2028072625398636,0.22968533635139465
1765883304167935500,1563.168935546875,-0.02687807008624077,-0.21624629199504852,0.22968533635139465
1765883304177914600,1563.1789145507812,0.05742133408784866,-0.20891591906547546,0.16493362188339233
1765883304187924500,1563.1889245605469,0.06475171446800232,-0.23090706765651703,0.1014036312699318
1765883304197903600,1563.198903564453,0.05619960278272629,-0.2321287989616394,0.17837265133857727
1765883304207913500,1563.2089135742187,0.07208210229873657,-0.21380282938480377,0.3176499307155609
1765883304227872000,1563.2288720703125,0.26633724570274353,-0.4202753007411957,-0.18570303916931152
1765883304237851100,1563.2388510742187,0.2590068578720093,-0.4043927788734436,-0.3066543638706207
1765883304247830500,1563.2488305664062,0.2528982162475586,-0.35063666105270386,-0.28955012559890747
1765883304257809700,1563.2588095703125,0.2321287989616394,-0.27977627515792847,-0.18570303916931152
1765883304267788800,1563.2687888183593,0.13927727937698364,-0.21013765037059784,0.0757472887635231
1765883304277768200,1563.2787683105469,0.015882495790719986,-0.21624629199504852,0.22846360504627228
1765883304287808500,1563.28880859375,0.024434609338641167,-0.2822197377681732,0.27977627515792847
1765883304297787600,1563.2987875976562,0.05253441259264946,-0.3787364661693573,0.17837265133857727
1765883304307797500,1563.3087976074219,0.08796459436416626,-0.48747047781944275,0.03787364438176155
1765883304347714600,1563.3487145996094,0.1014036312699318,-0.34697145223617554,0.14294247329235077
1765883304367703600,1563.3687036132812,0.26022860407829285,0.03298672288656235,0.2919935882091522
1765883304377682700,1563.3786826171875,0.3274237811565399,0.08185594528913498,0.06841690838336945
1765883304387661800,1563.3886618652343,0.3689626157283783,0.036651913076639175,-0.02321287989616394
1765883304397641200,1563.3986411132812,0.35185837745666504,0.024434609338641167,-0.09285151958465576
1765883304407681500,1563.408681640625,0.32986724376678467,0.010995574295520782,-0.26511552929878235
1765883304417691100,1563.4186911621093,0.34086281061172485,-0.03420845419168472,-0.27488934993743896
1765883304437680400,1563.4386804199219,0.20402899384498596,-0.1258382350206375,0.31031954288482666
1765883304447690000,1563.4486899414062,0.27122417092323303,-0.08918632566928864,0.3335324227809906
1765883304457669400,1563.4586694335937,0.3176499307155609,-0.11362093687057495,0.06352998316287994
1765883304467679000,1563.468678955078,0.2590068578720093,-0.17837265133857727,-0.1612684279680252
1765883304477658400,1563.4786584472656,0.18081611394882202,-0.2223549485206604,-0.14538592100143433
1765883304487637500,1563.4886374511718,0.10995574295520782,-0.3078760802745819,0.05864306539297104
1765883304497617000,1563.4986169433594,0.021991148591041565,-0.43737950921058655,0.3127630054950714
1765883304507596000,1563.5085959472656,-0.030543262138962746,-0.4813618063926697,0.43615779280662537
1765883304517575200,1563.5185751953125,-0.03787364438176155,-0.4508185386657715,0.26145032048225403
1765883304527585000,1563.5285849609375,-0.05864306539297104,-0.36651915311813354,-0.01710422709584236
1765883304537533700,1563.5385336914062,-0.15515977144241333,-0.3384193480014801,-0.08307767659425735
1765883304567563000,1563.5685629882812,-0.15393804013729095,0.010995574295520782,0.12339477986097336
1765883304577572900,1563.5785727539062,-0.07941248267889023,0.05009094998240471,-0.09773843735456467
1765883304587582700,1563.5885827636719,-0.1160643994808197,0.05375614017248154,-0.25534167885780334
1765883304597561900,1563.598561767578,-0.15760323405265808,0.019547687843441963,-0.29565876722335815
1765883304607571700,1563.6085717773437,-0.25045475363731384,-0.07452555745840073,-0.22602014243602753
1765883304617550800,1563.61855078125,-0.38728857040405273,-0.304210901260376,-0.14294247329235077
1765883304627530000,1563.6285300292968,-0.5057964324951172,-0.5180137157440186,0.08674286305904388
1765883304637509400,1563.6385092773437,-0.5632177591323853,-0.5497786998748779,0.2883284091949463
1765883304657498400,1563.6584982910156,-0.598647952079773,-0.588874101638794,0.16859880089759827
1765883304667538700,1563.6685385742187,-0.6939429044723511,-0.7012733221054077,0.11239920556545258
1765883304677487400,1563.6784873046875,-0.7782423496246338,-0.789237916469574,0.15760323405265808
1765883304687466800,1563.688466796875,-0.7782423496246338,-0.789237916469574,0.15760323405265808
1765883304697446000,1563.6984458007812,-0.8295549750328064,-0.7745771408081055,0.28955012559890747
1765883304707455700,1563.7084558105469,-0.8295549750328064,-0.7745771408081055,0.28955012559890747
1765883304717435000,1563.718434814453,-0.7953465580940247,-0.8002334833145142,0.2125810980796814
1765883304727444700,1563.7284448242187,-0.7195992469787598,-0.7953465580940247,0.11239920556545258
1765883304777341000,1563.7783408203125,-0.36529740691185,-0.513126790523529,-0.29077184200286865
1765883304787350800,1563.7883508300781,-0.3066543638706207,-0.36163222789764404,-0.28466320037841797
1765883304797330000,1563.7983298339843,-0.2675589919090271,-0.23090706765651703,-0.4447098970413208
1765883304807339800,1563.80833984375,-0.24923302233219147,-0.10751228034496307,-0.48869219422340393
1765883304817319000,1563.8183188476562,-0.1869247704744339,-0.02687807008624077,-0.3530801236629486
1765883304827328800,1563.8283288574219,-0.11362093687057495,0.05253441259264946,-0.22602014243602753
1765883304837308000,1563.838307861328,-0.04642575979232788,0.11239920556545258,-0.2223549485206604
1765883304867276300,1563.8682763671875,-0.010995574295520782,0.2015855312347412,-0.4105014503002167
1765883304877286000,1563.8782858886718,-0.059864792972803116,0.21135938167572021,-0.3481931984424591
1765883304887265300,1563.8882653808594,-0.13805554807186127,0.13561208546161652,-0.2321287989616394
1765883304897244400,1563.8982443847656,-0.2076941877603531,0.01710422709584236,0.051312681287527084
1765883304907254300,1563.9082541503906,-0.22357667982578278,-0.10262536257505417,0.2932153046131134
1765883304917264000,1563.9182639160156,-0.17837265133857727,-0.22479841113090515,0.30054569244384766
1765883304927273700,1563.9282736816406,-0.13805554807186127,-0.3384193480014801,0.17104226350784302
1765883304937222400,1563.9382224121093,-0.12950342893600464,-0.44226643443107605,0.12339477986097336
1765883304967190800,1563.968190673828,-0.09651670604944229,-0.455705463886261,0.4031710624694824
1765883304977200600,1563.9782006835937,-0.00366519158706069,-0.43127086758613586,0.1966986060142517
1765883304987210200,1563.988210205078,0.039095375686883926,-0.39584067463874817,0.04642575979232788
1765883304997189600,1563.9981896972656,0.05619960278272629,-0.33719760179519653,-0.0012217304902151227
1765883305007199200,1564.00819921875,0.036651913076639175,-0.27977627515792847,-0.04398229718208313
1765883305017209000,1564.018208984375,-0.028099801391363144,-0.22357667982578278,-0.00733038317412138
1765883305027219000,1564.0282189941406,-0.09162978827953339,-0.1563815027475357,0.16249015927314758
1765883305037167600,1564.0381677246094,-0.12095131725072861,-0.051312681287527084,0.2064724564552307
1765883305047177200,1564.0481772460937,-0.13927727937698364,0.05619960278272629,0.16249015927314758
1765883305067135700,1564.0681357421875,-0.14416420459747314,0.15515977144241333,0.24923302233219147
1765883305077115100,1564.078115234375,-0.1270599663257599,0.18448130786418915,0.22113321721553802
1765883305087124700,1564.0881247558593,-0.09162978827953339,0.18936823308467865,0.17837265133857727
1765883305097134600,1564.0981345214843,-0.03787364438176155,0.17470745742321014,0.1514945775270462
1765883305107144400,1564.10814453125,-0.00366519158706069,0.15393804013729095,0.12217304855585098
1765883305117123600,1564.1181235351562,0.024434609338641167,0.13805554807186127,0.06475171446800232
1765883305127133400,1564.1281335449219,0.05253441259264946,0.11728613078594208,0
1765883305137082000,1564.13808203125,0.05742133408784866,0.08185594528913498,-0.030543262138962746
1765883305147092000,1564.1480920410156,0.05497787147760391,0.04886921867728233,-0.00855211354792118
1765883305157071000,1564.1580710449218,0.06841690838336945,0.018325956538319588,0.0354301854968071
1765883305187070000,1564.1880700683594,0.045204028487205505,0.06475171446800232,0.03420845419168472
1765883305197049000,1564.1980490722656,0.006108652334660292,0.06841690838336945,0.08552113175392151
1765883305207059000,1564.2080588378906,-0.02076941914856434,0.0806342139840126,0.1514945775270462
1765883305217038000,1564.2180380859375,-0.018325956538319588,0.0806342139840126,0.17104226350784302
1765883305227048000,1564.2280478515625,-0.00855211354792118,0.09651670604944229,0.17959438264369965
1765883305237027000,1564.2380270996093,0.006108652334660292,0.13439035415649414,0.18570303916931152
1765883305247037000,1564.2480368652343,0.030543262138962746,0.17837265133857727,0.1514945775270462
1765883305257046800,1564.258046875,0.05497787147760391,0.2272418737411499,0.12339477986097336
1765883305286923500,1564.2879235839844,0.1368338167667389,0.2883284091949463,-0.00366519158706069
1765883305296902700,1564.2979025878906,0.14416420459747314,0.2932153046131134,-0.02076941914856434
1765883305306881800,1564.3078818359375,0.14416420459747314,0.2932153046131134,-0.02076941914856434
1765883305316891600,1564.3178916015625,0.15027284622192383,0.2968805134296417,-0.025656340643763542
1765883305326932000,1564.3279318847656,0.1771509200334549,0.3127630054950714,-0.042760565876960754
1765883305336941800,1564.3379418945312,0.2028072625398636,0.3323107063770294,-0.05864306539297104
1765883305346921000,1564.3479208984375,0.22113321721553802,0.34574973583221436,-0.08185594528913498
1765883305356900400,1564.357900390625,0.2321287989616394,0.3579670190811157,-0.08429940044879913
1765883305386899000,1564.3878989257812,0.18448130786418915,0.4813618063926697,0.00855211354792118
1765883305396908800,1564.3979086914062,0.14905111491680145,0.48258355259895325,0.02076941914856434
1765883305416958700,1564.4179587402343,0.10384709388017654,0.4740314185619354,0.0708603709936142
1765883305426938000,1564.4279382324219,0.07696902006864548,0.44837507605552673,0.0806342139840126
1765883305436947700,1564.4379477539062,0.04398229718208313,0.42271876335144043,0.1014036312699318
1765883305446927000,1564.447927001953,0.00855211354792118,0.37262779474258423,0.11362093687057495
1765883305456906200,1564.45790625,-0.00855211354792118,0.32009339332580566,0.1111774742603302
1765883305466916000,1564.467916015625,-0.030543262138962746,0.2785545587539673,0.028099801391363144
1765883305486966300,1564.4879663085937,-0.14049901068210602,0.10262536257505417,0.019547687843441963
1765883305496945400,1564.4979453125,-0.21013765037059784,0.00733038317412138,0.14416420459747314
1765883305506955300,1564.5079553222656,-0.2528982162475586,-0.04764748737215996,0.2015855312347412
1765883305516934400,1564.5179343261718,-0.27977627515792847,-0.09896016865968704,0.16004669666290283
1765883305526913500,1564.5279135742187,-0.2968805134296417,-0.17470745742321014,0.11728613078594208
1765883305536893000,1564.5378928222656,-0.32009339332580566,-0.2541199326515198,0.08674286305904388
1765883305546902800,1564.5479028320312,-0.3225368559360504,-0.294437050819397,0.10995574295520782
1765883305556882000,1564.5578818359375,-0.28955012559890747,-0.2981022298336029,0.09896016865968704
1765883305566922200,1564.5679221191406,-0.2382374405860901,-0.3017674386501312,-0.010995574295520782
1765883305596890400,1564.5978903808593,-0.12217304855585098,-0.4141666293144226,-0.27977627515792847
1765883305606900200,1564.6079001464843,-0.10751228034496307,-0.485027015209198,-0.2932153046131134
1765883305616910000,1564.61791015625,-0.08429940044879913,-0.5448917746543884,-0.2773328125476837
1765883305626919700,1564.6279196777343,-0.05619960278272629,-0.5632177591323853,-0.2834414839744568
1765883305636838000,1564.637837890625,-0.04153883829712868,-0.5143485069274902,-0.28466320037841797
1765883305646908700,1564.6479086914062,-0.024434609338641167,-0.4691445231437683,-0.3029891550540924
1765883305656888000,1564.6578881835937,-0.02687807008624077,-0.4386012554168701,-0.25534167885780334
1765883305676846600,1564.6778466796875,-0.06719517707824707,-0.4386012554168701,-0.1722639948129654
1765883305686825700,1564.6878256835937,-0.09040805697441101,-0.4202753007411957,-0.05375614017248154
1765883305736752600,1564.7377526855469,-0.00366519158706069,-0.3982841372489929,0.12095131725072861
1765883305746762200,1564.7477622070312,-0.025656340643763542,-0.41661009192466736,0.1820378452539444
1765883305756741600,1564.7577416992187,-0.06719517707824707,-0.4337143301963806,0.21135938167572021
1765883305766751200,1564.767751220703,-0.11728613078594208,-0.4764748811721802,0.2382374405860901
1765883305776730600,1564.7777307128906,-0.14905111491680145,-0.5326744914054871,0.2480112910270691
1765883305786709800,1564.7877097167968,-0.16737708449363708,-0.5693264007568359,0.23090706765651703
1765883305796689200,1564.7976892089844,-0.1722639948129654,-0.6340781450271606,0.2125810980796814
1765883305806698800,1564.8076987304687,-0.19303341209888458,-0.7281513810157776,0.21868975460529327
1765883305816678100,1564.8176782226562,-0.23335053026676178,-0.8148942589759827,0.2871066629886627
1765883305826687700,1564.8276877441406,-0.27488934993743896,-0.8930850028991699,0.2736676335334778
1765883305836667100,1564.8376672363281,-0.33719760179519653,-0.9749409556388855,0.19914206862449646
1765883305846676700,1564.8476767578125,-0.39584067463874817,-0.9932668805122375,0.26022860407829285
1765883305856656100,1564.85765625,-0.4031710624694824,-0.911410927772522,0.27488934993743896
1765883305866665700,1564.8676657714843,-0.34574973583221436,-0.7831292152404785,0.16737708449363708
1765883305876645000,1564.8776450195312,-0.27488934993743896,-0.6743952035903931,0.0757472887635231
1765883305886685400,1564.887685546875,-0.19792033731937408,-0.607200026512146,-0.02321287989616394
1765883305896664600,1564.8976645507812,-0.1466076523065567,-0.5534439086914062,-0.03176499158143997
1765883305906644000,1564.9076440429687,-0.1062905490398407,-0.5290092825889587,0.05009094998240471
1765883305946560800,1564.9475607910156,-0.013439035043120384,-0.5742133259773254,0.26511552929878235
1765883305956540200,1564.9575400390625,-0.039095375686883926,-0.5974262356758118,0.34697145223617554
1765883305966549800,1564.9675498046875,-0.05619960278272629,-0.5778785347938538,0.4202753007411957
1765883305976529200,1564.9775290527343,-0.08918632566928864,-0.5448917746543884,0.42271876335144043
1765883305986539000,1564.9875390625,-0.1514945775270462,-0.5277875661849976,0.41661009192466736
1765883305996548600,1564.9975485839843,-0.19914206862449646,-0.5277875661849976,0.4642575979232788
1765883306006528000,1565.0075280761719,-0.24556782841682434,-0.5497786998748779,0.47280970215797424
1765883306036496100,1565.03749609375,-0.27122417092323303,-0.7941248416900635,0.5815436840057373
1765883306046506000,1565.0475061035156,-0.23579397797584534,-0.789237916469574,0.5766568183898926
1765883306056485000,1565.0574851074218,-0.18081611394882202,-0.7147123217582703,0.4715879559516907
1765883306076443600,1565.0774436035156,-0.16371189057826996,-0.5571091175079346,0.19914206862449646
1765883306086484000,1565.0874838867187,-0.18448130786418915,-0.4899139404296875,0.14416420459747314
1765883306096432600,1565.0974326171875,-0.16737708449363708,-0.4691445231437683,0.1319468915462494
1765883306106442500,1565.1074423828125,-0.13927727937698364,-0.46547931432724,0.0757472887635231
1765883306116452400,1565.1174523925781,-0.12095131725072861,-0.46303585171699524,0.05253441259264946
1765883306126462000,1565.1274619140625,-0.13072516024112701,-0.47280970215797424,0.10262536257505417
1765883306136441300,1565.13744140625,-0.14538592100143433,-0.48869219422340393,0.05864306539297104
1765883306146451000,1565.1474509277343,-0.2076941877603531,-0.50335294008255,0.06108652427792549
1765883306156430300,1565.1574304199219,-0.26633724570274353,-0.4996877610683441,0.10262536257505417
1765883306166409500,1565.167409423828,-0.32498031854629517,-0.4740314185619354,0.11850785464048386
1765883306176419300,1565.1774194335937,-0.37140607833862305,-0.44593164324760437,0.1319468915462494
1765883306186429000,1565.187428955078,-0.4080579876899719,-0.43737950921058655,0.1062905490398407
1765883306206418200,1565.2074182128906,-0.48747047781944275,-0.5106833577156067,0.04764748737215996
1765883306226437600,1565.2274377441406,-0.5791002511978149,-0.5216789245605469,0.08429940044879913
1765883306236416800,1565.2374167480468,-0.6035348773002625,-0.5241223573684692,0.07819075137376785
1765883306246396200,1565.2473962402344,-0.6328563690185547,-0.5338962078094482,0.04642575979232788
1765883306266385200,1565.2673852539062,-0.7379252314567566,-0.5803219676017761,0.16493362188339233
1765883306286404600,1565.2874045410156,-0.7721336483955383,-0.598647952079773,0.3237585723400116
1765883306296383700,1565.2973837890625,-0.740368664264679,-0.6023131608963013,0.23090706765651703
1765883306306393600,1565.3073935546875,-0.7122688889503479,-0.6414085030555725,0.14416420459747314
1765883306336423000,1565.3374228515625,-0.6426302194595337,-0.5754350423812866,0.2822197377681732
1765883306346432800,1565.3474328613281,-0.598647952079773,-0.504574716091156,0.2015855312347412
1765883306356412000,1565.3574118652343,-0.5583308339118958,-0.4703662395477295,0.10384709388017654
1765883306366421800,1565.367421875,-0.5510004758834839,-0.43737950921058655,0.06108652427792549
1765883306376401000,1565.3774008789062,-0.5363397002220154,-0.40683624148368835,0.006108652334660292
1765883306386441200,1565.3874411621093,-0.5607742667198181,-0.40683624148368835,0.06475171446800232
1765883306396390000,1565.397389892578,-0.5827654600143433,-0.4300491213798523,0.11239920556545258
1765883306406399700,1565.407399658203,-0.5729916095733643,-0.46303585171699524,0.19058994948863983
1765883306416409600,1565.4174096679687,-0.5497786998748779,-0.485027015209198,0.25045475363731384
1765883306426288600,1565.4272885742187,-0.485027015209198,-0.4764748811721802,0.2577851414680481
1765883306446278000,1565.4472778320312,-0.4178318381309509,-0.34086281061172485,0.3066543638706207
1765883306456257000,1565.457257080078,-0.4105014503002167,-0.2541199326515198,0.2528982162475586
1765883306466267000,1565.467266845703,-0.42638394236564636,-0.18448130786418915,0.18570303916931152
1765883306476246000,1565.47724609375,-0.43249258399009705,-0.1417207419872284,0.11362093687057495
1765883306486255900,1565.487255859375,-0.4349360466003418,-0.12217304855585098,0.06352998316287994
1765883306496235000,1565.4972351074218,-0.40683624148368835,-0.1466076523065567,0.17592918872833252
1765883306506244900,1565.5072448730468,-0.3591887652873993,-0.19792033731937408,0.15271630883216858
1765883306516224000,1565.5172241210937,-0.3445279896259308,-0.2480112910270691,0.11728613078594208
1765883306526233900,1565.5272338867187,-0.37629300355911255,-0.2968805134296417,0.16371189057826996
1765883306556202000,1565.5572019042968,-0.40683624148368835,-0.4141666293144226,0.35063666105270386
1765883306566211800,1565.5672119140625,-0.40683624148368835,-0.4141666293144226,0.35063666105270386
1765883306576221700,1565.5772216796875,-0.38117989897727966,-0.44226643443107605,0.25045475363731384
1765883306586200800,1565.5872009277343,-0.3738495409488678,-0.48258355259895325,0.16004669666290283
1765883306596210700,1565.5972106933593,-0.3982841372489929,-0.5229006409645081,0.21013765037059784
1765883306606220300,1565.6072202148437,-0.42149701714515686,-0.5522221922874451,0.2626720666885376
1765883306616199700,1565.6171997070312,-0.46303585171699524,-0.5400048494338989,0.35552358627319336
1765883306626209300,1565.6272092285155,-0.44837507605552673,-0.4508185386657715,0.4508185386657715
1765883306636188700,1565.637188720703,-0.4056145250797272,-0.3445279896259308,0.32986724376678467
1765883306676136200,1565.6771362304687,-0.39584067463874817,-0.294437050819397,0.15515977144241333
1765883306686176500,1565.6871765136718,-0.39217549562454224,-0.33475416898727417,0.2382374405860901
1765883306696155600,1565.6971557617187,-0.37629300355911255,-0.3604104816913605,0.23945917189121246
1765883306706135000,1565.7071350097656,-0.34208452701568604,-0.3701843321323395,0.1661553531885147
1765883306716114200,1565.7171142578125,-0.3396410644054413,-0.36651915311813354,0.08796459436416626
1765883306726124000,1565.7271240234375,-0.3689626157283783,-0.37751471996307373,0.1014036312699318
1765883306736103200,1565.7371032714843,-0.3933972120285034,-0.3897320330142975,0.1270599663257599
1765883306746113000,1565.7471130371093,-0.4056145250797272,-0.3933972120285034,0.10995574295520782
1765883306776081200,1565.7770810546874,-0.43615779280662537,-0.3995058834552765,0.15393804013729095
1765883306796039700,1565.7970397949218,-0.46181413531303406,-0.3139847218990326,0.08918632566928864
1765883306806080000,1565.807080078125,-0.47769662737846375,-0.3090978264808655,0.03420845419168472
1765883306816059100,1565.8170590820312,-0.49357911944389343,-0.33597588539123535,0.02076941914856434
1765883306826069000,1565.8270690917968,-0.504574716091156,-0.3530801236629486,0.0659734457731247
1765883306836048400,1565.8370483398437,-0.5180137157440186,-0.3530801236629486,0.05742133408784866
1765883306846058000,1565.8470581054687,-0.5204572081565857,-0.3384193480014801,0.1514945775270462
1765883306856037400,1565.8570373535156,-0.4948008358478546,-0.304210901260376,0.1661553531885147
1765883306905994500,1565.9069943847655,-0.5375614166259766,-0.19303341209888458,-0.004886921960860491
1765883306915943200,1565.9169431152343,-0.4899139404296875,-0.1722639948129654,0.015882495790719986
1765883306925953000,1565.926953125,-0.44104471802711487,-0.15393804013729095,-0.01466076634824276
1765883306935932400,1565.9369323730468,-0.384845107793808,-0.10995574295520782,-0.07208210229873657
1765883306945942000,1565.9469418945312,-0.3139847218990326,-0.01710422709584236,-0.015882495790719986
1765883306955890700,1565.956890625,-0.27000242471694946,0.10262536257505417,0.02076941914856434
1765883306965931000,1565.966930908203,-0.21135938167572021,0.24068090319633484,-0.08674286305904388
1765883306995899400,1565.9968994140625,-0.07208210229873657,0.5241223573684692,0.025656340643763542
1765883307005909000,1566.0069089355468,-0.024434609338641167,0.6096435189247131,0.01466076634824276
1765883307015888400,1566.0168884277343,-0.009773843921720982,0.6768386960029602,0.02076941914856434
1765883307025898200,1566.0268981933593,-0.004886921960860491,0.7672467231750488,0.07941248267889023
1765883307035907800,1566.0369079589843,0.03176499158143997,0.8662069439888,0.10873401165008545
1765883307045917700,1566.0469177246093,0.09896016865968704,0.9566149711608887,0.059864792972803116
1765883307055896800,1566.0568967285155,0.21013765037059784,1.0042624473571777,-0.02076941914856434
1765883307065876200,1566.066876220703,0.2968805134296417,0.9944885969161987,-0.06352998316287994
1765883307075855400,1566.07685546875,0.375071257352829,1.0054842233657837,-0.1062905490398407
1765883307115864000,1566.1168640136718,0.7171558141708374,0.9615018963813782,-0.2675589919090271
1765883307125873700,1566.1268737792968,0.8100073337554932,0.988379955291748,-0.35185837745666504
1765883307135822300,1566.136822265625,0.8808676600456238,1.0787880420684814,-0.34208452701568604
1765883307145832200,1566.1468322753906,0.9541715383529663,1.2229522466659546,-0.3323107063770294
1765883307155811600,1566.1568115234375,0.9859365224838257,1.359786033630371,-0.3738495409488678
1765883307165821200,1566.1668212890625,1.0519099235534668,1.4184291362762451,-0.375071257352829
1765883307175800600,1566.1768005371093,1.1142182350158691,1.4049900770187378,-0.4129449129104614
1765883307205768700,1566.206768798828,1.214400053024292,1.3439035415649414,-0.4764748811721802
1765883307215717400,1566.2167172851562,1.2278391122817993,1.3915510177612305,-0.4129449129104614
1765883307225666300,1566.2266662597656,1.2400563955307007,1.4746286869049072,-0.2785545587539673
1765883307235676000,1566.2366760253906,1.2791517972946167,1.5320500135421753,-0.1771509200334549
1765883307245685800,1566.2466857910156,1.3170254230499268,1.5625933408737183,-0.14049901068210602
1765883307255665000,1566.2566647949218,1.3622294664382935,1.5418238639831543,-0.1869247704744339
1765883307265674800,1566.2666748046875,1.4489723443984985,1.4587461948394775,-0.24190263450145721
1765883307275654000,1566.2766538085937,1.539380431175232,1.3634512424468994,-0.20891591906547546
1765883307285663700,1566.2866638183593,1.547932505607605,1.301142930984497,-0.16371189057826996
1765883307315662600,1566.3166625976562,1.4306464195251465,1.3072515726089478,-0.1319468915462494
1765883307325703000,1566.3267028808593,1.3903292417526245,1.4013248682022095,-0.02687807008624077
1765883307335682000,1566.3366821289062,1.4001030921936035,1.398881435394287,0.03176499158143997
1765883307345692000,1566.3466918945312,1.4147639274597168,1.4074335098266602,0.00733038317412138
1765883307355671000,1566.356671142578,1.4257594347000122,1.4795156717300415,-0.05742133408784866
1765883307365681000,1566.366680908203,1.4391984939575195,1.587027907371521,-0.06963863968849182
1765883307375660000,1566.3766599121093,1.4636331796646118,1.6811012029647827,-0.06719517707824707
1765883307385670000,1566.386669921875,1.5247195959091187,1.7580702304840088,-0.0012217304902151227
1765883307395618600,1566.3966186523437,1.5748106241226196,1.843591332435608,-0.03787364438176155
1765883307435627000,1566.436626953125,1.7311921119689941,2.29440975189209,0.27000242471694946
1765883307445636900,1566.4466369628906,1.7873916625976562,2.395813465118408,0.4105014503002167
1765883307455616300,1566.4566162109375,1.8765780925750732,2.5033257007598877,0.5314527750015259
1765883307465595400,1566.4665954589843,1.9645426273345947,2.554638385772705,0.6633996367454529
1765883307475574500,1566.4765744628905,2.007303237915039,2.5057692527770996,0.5729916095733643
1765883307485554000,1566.486553955078,2.031737804412842,2.4642302989959717,0.5375614166259766
1765883307495533000,1566.4965329589843,2.068389654159546,2.517986536026001,0.4447098970413208
1765883307505512400,1566.5065124511718,2.0390682220458984,2.5509731769561768,0.39095374941825867
1765883307535511000,1566.536510986328,1.5809192657470703,2.22477126121521,0.5436700582504272
1765883307545521000,1566.5465209960937,1.4196507930755615,2.1172590255737305,0.46303585171699524
1765883307555500300,1566.5565002441406,1.2119566202163696,1.8545868396759033,0.3286454975605011
1765883307565540400,1566.566540283203,1.1349875926971436,1.5320500135421753,0.042760565876960754
1765883307575550200,1566.5765502929687,1.0983357429504395,1.2498302459716797,-0.1563815027475357
1765883307585560000,1566.5865600585937,1.1239920854568481,1.0543533563613892,-0.44104471802711487
1765883307595539200,1566.5965393066406,0.9944885969161987,0.788016140460968,-0.7293730974197388
1765883307605549000,1566.6065490722656,0.6621779203414917,0.4105014503002167,-0.9553932547569275
1765883307635517200,1566.6365170898437,-0.1111774742603302,-0.455705463886261,-0.27611109614372253
1765883307645527000,1566.6465270996093,0.042760565876960754,-0.4813618063926697,-0.6426302194595337
1765883307655506200,1566.6565061035155,0.08674286305904388,-0.4789183437824249,-0.8881980776786804
1765883307665485600,1566.666485595703,0.010995574295520782,-0.4202753007411957,-0.7819074988365173
1765883307675464700,1566.6764645996093,-0.17959438264369965,-0.4948008358478546,-0.6511823534965515
1765883307685444000,1566.6864440917968,-0.44715335965156555,-0.8038986921310425,-0.4813618063926697
1765883307695453700,1566.6964536132812,-0.4337143301963806,-0.8967501521110535,-0.46303585171699524
1765883307705433000,1566.7064331054687,-0.2736676335334778,-0.8148942589759827,-0.7489207983016968
1765883307735432000,1566.7364318847656,-1.0787880420684814,-1.3096951246261597,-0.48380526900291443
1765883307745411000,1566.7464111328125,-1.5699236392974854,-1.635897159576416,-0.27611109614372253
1765883307755390200,1566.7563901367187,-1.8875735998153687,-1.927890658378601,0.0354301854968071
1765883307765369600,1566.7663696289062,-1.7470746040344238,-1.7385225296020508,0.18325957655906677
1765883307775348700,1566.7763486328124,-1.302364706993103,-1.2424999475479126,0.0024434609804302454
1765883307785328000,1566.786328125,-0.9737191796302795,-0.8332201838493347,-0.33597588539123535
1765883307795337700,1566.7963376464843,-0.9590584635734558,-0.7391469478607178,-0.39706242084503174
1765883307805347600,1566.80634765625,-0.9590584635734558,-0.7391469478607178,-0.39706242084503174
1765883307835316000,1566.8363159179687,-1.4147639274597168,-1.5418238639831543,-0.5571091175079346
1765883307855274200,1566.8562741699218,-1.017701506614685,-1.4624114036560059,-0.2064724564552307
1765883307865314600,1566.866314453125,-0.9150761365890503,-1.55892813205719,-0.06719517707824707
1765883307875294000,1566.8762939453125,-1.036027431488037,-1.8167132139205933,0.051312681287527084
1765883307885303600,1566.8863034667968,-1.1801916360855103,-2.140471935272217,-0.042760565876960754
1765883307895283000,1566.8962829589843,-1.2974777221679688,-2.361604928970337,0.21502456068992615
1765883307905262000,1566.9062619628905,-1.1899654865264893,-1.947438359260559,0.5265658497810364
1765883307915241500,1566.916241455078,-0.836885392665863,-1.4013248682022095,0.4862487316131592
1765883307945179100,1566.9461791992187,-0.7354817390441895,-1.0005972385406494,0.045204028487205505
1765883307955158300,1566.956158203125,-0.7330383062362671,-0.9443976879119873,-0.06719517707824707
1765883307965168000,1566.9661682128906,-0.7122688889503479,-0.7476990818977356,0.04642575979232788
1765883307975147500,1566.9761474609375,-0.6511823534965515,-0.6682865619659424,0.1062905490398407
1765883307985126700,1566.9861267089843,-0.7147123217582703,-0.8112290501594543,0.17592918872833252
1765883307995105800,1566.9961057128905,-0.7733554244041443,-0.8784242272377014,-0.015882495790719986
1765883308005115600,1567.0061157226562,-0.7745771408081055,-0.8930850028991699,-0.2028072625398636
1765883308015125500,1567.0161254882812,-0.8429940342903137,-0.9040805697441101,-0.09896016865968704
1765883308065082600,1567.0660825195312,-0.7513642311096191,-1.0910053253173828,0.042760565876960754
1765883308075031600,1567.0760314941406,-0.7525860071182251,-1.0458012819290161,0.14294247329235077
1765883308085010700,1567.0860107421875,-0.7073819637298584,-0.9199630618095398,0.2028072625398636
1765883308095020500,1567.0960205078125,-0.740368664264679,-0.8552113175392151,0.2822197377681732
1765883308105030100,1567.1060300292968,-0.7489207983016968,-0.7464773058891296,0.2785545587539673
1765883308115040000,1567.1160400390625,-0.7049384713172913,-0.6817256212234497,0.10873401165008545
1765883308125049900,1567.1260498046875,-0.675616979598999,-0.6120869517326355,0.02076941914856434
1765883308145038800,1567.1460388183593,-0.5791002511978149,-0.5216789245605469,-0.09407325088977814
1765883308154987500,1567.155987548828,-0.6450737118721008,-0.6414085030555725,0.019547687843441963
1765883308164966700,1567.1659665527343,-0.7367035150527954,-0.8649851679801941,0.15393804013729095
1765883308174946000,1567.1759460449218,-0.8014551997184753,-1.037249207496643,0.2773328125476837
1765883308184925200,1567.1859252929687,-0.797789990901947,-1.0641272068023682,0.39095374941825867
1765883308194904600,1567.1959045410156,-0.7709119319915771,-0.9224064946174622,0.35185837745666504
1765883308204914200,1567.2059140625,-0.7782423496246338,-0.797789990901947,0.3628539443016052
1765883308214893600,1567.2158935546875,-0.8148942589759827,-0.7110471725463867,0.46547931432724
1765883308224842200,1567.2258422851562,-0.7709119319915771,-0.6743952035903931,0.40072759985923767
1765883308264789800,1567.2657897949218,-0.4129449129104614,-0.45814892649650574,-0.039095375686883926
1765883308274769000,1567.275768798828,-0.475253164768219,-0.46670106053352356,-0.010995574295520782
1765883308284748300,1567.2857482910156,-0.5644394755363464,-0.5070181488990784,0.0757472887635231
1765883308294727400,1567.2957275390625,-0.5937610268592834,-0.5534439086914062,0.15882496535778046
1765883308304737300,1567.3057373046875,-0.5937610268592834,-0.5656611919403076,0.1258382350206375
1765883308314716400,1567.3157163085937,-0.5778785347938538,-0.5656611919403076,0.09040805697441101
1765883308324665300,1567.325665283203,-0.5900958180427551,-0.6145304441452026,0.1466076523065567
1765883308364612600,1567.365612548828,-0.5839871764183044,-0.5302310585975647,0.31642818450927734
1765883308374592000,1567.3755920410156,-0.4801400899887085,-0.3543018400669098,0.03420845419168472
1765883308384601900,1567.3856018066406,-0.4202753007411957,-0.3017674386501312,-0.2028072625398636
1765883308394581000,1567.3955810546875,-0.46181413531303406,-0.35674530267715454,-0.20036379992961884
1765883308404560100,1567.4055600585937,-0.46181413531303406,-0.35674530267715454,-0.20036379992961884
1765883308414570000,1567.4155700683593,-0.49235737323760986,-0.41661009192466736,-0.02932153269648552
1765883308424579800,1567.4255798339843,-0.5143485069274902,-0.48380526900291443,0.07330382615327835
1765883308434559000,1567.4355590820312,-0.5241223573684692,-0.5229006409645081,0.1722639948129654
1765883308454548000,1567.4555478515624,-0.48747047781944275,-0.48869219422340393,0.1417207419872284
1765883308484516400,1567.4855163574218,-0.5473352670669556,-0.6499606370925903,0.12217304855585098
1765883308494526000,1567.4955258789062,-0.5400048494338989,-0.6731734871864319,0.16371189057826996
1765883308504505300,1567.5055053710937,-0.5338962078094482,-0.6438519954681396,0.32498031854629517
1765883308514484500,1567.515484375,-0.49846604466438293,-0.626747727394104,0.2528982162475586
1765883308524494300,1567.5254943847656,-0.455705463886261,-0.588874101638794,0.21380282938480377
1765883308534504200,1567.5355041503906,-0.4043927788734436,-0.5155702829360962,0.059864792972803116
1765883308544483300,1567.5454833984375,-0.3677408695220947,-0.46792277693748474,-0.042760565876960754
1765883308584491800,1567.5854916992187,-0.5681046843528748,-0.6988298296928406,0.10262536257505417
1765883308594471200,1567.5954711914062,-0.6194173693656921,-0.8026769161224365,0.33719760179519653
1765883308604480800,1567.6054807128905,-0.5974262356758118,-0.7904596328735352,0.5717698931694031
1765883308634449200,1567.63544921875,-0.4239404797554016,-0.33597588539123535,-0.07819075137376785
1765883308644428300,1567.6454282226562,-0.41661009192466736,-0.2724458873271942,-0.17959438264369965
1765883308654438100,1567.6554382324218,-0.43615779280662537,-0.304210901260376,-0.18081611394882202
1765883308684437000,1567.6854370117187,-0.3995058834552765,-0.46670106053352356,-0.06841690838336945
1765883308694446600,1567.695446533203,-0.4740314185619354,-0.5253441333770752,-0.07330382615327835
1765883308704426000,1567.7054260253906,-0.5827654600143433,-0.5705481171607971,0.05497787147760391
1765883308714405000,1567.7154050292968,-0.66584312915802,-0.6157521605491638,0.26022860407829285
1765883308724384500,1567.7253845214843,-0.7220427393913269,-0.608421802520752,0.3029891550540924
1765883308734394000,1567.7353940429687,-0.7305948138237,-0.5742133259773254,0.26022860407829285
1765883308744373500,1567.7453735351562,-0.6890559792518616,-0.48380526900291443,0.3078760802745819
1765883308754352600,1567.7553525390624,-0.5754350423812866,-0.33719760179519653,0.20525072515010834
1765883308784351500,1567.7853515625,-0.32131510972976685,-0.18448130786418915,-0.44837507605552673
1765883308794361300,1567.795361328125,-0.2736676335334778,-0.2431243658065796,-0.3066543638706207
1765883308804371000,1567.8053708496093,-0.27122417092323303,-0.3066543638706207,-0.2321287989616394
1765883308814350300,1567.8153503417968,-0.3127630054950714,-0.3543018400669098,-0.14049901068210602
1765883308824390700,1567.825390625,-0.3579670190811157,-0.3481931984424591,0.13072516024112701
1765883308834369800,1567.8353698730468,-0.3982841372489929,-0.31520646810531616,0.31642818450927734
1765883308844318500,1567.845318359375,-0.4202753007411957,-0.294437050819397,0.3188716471195221
1765883308854328300,1567.8553283691406,-0.3640756905078888,-0.21868975460529327,0.2528982162475586
1765883308864338200,1567.8653381347656,-0.26145032048225403,-0.08674286305904388,0.26145032048225403
1765883308874317300,1567.8753173828125,-0.12217304855585098,0.06841690838336945,0.1869247704744339
1765883308924274700,1567.925274658203,0.4202753007411957,0.5436700582504272,0.1417207419872284
1765883308934284300,1567.9352841796874,0.5070181488990784,0.6133087277412415,0.24068090319633484
1765883308944294100,1567.945294189453,0.5815436840057373,0.7061602473258972,0.22479841113090515
1765883308954304000,1567.955303955078,0.6194173693656921,0.8002334833145142,0.17592918872833252
1765883308964313600,1567.965313720703,0.6743952035903931,0.8637634515762329,0.12339477986097336
1765883308994312400,1567.9953125,0.9553932547569275,1.0384708642959595,-0.01466076634824276
1765883309004261000,1568.0052612304687,1.0238101482391357,1.0922271013259888,0.012217304669320583
1765883309014271000,1568.0152709960937,1.0409144163131714,1.1215485334396362,0.01710422709584236
1765883309024280600,1568.025280517578,1.036027431488037,1.1838568449020386,-0.03298672288656235
1765883309034229500,1568.0352294921875,1.036027431488037,1.1838568449020386,-0.03298672288656235
1765883309044269800,1568.0452697753906,1.0458012819290161,1.2864822149276733,-0.0708603709936142
1765883309054249000,1568.0552490234375,1.0115928649902344,1.398881435394287,-0.004886921960860491
1765883309064289300,1568.0652893066406,1.0433578491210938,1.5076154470443726,0.05375614017248154
1765883309094196500,1568.095196533203,1.156978726387024,1.5112806558609009,-0.2174680233001709
1765883309114216000,1568.1152158203124,1.273043155670166,1.5650367736816406,-0.11362093687057495
1765883309124225800,1568.125225830078,1.3292428255081177,1.547932505607605,-0.09407325088977814
1765883309134205000,1568.1352048339843,1.4355332851409912,1.5137240886688232,-0.1563815027475357
1765883309144214800,1568.14521484375,1.5234979391098022,1.5015068054199219,-0.28099802136421204
1765883309154194000,1568.1551938476562,1.5625933408737183,1.5161675214767456,-0.3139847218990326
1765883309164173300,1568.1651733398437,1.5968017578125,1.519832730293274,-0.32009339332580566
1765883309174213600,1568.1752136230468,1.6102408170700073,1.5137240886688232,-0.251676470041275
1765883309194202600,1568.1952026367187,1.6200146675109863,1.577254056930542,-0.07452555745840073
1765883309214191600,1568.2151916503906,1.7519614696502686,1.6798794269561768,-0.024434609338641167
1765883309224201500,1568.2252014160156,1.8277088403701782,1.7812830209732056,0.03298672288656235
1765883309234150100,1568.2351501464843,1.860695481300354,1.8765780925750732,0.14538592100143433
1765883309244129300,1568.2451293945312,1.8887953758239746,1.9352210760116577,0.22113321721553802
1765883309254169600,1568.2551696777343,1.901012659072876,2.004859685897827,0.2932153046131134
1765883309264179500,1568.2651794433593,1.9364428520202637,2.096489429473877,0.3738495409488678
1765883309274128100,1568.275128173828,2.0024163722991943,2.13314151763916,0.44226643443107605
1765883309284138000,1568.285137939453,2.048841953277588,2.1148154735565186,0.5057964324951172
1765883309304127000,1568.305126953125,2.116037130355835,2.2101104259490967,0.5974262356758118
1765883309314106000,1568.3151062011718,2.0916025638580322,2.266309976577759,0.6939429044723511
1765883309324116000,1568.3251159667968,2.0366246700286865,2.2455406188964844,0.6988298296928406
1765883309334156300,1568.33515625,1.9254472255706787,2.113593816757202,0.6670648455619812
1765883309344166000,1568.3451657714843,1.8106045722961426,1.9816468954086304,0.7709119319915771
1765883309354145300,1568.3551452636718,1.7678439617156982,2.020742177963257,0.7098253965377808
1765883309364185600,1568.365185546875,1.8057177066802979,2.272418737411499,0.7024950385093689
1765883309374164700,1568.3751647949218,1.7751743793487549,2.461786985397339,0.6829473376274109
1765883309384174600,1568.3851745605468,1.6517796516418457,2.313957452774048,0.4899139404296875
1765883309404132900,1568.4051328125,1.1484266519546509,1.4526375532150269,-0.21135938167572021
1765883309424152600,1568.4251525878906,0.3274237811565399,0.6133087277412415,-0.38728857040405273
1765883309434131700,1568.4351315917968,-0.14294247329235077,0.2528982162475586,0.00733038317412138
1765883309444172000,1568.4451721191406,-0.3885102868080139,0.024434609338641167,0.2541199326515198
1765883309454182000,1568.4551818847656,-0.6194173693656921,-0.3530801236629486,0.12461651116609573
1765883309464191500,1568.46519140625,-0.7415903806686401,-0.6866125464439392,-0.18325957655906677
1765883309474171000,1568.4751708984375,-0.8344419002532959,-0.8723155856132507,-0.40072759985923767
1765883309484150000,1568.4851499023437,-0.9101892113685608,-0.9578366875648499,-0.32131510972976685
1765883309494160000,1568.4951599121093,-0.8222246170043945,-0.8894197940826416,-0.2064724564552307
1765883309504169700,1568.5051696777343,-0.7574729323387146,-0.9028588533401489,-0.29077184200286865
1765883309524189200,1568.5251892089843,-0.7391469478607178,-1.2424999475479126,-0.5815436840057373
1765883309574238000,1568.5752380371093,-1.3145819902420044,-1.451415777206421,-0.04642575979232788
1765883309584217300,1568.5852172851562,-1.4208725690841675,-1.5931365489959717,0.10262536257505417
1765883309594196500,1568.595196533203,-1.302364706993103,-1.5222761631011963,0
1765883309604236800,1568.6052368164062,-1.207069754600525,-1.6090190410614014,0
1765883309614246400,1568.6152463378905,-1.1459832191467285,-1.588249683380127,0.10751228034496307
1765883309624256300,1568.6252563476562,-0.9175195693969727,-1.3585642576217651,-0.11239920556545258
1765883309634235600,1568.635235595703,-0.8539896011352539,-1.2046263217926025,-0.16737708449363708
1765883309644214800,1568.64521484375,-0.7672467231750488,-1.016479730606079,-0.23335053026676178
1765883309654255000,1568.655255126953,-0.6866125464439392,-1.0140362977981567,-0.46303585171699524
1765883309664264700,1568.6652646484374,-0.7770205736160278,-1.1826350688934326,-0.5852088928222656
1765883309674213600,1568.6752136230468,-0.8552113175392151,-1.2583824396133423,-0.6585127115249634
1765883309684223200,1568.6852231445312,-0.8552113175392151,-1.2583824396133423,-0.6585127115249634
1765883309694233000,1568.6952331542968,-0.9957103729248047,-1.4404202699661255,-0.17592918872833252
1765883309704243000,1568.7052429199218,-0.9957103729248047,-1.4404202699661255,-0.17592918872833252
1765883309714252500,1568.7152524414062,-0.9724974632263184,-1.480737328529358,-0.02932153269648552
1765883309724232000,1568.7252319335937,-0.9492846131324768,-1.4721852540969849,0.1111774742603302
1765883309744281900,1568.7452817382812,-0.8918632864952087,-1.226617455482483,0.2370157092809677
1765883309754261200,1568.7552612304687,-0.8930850028991699,-1.1435397863388062,0.251676470041275
1765883309764270800,1568.765270751953,-0.7257078886032104,-0.9957103729248047,0.16982053220272064
1765883309774280700,1568.7752807617187,-0.44837507605552673,-0.7440338730812073,-0.0354301854968071
1765883309784259800,1568.785259765625,-0.22113321721553802,-0.5387831330299377,-0.32986724376678467
1765883309794239200,1568.7952392578125,-0.17104226350784302,-0.5082398653030396,-0.4056145250797272
1765883309804218400,1568.8052182617187,-0.25534167885780334,-0.6120869517326355,-0.40683624148368835
1765883309814228200,1568.8152282714843,-0.3933972120285034,-0.7489207983016968,-0.3836233615875244
1765883309824238000,1568.8252380371093,-0.5827654600143433,-0.9334021210670471,-0.1319468915462494
1765883309834217200,1568.8352172851562,-0.7476990818977356,-1.0054842233657837,0.2785545587539673
1765883309854236700,1568.8552365722655,-0.7550294399261475,-0.8307767510414124,0.32131510972976685
1765883309864216000,1568.865216064453,-0.8210029006004333,-0.7635815739631653,0.34697145223617554
1765883309874195200,1568.8751953125,-0.8246681094169617,-0.6633996367454529,0.35063666105270386
1765883309884205000,1568.885205078125,-0.7281513810157776,-0.5583308339118958,0.29077184200286865
1765883309894184200,1568.8951840820312,-0.588874101638794,-0.43249258399009705,0.1771509200334549
1765883309904194000,1568.9051940917968,-0.45692721009254456,-0.384845107793808,-0.013439035043120384
1765883309914142700,1568.9151428222656,-0.43127086758613586,-0.4434881806373596,0.00733038317412138
1765883309924152600,1568.9251525878906,-0.41661009192466736,-0.5558874011039734,-0.04642575979232788
1765883309934162200,1568.935162109375,-0.45204028487205505,-0.6524040699005127,-0.14905111491680145
1765883309954151400,1568.9551513671875,-0.5925393104553223,-0.6951646208763123,0.009773843921720982
1765883309964161000,1568.9651611328125,-0.66584312915802,-0.7391469478607178,0.16004669666290283
1765883309974140400,1568.9751403808593,-0.7086036801338196,-0.7440338730812073,0.5070181488990784
1765883309984150000,1568.9851499023437,-0.6572909951210022,-0.6780604124069214,0.50335294008255
1765883309994129400,1568.9951293945312,-0.5815436840057373,-0.6218608021736145,0.24923302233219147
1765883310004108500,1569.005108642578,-0.5461135506629944,-0.6377432942390442,0.08429940044879913
1765883310014118400,1569.015118408203,-0.5571091175079346,-0.6230825781822205,0.01710422709584236
1765883310024128000,1569.0251279296874,-0.5619960427284241,-0.6218608021736145,0.0024434609804302454
1765883310034107400,1569.035107421875,-0.5974262356758118,-0.6792821288108826,0.1661553531885147
1765883335148952600,1594.1499526367188,-0.4996877610683441,-0.3591887652873993,0.028099801391363144
1765883335158862300,1594.1598623046875,0.0757472887635231,-0.03787364438176155,-0.48869219422340393
1765883335188200200,1594.1892001953124,-2.1123719215393066,-1.0225883722305298,-1.6383405923843384
1765883335198240300,1594.199240234375,-2.8551840782165527,-1.273043155670166,-2.085494041442871
1765883335208219600,1594.2092197265624,-3.067765235900879,-1.359786033630371,-2.040289878845215
1765883335218229500,1594.2192294921874,-3.112969398498535,-1.4611896276474,-2.0696115493774414
1765883335228239000,1594.229239013672,-3.093421697616577,-1.5735888481140137,-2.1624629497528076
1765883335238218500,1594.2392185058593,-2.970026731491089,-1.5894713401794434,-2.144136905670166
1765883335248228000,1594.2492280273439,-2.8686232566833496,-1.5638149976730347,-2.102598190307617
1765883335258268400,1594.259268310547,-2.8747317790985107,-1.6212363243103027,-2.1893410682678223
1765883335268247800,1594.2692478027343,-2.9272663593292236,-1.6517796516418457,-2.3823745250701904
1765883335308256300,1594.3092563476562,-2.5864033699035645,-1.3866641521453857,-2.230879783630371
1765883335338194000,1594.3391938476564,-2.191784381866455,-1.2681562900543213,-1.9938641786575317
1765883335388120800,1594.3891208496093,-1.7324138879776,-1.2082914113998413,-1.976759910583496
1765883335438139100,1594.4391391601562,-1.4379768371582031,-1.282817006111145,-1.7482963800430298
1765883335488065800,1594.4890656738282,-0.7147123217582703,-0.6352998614311218,-1.9987510442733765
1765883335498106000,1594.4991062011718,-0.6023131608963013,-0.475253164768219,-2.1600193977355957
1765883335508116000,1594.5091159667968,-0.5864306092262268,-0.3530801236629486,-2.387261390686035
1765883335518095000,1594.5190952148437,-0.5277875661849976,-0.31520646810531616,-2.4947736263275146
1765883335528074200,1594.52907421875,-0.4251621961593628,-0.28099802136421204,-2.364048480987549
1765883335538084000,1594.539083984375,-0.4862487316131592,-0.304210901260376,-2.339613914489746
1765883335548063500,1594.5490634765624,-0.47280970215797424,-0.32620203495025635,-2.459343433380127
1765883335578062000,1594.5790620117189,-0.304210901260376,-0.35063666105270386,-2.4214699268341064
1765883335588072000,1594.5890720214843,-0.23335053026676178,-0.30543261766433716,-2.3469443321228027
1765883335598081800,1594.5990817871093,-0.2993239760398865,-0.2431243658065796,-2.350609540939331
1765883335608091400,1594.6090913085939,-0.28099802136421204,-0.20525072515010834,-2.389704942703247
1765883335618131700,1594.619131591797,-0.08307767659425735,-0.16982053220272064,-2.331061840057373
1765883335628141600,1594.6291416015624,0.02932153269648552,-0.11362093687057495,-2.3652701377868652
1765883335638151200,1594.639151123047,0.10384709388017654,-0.12461651116609573,-2.5607471466064453
1765883335648161000,1594.6491611328124,0.10873401165008545,-0.12461651116609573,-2.6535985469818115
1765883335668089000,1594.669089111328,0.039095375686883926,0.07452555745840073,-2.4935519695281982
1765883335678068200,1594.6790681152345,-0.028099801391363144,0.1258382350206375,-2.2675318717956543
1765883335698057200,1594.6990571289064,0.03176499158143997,0.14905111491680145,-2.004859685897827
1765883335708067000,1594.7090671386718,0.02932153269648552,0.1417207419872284,-2.0341813564300537
1765883335718046200,1594.7190461425782,0.00733038317412138,0.1368338167667389,-2.1038198471069336
1765883335728056000,1594.7290561523437,0.028099801391363144,0.1466076523065567,-2.072054862976074
1765883335738096400,1594.7390964355468,-0.01466076634824276,0.14416420459747314,-1.9034560918807983
1765883335748075500,1594.7490754394532,0.013439035043120384,0.14782938361167908,-1.6920967102050781
1765883335758055000,1594.7590549316405,0.08918632566928864,0.15271630883216858,-1.4795156717300415
1765883335778074400,1594.7790744628905,0.1563815027475357,0.05497787147760391,-1.236391305923462
1765883335798063400,1594.7990634765624,0.2736676335334778,-0.09896016865968704,-1.254717230796814
1765883335808042800,1594.8090427246093,0.31642818450927734,-0.13316862285137177,-1.3048081398010254
1765883335818052400,1594.8190522460939,0.3017674386501312,-0.09773843735456467,-1.291369080543518
1765883335828001000,1594.8290009765626,0.294437050819397,-0.05864306539297104,-1.2205088138580322
1765883335837980400,1594.83898046875,0.39095374941825867,0.004886921960860491,-0.9737191796302795
1765883335847990000,1594.8489899902345,0.4092797040939331,0.09773843735456467,-0.7843509912490845
1765883335858000000,1594.8589997558595,0.3579670190811157,0.14416420459747314,-0.8405506014823914
1765883335868009700,1594.869009765625,0.35063666105270386,0.12950342893600464,-0.8906415104866028
1765883335898008600,1594.8990085449218,0.3274237811565399,0.1258382350206375,-0.6316346526145935
1765883335907987700,1594.9089877929687,0.2272418737411499,0.16859880089759827,-0.5962044596672058
1765883335917997600,1594.9189975585937,0.14538592100143433,0.1869247704744339,-0.5510004758834839
1765883335928007200,1594.9290070800782,0.11972958594560623,0.1466076523065567,-0.4605923891067505
1765883335938017000,1594.9390170898437,0.11972958594560623,0.12828169763088226,-0.3701843321323395
1765883335948027000,1594.9490268554687,0.09896016865968704,0.13927727937698364,-0.3433062732219696
1765883335958006000,1594.9590061035155,0.0403171069920063,0.1612684279680252,-0.43127086758613586
1765883335968016000,1594.9690158691405,0.039095375686883926,0.18448130786418915,-0.4715879559516907
1765883335978025500,1594.979025390625,0.06108652427792549,0.19792033731937408,-0.44226643443107605
1765883336007963400,1595.0089633789062,-0.03420845419168472,0.2834414839744568,-0.47280970215797424
1765883336017942500,1595.018942626953,-0.04153883829712868,0.2675589919090271,-0.44593164324760437
1765883336027891200,1595.0288911132814,-0.06352998316287994,0.2822197377681732,-0.3701843321323395
1765883336037901000,1595.0389011230468,-0.1062905490398407,0.31520646810531616,-0.3885102868080139
1765883336047880200,1595.0488801269532,-0.12339477986097336,0.3396410644054413,-0.37629300355911255
1765883336057890000,1595.0588901367187,-0.16371189057826996,0.3017674386501312,-0.4288274049758911
1765883336067869200,1595.068869140625,-0.1466076523065567,0.2968805134296417,-0.4239404797554016
1765883336077848600,1595.0788486328124,-0.13805554807186127,0.33108896017074585,-0.31154128909111023
1765883336097807000,1595.0988071289062,-0.3286454975605011,0.35674530267715454,-0.3274237811565399
1765883336107786200,1595.1087861328126,-0.8136724829673767,0.5974262356758118,-0.7574729323387146
1765883336117796000,1595.118796142578,-0.5326744914054871,0.5962044596672058,0.3591887652873993
1765883336127775200,1595.1287751464845,-0.6059783101081848,0.3188716471195221,0.32498031854629517
1765883336137785000,1595.13878515625,-0.43737950921058655,0.513126790523529,0.11239920556545258
1765883336147795000,1595.148794921875,-0.2919935882091522,0.4251621961593628,0.22846360504627228
1765883336157774000,1595.1587741699218,-0.45204028487205505,0.2773328125476837,0.2871066629886627
1765883336167753200,1595.1687531738282,-0.2174680233001709,0.35063666105270386,0.3127630054950714
1765883336177732600,1595.1787326660155,0.44593164324760437,0.5607742667198181,0.20525072515010834
1765883336227720400,1595.2287204589843,0.006108652334660292,1.1215485334396362,-1.881464958190918
1765883336237730000,1595.2387299804689,0.2773328125476837,0.6988298296928406,-1.803274154663086
1765883336247709400,1595.2487094726562,0.6988298296928406,0.43737950921058655,-1.205847978591919
1765883336257688600,1595.2586884765626,0.7941248416900635,0.32131510972976685,-0.7806857824325562
1765883336267668000,1595.26866796875,0.7000515460968018,0.25534167885780334,-0.759916365146637
1765883336277677600,1595.2786774902345,0.7098253965377808,0.384845107793808,-0.8124507665634155
1765883336307707000,1595.3087067871095,0.8845328688621521,0.8503243923187256,-0.7134906053543091
1765883336317716700,1595.318716796875,1.036027431488037,0.9370672702789307,-0.788016140460968
1765883336327726600,1595.3287265625,1.1520918607711792,1.026253581047058,-1.0348057746887207
1765883336337705700,1595.3387058105468,1.2510520219802856,1.1288789510726929,-1.1533136367797852
1765883336347684900,1595.3486848144532,1.3939944505691528,1.2522737979888916,-1.1557570695877075
1765883336357694700,1595.3586948242187,1.490511178970337,1.3561208248138428,-1.1789699792861938
1765883336367704600,1595.3687045898437,1.4770721197128296,1.4049900770187378,-1.2192870378494263
1765883336377683700,1595.37868359375,1.5149458646774292,1.4636331796646118,-1.2583824396133423
1765883336387693600,1595.3886936035155,1.6420058012008667,1.5418238639831543,-1.187522053718567
1765883336417723000,1595.4187229003905,1.244943380355835,1.4941763877868652,-0.9004153609275818
1765883336427702000,1595.428701904297,0.9248499870300293,1.2510520219802856,-0.6585127115249634
1765883336437681400,1595.4386813964843,0.6475171446800232,0.9993755221366882,-0.5106833577156067
1765883336447691000,1595.4486909179689,0.4605923891067505,0.7709119319915771,-0.44715335965156555
1765883336457700900,1595.4587009277343,0.33475416898727417,0.5510004758834839,-0.6670648455619812
1765883336477720300,1595.4787202148439,0.24556782841682434,0.2981022298336029,-1.0299187898635864
1765883336487699700,1595.4886997070312,0.14905111491680145,0.2675589919090271,-1.0873401165008545
1765883336517729000,1595.5187290039062,-0.00366519158706069,0.19058994948863983,-0.9492846131324768
1765883336527738600,1595.5287385253907,0.00366519158706069,0.1466076523065567,-0.9175195693969727
1765883336537718000,1595.538718017578,0.05375614017248154,0.09529497474431992,-0.9004153609275818
1765883336547727600,1595.5487275390626,0.10018189996480942,0.02932153269648552,-1.016479730606079
1765883336557707000,1595.55870703125,0.13805554807186127,-0.05375614017248154,-1.2217304706573486
1765883336567686100,1595.5686860351564,0.20036379992961884,-0.13927727937698364,-1.4355332851409912
1765883336577696000,1595.5786960449218,0.2773328125476837,-0.19914206862449646,-1.633453607559204
1765883494255699200,1753.25669921875,0.6939429044723511,-0.2638937830924988,-1.7580702304840088
1765883494265578500,1753.2665786132814,0.09162978827953339,-0.0403171069920063,-0.47280970215797424
1765883494275388400,1753.2763884277344,0.12950342893600464,-0.18448130786418915,-0.05253441259264946
1765883494325084400,1753.3260844726562,-1.284038782119751,-1.1203268766403198,-2.6755897998809814
1765883494375072300,1753.376072265625,-1.5943583250045776,-1.2315043210983276,-2.3041837215423584
1765883494405040600,1753.4060405273437,-1.4501941204071045,-0.846659243106842,-1.5051720142364502
1765883494415081000,1753.4160810546875,-1.4294246435165405,-0.5937610268592834,-1.539380431175232
1765883494475017500,1753.476017578125,-0.9382890462875366,-0.8906415104866028,-1.9437731504440308
1765883494555004000,1753.55600390625,-0.7916813492774963,-0.5546656250953674,-1.6505578756332397
1765883494564983300,1753.5659833984375,-0.8246681094169617,-0.37629300355911255,-1.8668042421340942
1765883494574993000,1753.5759929199219,-0.8515461683273315,-0.32498031854629517,-1.938886284828186
1765883494585002800,1753.5860026855469,-0.8417723178863525,-0.4349360466003418,-1.7849482297897339
1765883494594982000,1753.5959819335937,-0.7098253965377808,-0.44593164324760437,-1.549154281616211
1765883494614971000,1753.6159709472656,-0.5571091175079346,-0.2968805134296417,-1.8069393634796143
1765883494624980700,1753.6259807128906,-0.5106833577156067,-0.32620203495025635,-2.141693592071533
1765883494634990600,1753.6359904785156,-0.4398229718208313,-0.3017674386501312,-2.3347270488739014
1765883494664958700,1753.6659587402344,-0.3787364661693573,-0.29077184200286865,-1.9449949264526367
1765883494674999000,1753.6759990234375,-0.2480112910270691,-0.29077184200286865,-1.9462167024612427
1765883494684978400,1753.685978515625,-0.27977627515792847,-0.2736676335334778,-2.235766887664795
1765883494694957600,1753.6959575195312,-0.2834414839744568,-0.21991148591041565,-2.4410176277160645
1765883494704967400,1753.705967529297,-0.27977627515792847,-0.16004669666290283,-2.3799309730529785
1765883494724956400,1753.7259562988281,-0.1014036312699318,-0.14538592100143433,-1.9523253440856934
1765883494734966000,1753.7359660644531,0.01466076634824276,-0.10506882518529892,-1.9425514936447144
1765883494744976000,1753.7459758300781,0.17348572611808777,0.0757472887635231,-2.0451767444610596
1765883494754985700,1753.7559858398438,0.3286454975605011,0.28466320037841797,-2.1868975162506104
1765883494764964900,1753.76596484375,0.43127086758613586,0.3897320330142975,-2.2736403942108154
1765883494774944300,1753.7759443359375,0.44715335965156555,0.375071257352829,-2.3273966312408447
1765883494784984300,1753.785984375,0.394618958234787,0.18814650177955627,-2.2797491550445557
1765883494794994200,1753.795994140625,0.4129449129104614,-0.05619960278272629,-2.012190103530884
1765883494805004000,1753.8060041503907,0.4508185386657715,-0.13927727937698364,-1.6982053518295288
1765883494824962600,1753.8259626464844,0.40194934606552124,0.1966986060142517,-1.6090190410614014
1765883494845012500,1753.8460124511719,0.42760565876960754,0.3066543638706207,-1.2877039909362793
1765883494854992000,1753.8559919433594,0.5180137157440186,0.3689626157283783,-0.960280179977417
1765883494865001500,1753.8660014648437,0.39706242084503174,0.48380526900291443,-0.7281513810157776
1765883494874980900,1753.8759809570313,0.39706242084503174,0.48380526900291443,-0.7281513810157776
1765883494884960000,1753.8859599609375,0.3017674386501312,0.5302310585975647,-0.6243042945861816
1765883494895000300,1753.8960002441406,0.26145032048225403,0.5363397002220154,-0.5522221922874451
1765883494905010200,1753.9060102539063,0.15027284622192383,0.5681046843528748,-0.45692721009254456
1765883494924999200,1753.9259992675782,0.01710422709584236,0.5473352670669556,0.07941248267889023
1765883494934978300,1753.9359782714844,0.05497787147760391,0.5351179838180542,0.4129449129104614
1765883494945018600,1753.9460185546875,0.11972958594560623,0.48869219422340393,0.5436700582504272
1765883494955028500,1753.9560285644532,0.2272418737411499,0.40072759985923767,0.5583308339118958
1765883494965038000,1753.9660380859375,0.27122417092323303,0.3384193480014801,0.41172316670417786
1765883494975048000,1753.9760478515625,0.30054569244384766,0.34697145223617554,0.2675589919090271
1765883494985027000,1753.9860270996094,0.3225368559360504,0.4178318381309509,0.3188716471195221
1765883494995067400,1753.9960673828125,0.2785545587539673,0.47769662737846375,0.598647952079773
1765883495005077200,1754.0060771484375,0.2015855312347412,0.4911356568336487,0.978606104850769
1765883495025096700,1754.0260966796875,0.0708603709936142,0.4544837474822998,1.3756685256958008
1765883495035076000,1754.036076171875,-0.05742133408784866,0.4092797040939331,1.320690631866455
1765883495045055200,1754.0460551757812,-0.17104226350784302,0.3494149148464203,1.2657127380371094
1765883495055034400,1754.0560344238281,-0.2382374405860901,0.30543261766433716,1.2571606636047363
1765883495065013800,1754.066013671875,-0.32620203495025635,0.3090978264808655,1.1924089193344116
1765883495075023600,1754.0760236816407,-0.4105014503002167,0.3274237811565399,1.1838568449020386
1765883495085033200,1754.086033203125,-0.45692721009254456,0.33719760179519653,1.284038782119751
1765883495095043000,1754.09604296875,-0.44593164324760437,0.3530801236629486,1.3878858089447021
1765883495105022200,1754.1060222167969,-0.35185837745666504,0.38728857040405273,1.3768903017044067
1765883495115001600,1754.1160017089844,-0.2883284091949463,0.3933972120285034,1.1203268766403198
1765883495145000200,1754.1460002441406,-0.16493362188339233,0.28588494658470154,0.37629300355911255
1765883495155010000,1754.1560100097656,-0.17104226350784302,0.22968533635139465,0.32498031854629517
1765883495165020000,1754.1660200195313,-0.1966986060142517,0.17959438264369965,0.2174680233001709
1765883495175029500,1754.1760295410156,-0.23335053026676178,0.15271630883216858,0.09651670604944229
1765883495185009000,1754.1860087890625,-0.22846360504627228,0.13927727937698364,-0.010995574295520782
1765883495195018500,1754.1960185546875,-0.2028072625398636,0.11972958594560623,-0.0659734457731247
1765883495204998000,1754.2059978027344,-0.1661553531885147,0.1111774742603302,-0.07208210229873657
1765883495214946600,1754.2159465332031,-0.09040805697441101,0.14782938361167908,-0.03787364438176155
1765883495224926000,1754.2259260253907,-0.006108652334660292,0.2015855312347412,-0.0757472887635231
1765883495234874600,1754.2358745117187,0.10262536257505417,0.2577851414680481,-0.16493362188339233
1765883495264904000,1754.2659040527344,0.4129449129104614,0.31154128909111023,-0.3335324227809906
1765883495274883000,1754.2758830566406,0.5167919993400574,0.3127630054950714,-0.375071257352829
1765883495284893000,1754.2858928222656,0.6096435189247131,0.3188716471195221,-0.45814892649650574
1765883495294872000,1754.2958720703125,0.6633996367454529,0.3225368559360504,-0.6035348773002625
1765883495304882000,1754.3058818359375,0.6707300543785095,0.3066543638706207,-0.7232644557952881
1765883495314891800,1754.3158918457032,0.6976081132888794,0.2638937830924988,-0.7269296646118164
1765883495324931800,1754.3259318847656,0.6902777552604675,0.21380282938480377,-0.6646214127540588
1765883495354900200,1754.3559001464844,0.5925393104553223,0.024434609338641167,-0.6817256212234497
1765883495364910000,1754.36591015625,0.5412266254425049,-0.09773843735456467,-0.7269296646118164
1765883495374889200,1754.3758891601562,0.50335294008255,-0.21502456068992615,-0.7098253965377808
1765883495384838000,1754.385837890625,0.4544837474822998,-0.2773328125476837,-0.7244861721992493
1765883495394847700,1754.39584765625,0.43127086758613586,-0.28955012559890747,-0.7049384713172913
1765883495404796400,1754.4057963867187,0.3787364661693573,-0.23945917189121246,-0.6291912198066711
1765883495414836700,1754.4158366699219,0.30054569244384766,-0.17592918872833252,-0.5363397002220154
1765883495424846600,1754.4258466796875,0.27122417092323303,-0.11362093687057495,-0.4386012554168701
1765883495434856200,1754.4358562011719,0.29077184200286865,-0.04886921867728233,-0.3384193480014801
1765883495484813600,1754.4858134765625,0.12461651116609573,0.00855211354792118,-0.3090978264808655
1765883495494792700,1754.4957927246094,0.08918632566928864,0.015882495790719986,-0.24434609711170197
1765883495504802600,1754.5058024902344,0.08918632566928864,0.015882495790719986,-0.24434609711170197
1765883495514843000,1754.5158427734375,0.05864306539297104,0.05009094998240471,-0.21624629199504852
1765883495524852500,1754.5258525390625,0.05864306539297104,0.08552113175392151,-0.23457226157188416
1765883495534831900,1754.5358317871094,0.07208210229873657,0.1111774742603302,-0.2370157092809677
1765883495544811000,1754.5458110351562,0.08307767659425735,0.1160643994808197,-0.24434609711170197
1765883495554790400,1754.5557902832031,0.11362093687057495,0.1014036312699318,-0.27488934993743896
1765883495584789200,1754.5857893066407,0.1869247704744339,0.12461651116609573,-0.40194934606552124
1765883495594768400,1754.5957683105469,0.21502456068992615,0.11850785464048386,-0.5155702829360962
1765883495604747500,1754.6057475585937,0.2321287989616394,0.11484266817569733,-0.5839871764183044
1765883495614787800,1754.6157878417969,0.23457226157188416,0.14905111491680145,-0.5998696684837341
1765883495624767200,1754.6257673339844,0.2577851414680481,0.18570303916931152,-0.5387831330299377
