time,seconds_elapsed,z,y,x
1765542740085853000,-3.14614697265625,9.825803756713867,0.24899697303771973,-1.941697597503662
1765542740095801600,-3.136198486328125,9.720458984375,0,-1.9249382019042969
1765542740105842000,-3.126157958984375,9.749189376831055,-0.090979665517807,-1.944091796875
1765542740125831000,-3.106169189453125,9.799467086791992,0.08619125932455063,-1.8171991109848022
1765542740135810000,-3.09618994140625,9.734824180603027,0.0454898327589035,-1.8770540952682495
1765542740145850400,-3.086149658203125,9.6989107131958,-0.21308395266532898,-1.886630892753601
1765542740155860200,-3.076139892578125,9.710882186889648,-0.09816227108240128,-1.8794482946395874
1765542740165869800,-3.066130126953125,9.715670585632324,0.026336219161748886,-1.7836803197860718
1765542740175879700,-3.056120361328125,9.720458984375,-0.0933738648891449,-1.721431016921997
1765542740185920000,-3.046080078125,9.646238327026367,-0.31124621629714966,-1.7980455160140991
1765542740195929600,-3.0360703125,9.68933391571045,-0.3495534360408783,-1.8507179021835327
1765542740215949300,-3.01605078125,9.988609313964844,-0.1388636976480484,-1.8291701078414917
1765542740235938300,-2.996061767578125,9.8784761428833,-0.035913024097681046,-1.6927006244659424
1765542740245978600,-2.986021484375,9.93354320526123,-0.06703764945268631,-1.7741034030914307
1765542740255988200,-2.97601171875,9.931148529052734,-0.10534487664699554,-1.8267759084701538
1765542740266028500,-2.965971435546875,9.971850395202637,-0.13168109953403473,-1.8267759084701538
1765542740276008000,-2.955991943359375,10.010157585144043,-0.043095629662275314,-1.7741034030914307
1765542740286017500,-2.945982421875,10.0580415725708,0.0454898327589035,-1.7693150043487549
1765542740296027400,-2.93597265625,10.08437728881836,-0.047884032130241394,-1.7597382068634033
1765542740306006500,-2.925993408203125,9.880870819091797,-0.05267243832349777,-1.778891921043396
1765542740335975000,-2.896025146484375,9.701305389404297,0.05027823522686958,-1.900996208190918
1765542740346045700,-2.885954345703125,9.775525093078613,-0.07422025501728058,-1.821987509727478
1765542740356024800,-2.87597509765625,9.799467086791992,0.07661445438861847,-1.7836803197860718
1765542740366065200,-2.865934814453125,9.804255485534668,0.038307227194309235,-1.8052281141281128
1765542740376075000,-2.855925048828125,9.710882186889648,0.033518824726343155,-1.800439715385437
1765542740386084900,-2.8459150390625,9.658209800720215,-0.023942016065120697,-1.8148049116134644
1765542740396094500,-2.835905517578125,9.658209800720215,-0.023942016065120697,-1.8148049116134644
1765542740406134800,-2.825865234375,9.605537414550781,0.06464344263076782,-1.802833914756775
1765542740426123800,-2.805876220703125,9.641449928283691,-0.2106897532939911,-1.7836803197860718
1765542740436103200,-2.795896728515625,9.734824180603027,-0.20350714027881622,-1.7357962131500244
1765542740446143200,-2.785856689453125,9.816226959228516,-0.09576806426048279,-1.6831238269805908
1765542740456153000,-2.775846923828125,9.794678688049316,-0.038307227194309235,-1.6089035272598267
1765542740466132500,-2.765867431640625,9.823410034179688,-0.0454898327589035,-1.6927006244659424
1765542740476142000,-2.75585791015625,9.725247383117676,-0.1364694982767105,-1.7884687185287476
1765542740486121500,-2.74587841796875,9.691728591918945,0.019153613597154617,-1.7118542194366455
1765542740496100600,-2.7358994140625,9.744400978088379,-0.08379705995321274,-1.7070658206939697
1765542740506110500,-2.7258896484375,9.667786598205566,-0.15083470940589905,-1.7286136150360107
1765542740516089600,-2.715910400390625,9.658209800720215,0.035913024097681046,-1.8842366933822632
1765542740536109000,-2.695890869140625,9.813833236694336,-0.13168109953403473,-1.843535304069519
1765542740546088400,-2.68591162109375,9.821015357971191,-0.14844051003456116,-1.7860745191574097
1765542740556067600,-2.675932373046875,9.921571731567383,-0.011971008032560349,-1.86508309841156
1765542740566108000,-2.66589208984375,10.005369186401367,0.08619125932455063,-1.8148049116134644
1765542740576117800,-2.65588232421875,10.007762908935547,0.08379705995321274,-1.8411411046981812
1765542740586127400,-2.64587255859375,9.99339771270752,0.12689268589019775,-1.922544002532959
1765542740596106800,-2.635893310546875,9.919178009033203,-0.040701430290937424,-1.9321208000183105
1765542740606086000,-2.6259140625,9.835380554199219,-0.21308395266532898,-1.7764976024627686
1765542740616065300,-2.615934814453125,9.749189376831055,-0.3734954595565796,-1.7956513166427612
1765542740626075000,-2.605925048828125,9.799467086791992,-0.24899697303771973,-1.7142484188079834
1765542740646063900,-2.58593603515625,9.837775230407715,-0.06224924325942993,-1.723825216293335
1765542740656073700,-2.57592626953125,9.804255485534668,-0.06464344263076782,-1.644816517829895
1765542740666053000,-2.56594677734375,9.804255485534668,-0.12449848651885986,-1.7286136150360107
1765542740676062700,-2.555937255859375,9.797073364257812,-0.395043283700943,-1.7956513166427612
1765542740686042000,-2.5459580078125,9.84495735168457,-0.13407529890537262,-1.6136919260025024
1765542740696051700,-2.5359482421875,9.840168952941895,-0.11013327538967133,-1.7741034030914307
1765542740706031000,-2.525968994140625,9.773131370544434,-0.090979665517807,-1.8124107122421265
1765542740716010200,-2.51598974609375,9.974244117736816,-0.08858546614646912,-1.7932571172714233
1765542740756019000,-2.47598095703125,9.952696800231934,-0.15083470940589905,-1.900996208190918
1765542740766028500,-2.465971435546875,9.96945571899414,-0.0694318488240242,-1.8579005002975464
1765542740776038400,-2.455961669921875,9.981427192687988,-0.05506663769483566,-1.9943699836730957
1765542740786017500,-2.445982421875,9.864110946655273,-0.0933738648891449,-1.9800047874450684
1765542740795997000,-2.436003173828125,9.859322547912598,-0.05027823522686958,-1.922544002532959
1765542740806006500,-2.425993408203125,9.852140426635742,-0.11013327538967133,-2.0207061767578125
1765542740816016400,-2.415983642578125,9.80904483795166,0.05746084079146385,-1.965639591217041
1765542740826026200,-2.405973876953125,9.773131370544434,0.009576806798577309,-1.9033904075622559
1765542740856024800,-2.37597509765625,9.713275909423828,-0.2825157940387726,-1.843535304069519
1765542740866034700,-2.36596533203125,9.653421401977539,-0.23702596127986908,-1.8794482946395874
1765542740876044500,-2.35595556640625,9.670180320739746,-0.19153612852096558,-1.7118542194366455
1765542740886054100,-2.34594580078125,9.701305389404297,-0.20111294090747833,-1.7334020137786865
1765542740896064000,-2.33593603515625,9.696516990661621,-0.20111294090747833,-1.8579005002975464
1765542740906073900,-2.325926025390625,9.75397777557373,-0.10295066982507706,-1.8148049116134644
1765542740916053000,-2.315947021484375,9.801861763000488,-0.15801730751991272,-1.7621324062347412
1765542740926093300,-2.30590673828125,9.825803756713867,-0.12928688526153564,-1.8195933103561401
1765542740936103200,-2.295896728515625,9.780313491821289,-0.021547814831137657,-1.802833914756775
1765542740976111600,-2.255888427734375,9.732429504394531,-0.1843535304069519,-1.8363527059555054
1765542740986121500,-2.24587841796875,9.86650562286377,-0.12210428714752197,-1.7477672100067139
1765542740996131000,-2.235868896484375,9.914389610290527,-0.19153612852096558,-1.745373010635376
1765542741006141000,-2.225859130859375,9.981427192687988,-0.15801730751991272,-1.821987509727478
1765542741016150800,-2.21584912109375,9.773131370544434,-0.019153613597154617,-1.7405846118927002
1765542741026160400,-2.205839599609375,9.768342971801758,-0.038307227194309235,-1.6304513216018677
1765542741036170200,-2.195829833984375,9.876082420349121,-0.033518824726343155,-1.766920804977417
1765542741046210600,-2.18578955078125,9.876082420349121,-0.033518824726343155,-1.766920804977417
1765542741066199600,-2.165800537109375,9.967061996459961,-0.40222588181495667,-1.7860745191574097
1765542741076209200,-2.155790771484375,9.892841339111328,-0.26336219906806946,-1.7549498081207275
1765542741086188500,-2.1458115234375,9.945513725280762,-0.13168109953403473,-1.886630892753601
1765542741096198100,-2.1358017578125,9.96945571899414,-0.14604631066322327,-1.800439715385437
1765542741106208000,-2.1257919921875,9.988609313964844,-0.1412578970193863,-1.9177556037902832
1765542741116217900,-2.1157822265625,9.974244117736816,-0.026336219161748886,-1.9033904075622559
1765542741126197000,-2.105802978515625,9.938331604003906,-0.19393034279346466,-1.8914192914962769
1765542741136206800,-2.095793212890625,9.892841339111328,-0.12689268589019775,-1.8555063009262085
1765542741146216700,-2.085783203125,9.816226959228516,-0.08379705995321274,-1.843535304069519
1765542741156195800,-2.07580419921875,9.923966407775879,-0.15322890877723694,-1.8315643072128296
1765542741196296000,-2.0357041015625,9.742006301879883,0.0454898327589035,-1.7741034030914307
1765542741206336300,-2.025663818359375,9.835380554199219,0.016759412363171577,-1.7741034030914307
1765542741216345900,-2.015654052734375,9.797073364257812,-0.06703764945268631,-1.8794482946395874
1765542741226325200,-2.0056748046875,9.780313491821289,-0.06224924325942993,-1.9273324012756348
1765542741236304400,-1.995695556640625,9.792284965515137,-0.2082955539226532,-1.8722656965255737
1765542741246344700,-1.9856552734375,9.744400978088379,-0.3878606855869293,-1.8602946996688843
1765542741256324000,-1.975676025390625,9.670180320739746,-0.33518823981285095,-1.7836803197860718
1765542741266333700,-1.965666259765625,9.725247383117676,-0.21308395266532898,-1.7717092037200928
1765542741296302000,-1.935697998046875,9.897629737854004,-0.1149216815829277,-1.8794482946395874
1765542741306311700,-1.925688232421875,9.873687744140625,0.033518824726343155,-1.824381709098816
1765542741316321500,-1.915678466796875,9.80904483795166,0.09576806426048279,-1.7741034030914307
1765542741336310500,-1.895689453125,9.761159896850586,-0.23702596127986908,-1.8602946996688843
1765542741346320400,-1.8856796875,9.832986831665039,-0.37828385829925537,-1.9393033981323242
1765542741356299500,-1.875700439453125,9.86889934539795,-0.18914192914962769,-1.9560627937316895
1765542741386328800,-1.845671142578125,9.84256362915039,-0.1388636976480484,-1.886630892753601
1765542741396338700,-1.835661376953125,9.81143856048584,-0.1149216815829277,-1.8076223134994507
1765542741406348500,-1.8256513671875,9.78989028930664,-0.21308395266532898,-1.8148049116134644
1765542741416358100,-1.815641845703125,9.816226959228516,-0.1149216815829277,-1.8267759084701538
1765542741426368000,-1.805632080078125,9.818621635437012,-0.07900865375995636,-1.7501614093780518
1765542741436347100,-1.79565283203125,9.821015357971191,-0.1604115068912506,-1.86508309841156
1765542741446357000,-1.78564306640625,9.871294021606445,-0.09816227108240128,-1.8267759084701538
1765542741456366800,-1.775633056640625,9.813833236694336,-0.1604115068912506,-1.702277421951294
1765542741466407000,-1.765593017578125,9.792284965515137,-0.2585737705230713,-1.8483237028121948
1765542741476416800,-1.755583251953125,9.830592155456543,-0.10055647045373917,-1.8555063009262085
1765542741516394800,-1.715605224609375,9.80904483795166,-0.1388636976480484,-1.7405846118927002
1765542741526404600,-1.705595458984375,9.775525093078613,-0.28730419278144836,-1.7717092037200928
1765542741536414500,-1.69558544921875,9.770736694335938,-0.033518824726343155,-1.7573440074920654
1765542741546424000,-1.685575927734375,9.86889934539795,-0.1149216815829277,-1.7142484188079834
1765542741556434000,-1.675566162109375,9.964667320251465,-0.1604115068912506,-1.8363527059555054
1765542741566443500,-1.665556396484375,9.986215591430664,-0.11971008777618408,-1.8411411046981812
1765542741576392400,-1.655607666015625,9.952696800231934,-0.07661445438861847,-1.745373010635376
1765542741586402000,-1.645597900390625,9.792284965515137,-0.2849099934101105,-1.843535304069519
1765542741606421800,-1.625578125,9.871294021606445,-0.004788403399288654,-1.7717092037200928
1765542741616431400,-1.615568603515625,9.883264541625977,-0.15801730751991272,-1.7764976024627686
1765542741626441200,-1.605558837890625,9.967061996459961,-0.3232172429561615,-1.9704279899597168
1765542741636420400,-1.59557958984375,10.002974510192871,-0.0454898327589035,-1.8746598958969116
1765542741646430200,-1.58556982421875,9.995792388916016,0.06464344263076782,-1.764526605606079
1765542741656409300,-1.575590576171875,9.897629737854004,-0.026336219161748886,-1.843535304069519
1765542741666388700,-1.565611328125,9.797073364257812,-0.0454898327589035,-1.8411411046981812
1765542741676398600,-1.555601318359375,9.732429504394531,0.06224924325942993,-1.7597382068634033
1765542741686408200,-1.545591796875,9.715670585632324,0.05985504388809204,-1.721431016921997
1765542741736426500,-1.495573486328125,9.713275909423828,-0.033518824726343155,-1.8171991109848022
1765542741746436400,-1.485563720703125,9.758766174316406,-0.12928688526153564,-1.800439715385437
1765542741756446000,-1.475553955078125,9.835380554199219,-0.2322375625371933,-1.7836803197860718
1765542741766455800,-1.465544189453125,9.84256362915039,-0.2753331959247589,-1.764526605606079
1765542741776465700,-1.455534423828125,9.78989028930664,-0.1628057211637497,-1.821987509727478
1765542741786444800,-1.44555517578125,9.785101890563965,-0.038307227194309235,-1.8291701078414917
1765542741796454700,-1.43554541015625,9.804255485534668,-0.16519992053508759,-1.656787633895874
1765542741826453500,-1.40554638671875,9.746794700622559,-0.06703764945268631,-1.764526605606079
1765542741836371700,-1.395628173828125,9.847352027893066,0.028730420395731926,-1.7932571172714233
1765542741846411800,-1.385588134765625,9.888052940368652,0.10295066982507706,-1.8171991109848022
1765542741856421600,-1.375578369140625,9.859322547912598,0.05267243832349777,-1.8770540952682495
1765542741866401000,-1.365598876953125,9.873687744140625,-0.019153613597154617,-1.7764976024627686
1765542741876349700,-1.355650390625,9.840168952941895,-0.12689268589019775,-1.7597382068634033
1765542741886359300,-1.345640625,9.835380554199219,-0.2082955539226532,-1.7190368175506592
1765542741896338700,-1.335661376953125,9.828198432922363,-0.20111294090747833,-1.8315643072128296
1765542741916388600,-1.315611328125,9.713275909423828,-0.08858546614646912,-1.8052281141281128
1765542741926368000,-1.305632080078125,9.818621635437012,-0.1604115068912506,-1.766920804977417
1765542741936377600,-1.295622314453125,9.792284965515137,-0.1173158809542656,-1.745373010635376
1765542741946357000,-1.28564306640625,9.943120002746582,-0.1364694982767105,-1.8052281141281128
1765542741956336000,-1.275663818359375,9.995792388916016,-0.009576806798577309,-1.8818424940109253
1765542741966346000,-1.265654052734375,9.998186111450195,0.12210428714752197,-1.8267759084701538
1765542741976355800,-1.25564404296875,9.93593692779541,0.019153613597154617,-1.7717092037200928
1765542741986396000,-1.24560400390625,9.926360130310059,-0.014365210197865963,-1.843535304069519
1765542741996375300,-1.235624755859375,9.962273597717285,-0.05506663769483566,-1.7812861204147339
1765542742006415600,-1.22558447265625,9.931148529052734,0.14365209639072418,-1.702277421951294
1765542742016394800,-1.215605224609375,9.931148529052734,0.035913024097681046,-1.678335428237915
1765542742026404600,-1.205595458984375,9.945513725280762,-0.043095629662275314,-1.7597382068634033
1765542742036414500,-1.19558544921875,9.885659217834473,-0.13168109953403473,-1.821987509727478
1765542742046424000,-1.185575927734375,9.885659217834473,-0.26096799969673157,-1.7764976024627686
1765542742056403500,-1.175596435546875,9.873687744140625,-0.27054479718208313,-1.8363527059555054
1765542742066413000,-1.1655869140625,9.84495735168457,-0.31603461503982544,-1.8626888990402222
1765542742076392400,-1.155607666015625,9.849745750427246,-0.13168109953403473,-1.8267759084701538
1765542742086432800,-1.145567138671875,9.8784761428833,-0.10055647045373917,-1.7836803197860718
1765542742096442400,-1.1355576171875,9.828198432922363,-0.009576806798577309,-1.7549498081207275
1765542742106452200,-1.1255478515625,9.828198432922363,0.07661445438861847,-1.742978811264038
1765542742116431400,-1.115568603515625,9.78989028930664,0.13407529890537262,-1.8148049116134644
1765542742126410800,-1.10558935546875,9.773131370544434,0.05506663769483566,-1.7525556087493896
1765542742136420400,-1.09557958984375,9.718064308166504,-0.18914192914962769,-1.8100165128707886
1765542742146460700,-1.085539306640625,9.708487510681152,-0.2537853717803955,-1.8722656965255737
1765542742156470500,-1.075529541015625,9.739612579345703,-0.2801215946674347,-1.7166426181793213
1765542742166510800,-1.0654892578125,9.801861763000488,-0.15801730751991272,-1.7764976024627686
1765542742176520400,-1.0554794921875,9.830592155456543,-0.1173158809542656,-1.7190368175506592
1765542742186530300,-1.0454697265625,9.90241813659668,-0.011971008032560349,-1.7262194156646729
1765542742196509400,-1.035490478515625,9.888052940368652,0.07661445438861847,-1.7405846118927002
1765542742206549800,-1.0254501953125,9.823410034179688,-0.1364694982767105,-1.7070658206939697
1765542742236548600,-0.995451416015625,9.909601211547852,-0.021547814831137657,-1.6184803247451782
1765542742296576800,-0.93542333984375,9.890447616577148,-0.27054479718208313,-1.7070658206939697
1765542742307586600,-0.924413330078125,9.880870819091797,-0.21787235140800476,-1.7118542194366455
1765542742317596200,-0.91440380859375,9.859322547912598,-0.021547814831137657,-1.699883222579956
1765542742327606000,-0.90439404296875,9.840168952941895,0.08858546614646912,-1.6759412288665771
1765542742357696300,-0.8743037109375,9.821015357971191,0.026336219161748886,-1.764526605606079
1765542742367706000,-0.8642939453125,9.84256362915039,0.040701430290937424,-1.7262194156646729
1765542742377777000,-0.85422314453125,9.672574996948242,-0.038307227194309235,-1.6352397203445435
1765542742387786800,-0.844213134765625,9.672574996948242,-0.038307227194309235,-1.6352397203445435
1765542742397796400,-0.83420361328125,9.672574996948242,-0.13168109953403473,-1.6759412288665771
1765542742407806200,-0.82419384765625,9.677363395690918,-0.0933738648891449,-1.6974890232086182
1765542742417785300,-0.814214599609375,9.746794700622559,-0.22744916379451752,-1.6855180263519287
1765542742427764700,-0.8042353515625,9.804255485534668,-0.2537853717803955,-1.7860745191574097
1765542742437805000,-0.79419482421875,9.928754806518555,-0.05746084079146385,-1.8076223134994507
1765542742447814700,-0.784185302734375,9.9000244140625,0.1843535304069519,-1.86508309841156
1765542742457794000,-0.7742060546875,9.806650161743164,0.26575639843940735,-1.742978811264038
1765542742467803600,-0.7641962890625,9.737217903137207,0.1412578970193863,-1.6831238269805908
1765542742477813500,-0.7541865234375,9.694122314453125,-0.15322890877723694,-1.7070658206939697
1765542742487823400,-0.7441767578125,9.749189376831055,-0.1867477297782898,-1.5873557329177856
1765542742497863700,-0.73413623046875,9.734824180603027,-0.021547814831137657,-1.5059528350830078
1765542742507873300,-0.724126708984375,9.830592155456543,0.05506663769483566,-1.625662922859192
1765542742517883100,-0.714116943359375,9.852140426635742,0.009576806798577309,-1.6687586307525635
1765542742527892700,-0.704107177734375,9.856928825378418,0.07182604819536209,-1.678335428237915
1765542742557891600,-0.6741083984375,9.86889934539795,-0.021547814831137657,-1.7621324062347412
1765542742567901400,-0.6640986328125,9.84495735168457,-0.014365210197865963,-1.6974890232086182
1765542742577850000,-0.65414990234375,9.780313491821289,-0.0694318488240242,-1.678335428237915
1765542742587860000,-0.64414013671875,9.744400978088379,-0.10534487664699554,-1.6759412288665771
1765542742597839000,-0.634160888671875,9.730035781860352,-0.20111294090747833,-1.647210717201233
1765542742607849000,-0.624151123046875,9.737217903137207,-0.18914192914962769,-1.6687586307525635
1765542742617858600,-0.614141357421875,9.84495735168457,-0.040701430290937424,-1.6376339197158813
1765542742627868400,-0.604131591796875,9.840168952941895,-0.09576806426048279,-1.6759412288665771
1765542742637847800,-0.594152099609375,9.840168952941895,-0.090979665517807,-1.6496049165725708
1765542742667907600,-0.564092529296875,9.837775230407715,0.16759411990642548,-1.8315643072128296
1765542742677917200,-0.554082763671875,9.832986831665039,0.1843535304069519,-1.8195933103561401
1765542742687927000,-0.544072998046875,9.873687744140625,0.019153613597154617,-1.9273324012756348
1765542742697937000,-0.53406298828125,9.77791976928711,-0.035913024097681046,-1.8531121015548706
1765542742707946500,-0.524053466796875,9.801861763000488,-0.12449848651885986,-1.886630892753601
1765542742717956400,-0.514043701171875,9.832986831665039,-0.2537853717803955,-1.8770540952682495
1765542742727966200,-0.50403369140625,9.758766174316406,-0.11013327538967133,-1.965639591217041
1765542742737975800,-0.494024169921875,9.749189376831055,0.13407529890537262,-2.0207061767578125
1765542742747985700,-0.484014404296875,9.696516990661621,0.14844051003456116,-2.0015525817871094
1765542742757995300,-0.474004638671875,9.569623947143555,0.26575639843940735,-2.188300371170044
1765542742768005000,-0.463994873046875,9.531316757202148,0.42377370595932007,-2.343923568725586
1765542742778015000,-0.453985107421875,9.607931137084961,0.26575639843940735,-2.4588451385498047
1765542742788024600,-0.443975341796875,9.586383819580078,0.5626373887062073,-2.406172752380371
1765542742798034400,-0.433965576171875,9.66299819946289,0.33997663855552673,-2.0901381969451904
1765542742808074800,-0.42392529296875,9.641449928283691,0.014365210197865963,-1.9560627937316895
1765542742818115000,-0.413885009765625,9.6989107131958,-0.047884032130241394,-2.1140801906585693
1765542742828124700,-0.403875244140625,9.825803756713867,-0.12928688526153564,-2.094926595687866
1765542742848144400,-0.383855712890625,9.761159896850586,-0.05985504388809204,-2.1811177730560303
1765542742858123500,-0.37387646484375,9.816226959228516,-0.35913026332855225,-2.229001760482788
1765542742868163800,-0.363836181640625,9.80904483795166,-0.35434186458587646,-2.2577321529388428
1765542742878173700,-0.353826416015625,9.674968719482422,-0.22266076505184174,-2.161964178085327
1765542742888183300,-0.343816650390625,9.715670585632324,-0.15562310814857483,-1.764526605606079
1765542742898132200,-0.33386767578125,9.62947940826416,-0.040701430290937424,-1.6496049165725708
1765542742908141800,-0.323858154296875,9.684545516967773,-0.31603461503982544,-1.6400281190872192
1765542742918151700,-0.313848388671875,9.80904483795166,-0.4644751250743866,-1.7334020137786865
1765542742928192000,-0.30380810546875,9.787496566772461,-0.47644615173339844,-1.7573440074920654
1765542742938201600,-0.29379833984375,9.806650161743164,-0.24660277366638184,-1.6208745241165161
1765542742948181000,-0.283819091796875,9.679757118225098,-0.272938996553421,-1.6089035272598267
1765542742988220000,-0.243780029296875,9.469067573547363,-0.5961562395095825,-1.5849615335464478
1765542743008270000,-0.22372998046875,9.610325813293457,-0.44532153010368347,-1.4101848602294922
1765542743018280000,-0.213719970703125,9.883264541625977,-0.5554547905921936,-1.3694833517074585
1765542743028289500,-0.20371044921875,10.041281700134277,-0.3926490843296051,-1.3766659498214722
1765542743038269000,-0.19373095703125,10.139444351196289,-0.26336219906806946,-1.5514427423477173
1765542743048278500,-0.183721435546875,10.156203269958496,-0.23702596127986908,-1.7262194156646729
1765542743058288400,-0.173711669921875,10.326191902160645,-0.11971008777618408,-1.647210717201233
1765542743068328700,-0.16367138671875,10.326191902160645,-0.11971008777618408,-1.647210717201233
1765542743078338300,-0.15366162109375,10.390835762023926,-0.22266076505184174,-1.6304513216018677
1765542743088348200,-0.14365185546875,10.381258964538574,-0.31124621629714966,-1.680729627609253
1765542743098358000,-0.13364208984375,10.35252857208252,-0.5674257874488831,-1.6663644313812256
1765542743108398300,-0.1236015625,10.424354553222656,-0.6799532771110535,-1.6376339197158813
1765542743118408000,-0.113592041015625,10.41956615447998,-0.667982280254364,-1.5682021379470825
1765542743128448300,-0.1035517578125,10.38844108581543,-0.6248866319656372,-1.434126853942871
1765542743138458000,-0.0935419921875,10.213664054870605,-0.38067805767059326,-1.3742717504501343
1765542743148467700,-0.0835322265625,10.122684478759766,-0.7254431247711182,-1.2761094570159912
1765542743158477600,-0.0735224609375,9.945513725280762,-0.7996633648872375,-1.3910311460494995
1765542743168487400,-0.0635126953125,9.720458984375,-0.629675030708313,-1.1755530834197998
1765542743178497000,-0.0535029296875,9.567230224609375,-0.6967126727104187,-1.05105459690094
1765542743188507000,-0.0434931640625,9.476250648498535,-0.8020575642585754,-1.01753568649292
1765542743208526300,-0.0234736328125,9.514557838439941,-1.0749965906143188,-0.9433154463768005
1765542743218536200,-0.0134638671875,9.603142738342285,-0.912190854549408,-0.9528923034667969
1765542743228546000,-0.003453857421875,9.77791976928711,-0.8451532125473022,-1.1085153818130493
1765542743238555600,0.0065556640625,9.775525093078613,-0.7709329724311829,-1.314416766166687
1765542743248565500,0.0165654296875,9.751583099365234,-0.6847416758537292,-1.37906014919281
1765542743268615400,0.036615478515625,9.782708168029785,-0.9816226959228516,-1.4508862495422363
1765542743278594800,0.0465947265625,9.797073364257812,-0.8427590131759644,-1.6352397203445435
1765542743308624100,0.0766240234375,9.971850395202637,-0.5650315880775452,-1.7764976024627686
1765542743318603300,0.086603271484375,9.90241813659668,-0.7086837291717529,-1.9608511924743652
1765542743328613000,0.096613037109375,9.979032516479492,-0.4908113479614258,-2.03507137298584
1765542743338592300,0.10659228515625,10.038887977600098,-0.17956513166427612,-2.0183119773864746
1765542743348571600,0.116571533203125,9.950302124023438,0.023942016065120697,-2.0446481704711914
1765542743358612000,0.126612060546875,9.77791976928711,-0.2992752194404602,-2.03507137298584
1765542743368621600,0.13662158203125,9.588777542114258,-0.3878606855869293,-2.006340980529785
1765542743378631400,0.14663134765625,9.569623947143555,-0.524330198764801,-2.0446481704711914
1765542743388641000,0.15664111328125,9.406818389892578,-0.5315127968788147,-2.1092917919158936
1765542743398651000,0.16665087890625,9.440337181091309,-0.7350199222564697,-2.2601263523101807
1765542743438690000,0.20668994140625,9.660603523254395,-0.6823474764823914,-2.387019157409668
1765542743448730400,0.21673046875,9.655815124511719,-0.689530074596405,-2.3965959548950195
1765542743468719400,0.23671923828125,9.737217903137207,-0.5817909836769104,-2.209848165512085
1765542743478759400,0.246759521484375,9.84495735168457,-0.3711012601852417,-2.387019157409668
1765542743488769300,0.256769287109375,9.876082420349121,-0.24660277366638184,-2.2673089504241943
1765542743498718000,0.266718017578125,9.964667320251465,-0.21787235140800476,-2.3032219409942627
1765542743508758300,0.27675830078125,10.005369186401367,-0.5985504388809204,-2.3104045391082764
1765542743528778000,0.296778076171875,10.182539939880371,-0.4189853072166443,-2.0590133666992188
1765542743538757000,0.306757080078125,10.15141487121582,-0.4692635238170624,-1.9584569931030273
1765542743548767000,0.31676708984375,10.196905136108398,-0.5650315880775452,-1.8842366933822632
1765542743558807000,0.32680712890625,10.08198356628418,-0.689530074596405,-1.7884687185287476
1765542743568786400,0.336786376953125,9.928754806518555,-0.6512228846549988,-1.843535304069519
1765542743578765600,0.346765625,9.813833236694336,-0.7230489253997803,-1.721431016921997
1765542743588806000,0.356805908203125,9.830592155456543,-0.8403648138046265,-1.7836803197860718
1765542743598815700,0.366815673828125,9.852140426635742,-0.6703764796257019,-1.702277421951294
1765542743608825300,0.376825439453125,9.765948295593262,-0.6009446382522583,-1.6112977266311646
1765542743628814600,0.396814697265625,9.780313491821289,-0.8930372595787048,-1.577778935432434
1765542743638824200,0.40682421875,9.761159896850586,-0.768538773059845,-1.3934253454208374
1765542743648803600,0.416803466796875,9.818621635437012,-0.6871358752250671,-1.2737152576446533
1765542743658813200,0.426813232421875,9.81143856048584,-0.6991068720817566,-1.2832920551300049
1765542743668823000,0.436822998046875,9.897629737854004,-0.5770025849342346,-1.4963760375976562
1765542743678833000,0.4468330078125,9.832986831665039,-0.4620809257030487,-1.5514427423477173
1765542743688842500,0.456842529296875,9.746794700622559,-0.6200982332229614,-1.4939818382263184
1765542743698852400,0.466852294921875,9.780313491821289,-0.6105214357376099,-1.7046716213226318
1765542743708862200,0.4768623046875,9.78989028930664,-0.5051765441894531,-1.6950948238372803
1765542743718841300,0.48684130859375,9.938331604003906,-0.6344634294509888,-1.5275006294250488
1765542743738830300,0.506830322265625,9.90241813659668,-0.667982280254364,-1.5682021379470825
1765542743748870700,0.51687060546875,9.871294021606445,-0.6368576288223267,-1.580173134803772
1765542743758880500,0.526880615234375,9.871294021606445,-0.6368576288223267,-1.580173134803772
1765542743768890000,0.53689013671875,9.8784761428833,-0.667982280254364,-1.6041151285171509
1765542743778900000,0.54689990234375,9.835380554199219,-0.6943184733390808,-1.659181833267212
1765542743788909800,0.556909912109375,9.892841339111328,-0.524330198764801,-1.7286136150360107
1765542743798919400,0.56691943359375,9.8784761428833,-0.44771572947502136,-1.647210717201233
1765542743808959700,0.576959716796875,9.794678688049316,-0.5913678407669067,-1.6711528301239014
1765542743818969600,0.586969482421875,9.737217903137207,-0.7086837291717529,-1.6519991159439087
1765542743828948700,0.59694873046875,9.75637149810791,-0.47165772318840027,-1.5203180313110352
1765542743848937700,0.616937744140625,9.744400978088379,-0.6057330369949341,-1.6711528301239014
1765542743858917000,0.626917236328125,9.775525093078613,-0.4812345504760742,-1.7046716213226318
1765542743878936600,0.6469365234375,9.871294021606445,-0.751779317855835,-1.7836803197860718
1765542743888977000,0.656976806640625,9.821015357971191,-0.4884171485900879,-1.800439715385437
1765542743898986500,0.666986572265625,9.758766174316406,-0.33279404044151306,-1.6136919260025024
1765542743909026800,0.67702685546875,9.75637149810791,-0.4596867263317108,-1.6424223184585571
1765542743919036700,0.68703662109375,9.727641105651855,-0.4381389021873474,-1.721431016921997
1765542743929077000,0.697076904296875,9.823410034179688,-0.26096799969673157,-1.824381709098816
1765542743949096400,0.717096435546875,9.600749015808105,-0.14604631066322327,-1.9369091987609863
1765542743959106300,0.727106201171875,9.66539192199707,-0.4165911078453064,-1.7621324062347412
1765542743969085400,0.73708544921875,9.677363395690918,-0.8403648138046265,-1.8291701078414917
1765542743979095300,0.74709521484375,9.840168952941895,-0.7350199222564697,-1.8171991109848022
1765542743989105000,0.75710498046875,9.904812812805176,-0.4620809257030487,-1.745373010635376
1765542743999114800,0.76711474609375,9.859322547912598,-0.4357447028160095,-1.7501614093780518
1765542744009124600,0.77712451171875,9.749189376831055,-0.4405331015586853,-1.886630892753601
1765542744029113600,0.797113525390625,9.739612579345703,-0.7805097699165344,-1.946485996246338
1765542744039123200,0.807123291015625,9.835380554199219,-0.7493851184844971,-2.008735179901123
1765542744049133000,0.817133056640625,9.981427192687988,-0.4836287498474121,-1.8363527059555054
1765542744069061000,0.83706103515625,10.070012092590332,-0.2513911724090576,-1.9393033981323242
1765542744079101400,0.847101318359375,10.007762908935547,-0.33518823981285095,-1.922544002532959
1765542744089141500,0.8571416015625,9.888052940368652,-0.44532153010368347,-1.8363527059555054
1765542744099151400,0.8671513671875,9.775525093078613,-0.7182605266571045,-1.8555063009262085
1765542744109161200,0.8771611328125,9.852140426635742,-0.6368576288223267,-1.9033904075622559
1765542744119170800,0.8871708984375,9.830592155456543,-0.47405192255973816,-1.7693150043487549
1765542744129180700,0.8971806640625,9.787496566772461,-0.4572925269603729,-1.699883222579956
1765542744139129300,0.90712939453125,9.660603523254395,-0.5027823448181152,-1.8315643072128296
1765542744159179500,0.927179443359375,9.636661529541016,-0.28969839215278625,-1.8746598958969116
1765542744179199000,0.947198974609375,9.749189376831055,-0.395043283700943,-2.0039467811584473
1765542744189208800,0.957208740234375,9.651026725769043,-0.47644615173339844,-2.0374655723571777
1765542744199218400,0.967218505859375,9.706093788146973,-0.6560112833976746,-1.845929503440857
1765542744209228300,0.977228271484375,9.751583099365234,-0.6560112833976746,-1.9608511924743652
1765542744219238100,0.987238037109375,9.837775230407715,-0.6919242739677429,-1.886630892753601
1765542744229278500,0.997278564453125,9.907206535339355,-0.48602294921875,-1.8794482946395874
1765542744239257600,1.007257568359375,9.835380554199219,-0.44532153010368347,-1.845929503440857
1765542744249298000,1.0172978515625,9.77791976928711,-0.5674257874488831,-1.98958158493042
1765542744269317400,1.0373173828125,9.832986831665039,-0.3447650372982025,-1.9536685943603516
1765542744289336800,1.0573369140625,9.873687744140625,-0.33758243918418884,-1.9584569931030273
1765542744299346700,1.0673466796875,9.914389610290527,-0.4357447028160095,-1.9297266006469727
1765542744309356500,1.0773564453125,9.816226959228516,-0.5722141861915588,-1.8626888990402222
1765542744319396900,1.08739697265625,9.883264541625977,-0.5889736413955688,-1.9800047874450684
1765542744329437000,1.09743701171875,9.86650562286377,-0.5817909836769104,-1.8938134908676147
1765542744339446800,1.10744677734375,9.871294021606445,-0.6224924325942993,-1.9033904075622559
1765542744349456600,1.11745654296875,9.830592155456543,-0.5650315880775452,-1.8148049116134644
1765542744359497000,1.1274970703125,9.780313491821289,-0.4141969084739685,-1.800439715385437
1765542744389526300,1.1575263671875,9.739612579345703,-0.8044517636299133,-1.821987509727478
1765542744399535900,1.167535888671875,9.885659217834473,-0.7757213711738586,-1.6687586307525635
1765542744409545700,1.177545654296875,9.797073364257812,-0.8236053586006165,-1.702277421951294
1765542744419586000,1.1875859375,9.84495735168457,-0.5482721924781799,-1.7764976024627686
1765542744429595600,1.197595703125,9.727641105651855,-0.3471592366695404,-1.6927006244659424
1765542744439605500,1.20760546875,9.93593692779541,-0.2537853717803955,-1.8291701078414917
1765542744449615400,1.217615478515625,9.93593692779541,-0.2537853717803955,-1.8291701078414917
1765542744459625000,1.227625,9.99339771270752,-0.4141969084739685,-1.8602946996688843
1765542744469634800,1.237634765625,10.072406768798828,-0.4405331015586853,-1.8171991109848022
1765542744479614000,1.247614013671875,10.041281700134277,-0.3064578175544739,-1.8363527059555054
1765542744489623800,1.257623779296875,9.986215591430664,-0.545877993106842,-1.8722656965255737
1765542744499633700,1.267633544921875,9.86889934539795,-0.6153098344802856,-2.0446481704711914
1765542744509612800,1.27761279296875,9.816226959228516,-0.3423708379268646,-1.9321208000183105
1765542744519653000,1.287653076171875,9.897629737854004,-0.1149216815829277,-1.968033790588379
1765542744529663000,1.2976630859375,9.758766174316406,-0.33758243918418884,-2.142810583114624
1765542744539672600,1.307672607421875,9.6989107131958,-0.3447650372982025,-1.9728221893310547
1765542744549682400,1.317682373046875,9.770736694335938,-0.40222588181495667,-1.9704279899597168
1765542744559692300,1.3276923828125,9.797073364257812,-0.7134721279144287,-1.9393033981323242
1765542744599731200,1.367731201171875,9.9000244140625,-0.4213795065879822,-1.7166426181793213
1765542744609741000,1.377740966796875,9.885659217834473,-0.6105214357376099,-1.7956513166427612
1765542744619750700,1.387750732421875,9.75637149810791,-0.730231523513794,-1.8579005002975464
1765542744629760500,1.397760498046875,9.710882186889648,-0.5530605912208557,-1.8076223134994507
1765542744639770400,1.407770263671875,9.696516990661621,-0.20111294090747833,-1.6855180263519287
1765542744649749500,1.41774951171875,9.59596061706543,-0.181959331035614,-1.7262194156646729
1765542744659729000,1.42772900390625,9.576807022094727,-0.38067805767059326,-1.7190368175506592
1765542744669769000,1.43776904296875,9.68933391571045,-0.3926490843296051,-1.7118542194366455
1765542744679778800,1.44777880859375,9.706093788146973,-0.4189853072166443,-1.5538369417190552
1765542744699767800,1.467767822265625,9.646238327026367,-0.5482721924781799,-1.5682021379470825
1765542744709777700,1.477777587890625,9.682151794433594,-0.6943184733390808,-1.625662922859192
1765542744719756800,1.4877568359375,9.636661529541016,-0.5195417404174805,-1.6903064250946045
1765542744729797000,1.497797119140625,9.658209800720215,-0.5746083855628967,-1.6879122257232666
1765542744749816600,1.517816650390625,9.75397777557373,-0.569819986820221,-1.9488801956176758
1765542744759796000,1.5277958984375,9.849745750427246,-0.5219359993934631,-1.7118542194366455
1765542744769805600,1.5378056640625,9.816226959228516,-0.5961562395095825,-1.723825216293335
1765542744779785000,1.547784912109375,9.813833236694336,-0.5746083855628967,-1.8698714971542358
1765542744789825300,1.5578251953125,9.813833236694336,-0.6607996821403503,-1.9249382019042969
1765542744819854600,1.5878544921875,9.8784761428833,-0.5554547905921936,-1.778891921043396
1765542744829864200,1.5978642578125,10.034099578857422,-0.3711012601852417,-1.9129672050476074
1765542744839874000,1.6078740234375,9.852140426635742,-0.15322890877723694,-1.867477297782898
1765542744849884000,1.6178837890625,9.93593692779541,-0.3926490843296051,-1.7405846118927002
1765542744859893500,1.6278935546875,10.220847129821777,-0.24899697303771973,-2.027888774871826
1765542744869903400,1.6379033203125,10.1753568649292,-0.35913026332855225,-1.8962076902389526
1765542744879913200,1.647913330078125,10.101137161254883,-0.4572925269603729,-1.9919757843017578
1765542744889953300,1.657953369140625,9.919178009033203,-0.569819986820221,-1.9345149993896484
1765542744909973000,1.677972900390625,9.947908401489258,-0.33758243918418884,-1.745373010635376
1765542744919982600,1.687982666015625,9.813833236694336,-0.40940847992897034,-1.7908629179000854
1765542744940032800,1.70803271484375,9.876082420349121,-0.44532153010368347,-1.7405846118927002
1765542744950042600,1.718042724609375,9.856928825378418,-0.49559974670410156,-1.8602946996688843
1765542744960052200,1.72805224609375,9.804255485534668,-0.4692635238170624,-1.8124107122421265
1765542744970092500,1.738092529296875,9.849745750427246,-0.5985504388809204,-1.9369091987609863
1765542744980102400,1.748102294921875,9.825803756713867,-0.5051765441894531,-2.0422539710998535
1765542744990112000,1.758112060546875,9.641449928283691,-0.4596867263317108,-1.9297266006469727
1765542745000121900,1.768121826171875,9.548076629638672,-0.49559974670410156,-1.86508309841156
1765542745020141300,1.788141357421875,9.612719535827637,-0.5841852426528931,-1.745373010635376
1765542745030181600,1.798181640625,9.617507934570312,-0.5746083855628967,-1.678335428237915
1765542745040161000,1.8081611328125,9.725247383117676,-0.629675030708313,-1.5538369417190552
1765542745050201000,1.818201171875,9.78989028930664,-0.6033388376235962,-1.659181833267212
1765542745060241400,1.828241455078125,9.77791976928711,-0.40222588181495667,-1.6543933153152466
1765542745070281700,1.83828173828125,9.727641105651855,-0.45250412821769714,-1.6615760326385498
1765542745080291600,1.84829150390625,9.706093788146973,-0.608127236366272,-1.7094600200653076
1765542745090301200,1.85830126953125,9.670180320739746,-0.689530074596405,-1.7357962131500244
1765542745100280600,1.868280517578125,9.794678688049316,-0.5219359993934631,-1.7190368175506592
1765542745110321000,1.87832080078125,9.823410034179688,-0.545877993106842,-1.6759412288665771
1765542745130310000,1.898309814453125,9.864110946655273,-0.36152446269989014,-1.7118542194366455
1765542745140319500,1.908319580078125,9.816226959228516,-0.42856210470199585,-1.7477672100067139
1765542745150329300,1.918329345703125,9.816226959228516,-0.42856210470199585,-1.7477672100067139
1765542745160308700,1.928308837890625,9.871294021606445,-0.5171475410461426,-1.9847931861877441
1765542745180328200,1.948328125,9.8784761428833,-0.47405192255973816,-1.9608511924743652
1765542745190368500,1.958368408203125,9.909601211547852,-0.4620809257030487,-1.944091796875
1765542745200378000,1.968378173828125,9.979032516479492,-0.5530605912208557,-1.9249382019042969
1765542745210418400,1.97841845703125,9.96945571899414,-0.49320554733276367,-1.8531121015548706
1765542745240417300,2.008417236328125,9.787496566772461,-0.363918662071228,-1.8602946996688843
1765542745250427100,2.01842724609375,9.895236015319824,-0.5650315880775452,-1.8124107122421265
1765542745260436700,2.028436767578125,9.84495735168457,-0.6440402865409851,-1.8818424940109253
1765542745270416100,2.038416015625,9.885659217834473,-0.5554547905921936,-1.9273324012756348
1765542745280425700,2.04842578125,9.830592155456543,-0.4141969084739685,-1.8914192914962769
1765542745290435600,2.058435546875,9.80904483795166,-0.6631938815116882,-1.8363527059555054
1765542745300414700,2.068414794921875,9.775525093078613,-0.7709329724311829,-1.9153614044189453
1765542745310424600,2.078424560546875,9.761159896850586,-0.6440402865409851,-1.778891921043396
1765542745330413600,2.09841357421875,9.840168952941895,-0.3734954595565796,-1.6735470294952393
1765542745350433000,2.11843310546875,9.761159896850586,-0.4572925269603729,-1.6136919260025024
1765542745360412400,2.128412353515625,9.643844604492188,-0.6129156351089478,-1.7405846118927002
1765542745370452700,2.13845263671875,9.679757118225098,-0.5386953949928284,-1.6687586307525635
1765542745380493000,2.1484931640625,9.715670585632324,-0.5267243981361389,-1.7046716213226318
1765542745390502700,2.158502685546875,9.768342971801758,-0.44771572947502136,-1.7310078144073486
1765542745400512500,2.168512451171875,9.720458984375,-0.304063618183136,-1.6855180263519287
1765542745410522400,2.1785224609375,9.746794700622559,-0.47405192255973816,-1.6735470294952393
1765542745420501500,2.18850146484375,9.708487510681152,-0.6344634294509888,-1.7142484188079834
1765542745440490500,2.208490478515625,9.943120002746582,-0.5674257874488831,-1.8387469053268433
1765542745460510000,2.228510009765625,9.77791976928711,-0.6105214357376099,-1.6663644313812256
1765542745470519800,2.238519775390625,9.75397777557373,-0.6488286852836609,-1.625662922859192
1765542745480499000,2.2484990234375,9.832986831665039,-0.5530605912208557,-1.623268723487854
1765542745490508800,2.2585087890625,9.84256362915039,-0.5578489899635315,-1.6735470294952393
1765542745500549000,2.268549072265625,9.861717224121094,-0.3734954595565796,-1.766920804977417
1765542745510559000,2.27855908203125,9.938331604003906,-0.31603461503982544,-1.824381709098816
1765542745520568600,2.288568603515625,9.940725326538086,-0.5626373887062073,-1.7525556087493896
1765542745530609000,2.29860888671875,9.962273597717285,-0.667982280254364,-1.845929503440857
1765542745560668700,2.328668701171875,10.007762908935547,-0.22026655077934265,-1.8626888990402222
1765542745580657700,2.34865771484375,9.856928825378418,-0.33997663855552673,-1.8626888990402222
1765542745590698000,2.358697998046875,9.708487510681152,-0.4405331015586853,-1.8626888990402222
1765542745600707800,2.368707763671875,9.780313491821289,-0.4189853072166443,-1.8842366933822632
1765542745610717400,2.378717529296875,9.804255485534668,-0.35434186458587646,-1.8076223134994507
1765542745620696800,2.38869677734375,9.813833236694336,-0.29209262132644653,-1.7932571172714233
1765542745630706700,2.398706787109375,9.859322547912598,-0.4572925269603729,-1.7549498081207275
1765542745640685800,2.408685791015625,9.923966407775879,-0.4836287498474121,-1.7381904125213623
1765542745660705300,2.428705322265625,9.897629737854004,-0.5171475410461426,-1.7621324062347412
1765542745670684700,2.4386845703125,9.801861763000488,-0.49799394607543945,-1.86508309841156
1765542745680725000,2.44872509765625,9.533711433410645,-0.36152446269989014,-1.7190368175506592
1765542745690765000,2.45876513671875,9.658209800720215,-0.22026655077934265,-2.233790159225464
1765542745700775000,2.46877490234375,9.744400978088379,-0.5363011956214905,-2.1140801906585693
1765542745710815200,2.478815185546875,9.897629737854004,-0.5363011956214905,-1.9823989868164062
1765542745720825000,2.4888251953125,10.017339706420898,-0.47165772318840027,-1.8483237028121948
1765542745730834700,2.498834716796875,9.916783332824707,-0.33039984107017517,-1.8171991109848022
1765542745740844500,2.508844482421875,9.775525093078613,-0.4692635238170624,-1.678335428237915
1765542745760833500,2.52883349609375,9.588777542114258,-0.6512228846549988,-1.6400281190872192
1765542745770843400,2.538843505859375,9.59596061706543,-0.4908113479614258,-1.6280571222305298
1765542745780822500,2.548822509765625,9.576807022094727,-0.2537853717803955,-1.6065093278884888
1765542745790801700,2.5588017578125,9.66299819946289,-0.2777273952960968,-1.4963760375976562
1765542745800811500,2.5688115234375,9.727641105651855,-0.4884171485900879,-1.6184803247451782
1765542745810821400,2.5788212890625,9.75637149810791,-0.5674257874488831,-1.6927006244659424
1765542745820831000,2.5888310546875,9.859322547912598,-0.5578489899635315,-1.7980455160140991
1765542745830840800,2.5988408203125,9.859322547912598,-0.5578489899635315,-1.7980455160140991
1765542745840820200,2.6088203125,9.938331604003906,-0.5674257874488831,-1.6927006244659424
1765542745860839700,2.628839599609375,9.986215591430664,-0.4812345504760742,-1.7094600200653076
1765542745890869000,2.658868896484375,9.799467086791992,-0.6847416758537292,-1.6879122257232666
1765542745900909300,2.668909423828125,9.821015357971191,-0.5315127968788147,-1.6160861253738403
1765542745910919000,2.6789189453125,9.904812812805176,-0.4836287498474121,-1.8555063009262085
1765542745920928800,2.6889287109375,9.832986831665039,-0.31603461503982544,-1.7956513166427612
1765542745930969000,2.698968994140625,9.861717224121094,-0.5291185975074768,-1.7812861204147339
1765542745940978700,2.708978759765625,9.749189376831055,-0.689530074596405,-1.8507179021835327
1765542745950988500,2.718988525390625,9.859322547912598,-0.7158663272857666,-1.778891921043396
1765542745960967700,2.7289677734375,9.801861763000488,-0.6488286852836609,-1.7046716213226318
1765542745990997000,2.7589970703125,9.864110946655273,-0.31364041566848755,-1.7094600200653076
1765542746001006800,2.7690068359375,9.871294021606445,-0.5434837937355042,-1.723825216293335
1765542746021057000,2.78905712890625,9.93593692779541,-0.3519476354122162,-1.7860745191574097
1765542746031066600,2.799066650390625,9.86889934539795,-0.31124621629714966,-1.7094600200653076
1765542746041046000,2.8090458984375,9.835380554199219,-0.5770025849342346,-1.7764976024627686
1765542746051086300,2.81908642578125,9.751583099365234,-0.7086837291717529,-1.778891921043396
1765542746061096000,2.829095947265625,9.837775230407715,-0.569819986820221,-1.7357962131500244
1765542746071105800,2.839105712890625,9.835380554199219,-0.6057330369949341,-1.8052281141281128
1765542746081115400,2.849115478515625,9.8784761428833,-0.5937620401382446,-1.9153614044189453
1765542746091125200,2.859125244140625,9.93354320526123,-0.5410895943641663,-1.8076223134994507
1765542746101135000,2.869135009765625,9.907206535339355,-0.5147533416748047,-1.7717092037200928
1765542746121154600,2.889154541015625,9.75397777557373,-0.5817909836769104,-1.7764976024627686
1765542746131164400,2.899164306640625,9.818621635437012,-0.5817909836769104,-1.8267759084701538
1765542746141174000,2.909174072265625,9.854534149169922,-0.4668693244457245,-1.824381709098816
1765542746151184000,2.919183837890625,9.90241813659668,-0.2992752194404602,-1.745373010635376
1765542746161193700,2.92919384765625,9.880870819091797,-0.3232172429561615,-1.8052281141281128
1765542746171203300,2.939203369140625,9.909601211547852,-0.4405331015586853,-1.8914192914962769
1765542746181182700,2.9491826171875,9.823410034179688,-0.6655880808830261,-1.86508309841156
1765542746191192300,2.9591923828125,9.823410034179688,-0.6416460275650024,-1.7621324062347412
1765542746201202200,2.9692021484375,9.758766174316406,-0.5291185975074768,-1.6735470294952393
1765542746211212000,2.9792119140625,9.821015357971191,-0.5913678407669067,-1.6352397203445435
1765542746221252400,2.98925244140625,9.725247383117676,-0.5267243981361389,-1.6831238269805908
1765542746231262000,2.999261962890625,9.710882186889648,-0.7086837291717529,-1.7262194156646729
1765542746241241300,3.009241455078125,9.804255485534668,-0.7661445140838623,-1.7334020137786865
1765542746251281400,3.019281494140625,9.825803756713867,-0.5602431893348694,-1.800439715385437
1765542746271270700,3.039270751953125,9.856928825378418,-0.38067805767059326,-1.802833914756775
1765542746281280300,3.0492802734375,9.895236015319824,-0.45250412821769714,-1.7932571172714233
1765542746291290000,3.0592900390625,9.856928825378418,-0.5339069962501526,-1.7549498081207275
1765542746301299700,3.0692998046875,9.758766174316406,-0.4644751250743866,-1.7573440074920654
1765542746311309600,3.0793095703125,9.646238327026367,-0.44771572947502136,-1.800439715385437
1765542746321350000,3.089349853515625,9.672574996948242,-0.6703764796257019,-1.7932571172714233
1765542746331390200,3.09939013671875,9.730035781860352,-0.7230489253997803,-1.742978811264038
1765542746341399800,3.10939990234375,9.732429504394531,-0.5746083855628967,-1.745373010635376
1765542746351409700,3.11940966796875,9.718064308166504,-0.507570743560791,-1.6065093278884888
1765542746361450000,3.129449951171875,9.734824180603027,-0.45250412821769714,-1.778891921043396
1765542746371429000,3.13942919921875,9.730035781860352,-0.5003881454467773,-1.6519991159439087
1765542746381439000,3.14943896484375,9.84256362915039,-0.4572925269603729,-1.7094600200653076
1765542746401458400,3.16945849609375,9.888052940368652,-0.4429273009300232,-1.7573440074920654
1765542746421478100,3.18947802734375,9.782708168029785,-0.4165911078453064,-1.7118542194366455
1765542746441497600,3.20949755859375,9.804255485534668,-0.5267243981361389,-1.8339585065841675
1765542746451476700,3.219476806640625,9.758766174316406,-0.4165911078453064,-1.8387469053268433
1765542746461517000,3.22951708984375,9.780313491821289,-0.33758243918418884,-1.8076223134994507
1765542746471527000,3.23952685546875,9.86650562286377,-0.3998316824436188,-1.8411411046981812
1765542746481536800,3.249536865234375,9.821015357971191,-0.5554547905921936,-1.889025092124939
1765542746511535400,3.279535400390625,9.95748519897461,-0.849941611289978,-1.6927006244659424
1765542746521545200,3.289545166015625,10.029311180114746,-0.6560112833976746,-1.7262194156646729
1765542746531555000,3.29955517578125,10.029311180114746,-0.6560112833976746,-1.7262194156646729
1765542746541564700,3.309564697265625,9.99100399017334,-0.7374141216278076,-1.7070658206939697
1765542746551605000,3.31960498046875,10.010157585144043,-0.6560112833976746,-1.7094600200653076
1765542746561614800,3.32961474609375,9.979032516479492,-0.5530605912208557,-1.7118542194366455
1765542746571594000,3.339593994140625,9.84495735168457,-0.6200982332229614,-1.7118542194366455
1765542746581603800,3.349603759765625,9.856928825378418,-0.45250412821769714,-1.8411411046981812
1765542746591583000,3.3595830078125,9.768342971801758,-0.37828385829925537,-1.8986018896102905
1765542746601562400,3.369562255859375,9.732429504394531,-0.4884171485900879,-1.6974890232086182
1765542746621551400,3.38955126953125,9.72285270690918,-0.7637503147125244,-1.8100165128707886
1765542746631561000,3.39956103515625,9.682151794433594,-0.7637503147125244,-1.8914192914962769
1765542746641570800,3.40957080078125,9.672574996948242,-0.7230489253997803,-1.7142484188079834
1765542746651611100,3.419611083984375,9.579200744628906,-0.6943184733390808,-1.6184803247451782
1765542746661621000,3.42962109375,9.605537414550781,-0.646434485912323,-1.6089035272598267
1765542746671600000,3.43960009765625,9.244012832641602,-0.5817909836769104,-1.5059528350830078
1765542746681610000,3.44960986328125,9.888052940368652,-0.44532153010368347,-1.6735470294952393
1765542746691619600,3.45961962890625,9.617507934570312,-0.6775590777397156,-1.5131354331970215
1765542746701629400,3.46962939453125,9.873687744140625,-0.9026140570640564,-1.4508862495422363
1765542746711608600,3.479608642578125,10.194510459899902,-0.790086567401886,-1.656787633895874
1765542746721618400,3.489618408203125,10.141838073730469,-0.7038952708244324,-1.558625340461731
1765542746731628300,3.499628173828125,9.962273597717285,-0.7541735172271729,-1.6136919260025024
1765542746741638000,3.509637939453125,9.828198432922363,-0.6751648783683777,-1.6280571222305298
1765542746751647700,3.519647705078125,9.734824180603027,-0.6392518281936646,-1.6639702320098877
1765542746761657600,3.52965771484375,9.720458984375,-0.7350199222564697,-1.6400281190872192
1765542746771667200,3.539667236328125,9.849745750427246,-0.8738836050033569,-1.6663644313812256
1765542746781677000,3.549677001953125,9.931148529052734,-0.7781155705451965,-1.7334020137786865
1765542746791687000,3.55968701171875,10.046070098876953,-0.5195417404174805,-1.6424223184585571
1765542746821746700,3.58974658203125,9.911994934082031,-0.4189853072166443,-1.8411411046981812
1765542746831756300,3.59975634765625,9.861717224121094,-0.27054479718208313,-1.7717092037200928
1765542746841735700,3.609735595703125,9.679757118225098,-0.33518823981285095,-1.678335428237915
1765542746851776000,3.61977587890625,9.607931137084961,-0.33039984107017517,-1.8411411046981812
1765542746861755100,3.629755126953125,9.593565940856934,-0.3974374830722809,-1.766920804977417
1765542746871765000,3.639764892578125,9.648633003234863,-0.7206547260284424,-1.6759412288665771
1765542746881774600,3.649774658203125,9.62947940826416,-0.9313444495201111,-1.721431016921997
1765542746891784400,3.659784423828125,9.715670585632324,-0.7110779285430908,-1.7357962131500244
1765542746901794300,3.669794189453125,9.744400978088379,-0.44532153010368347,-1.6065093278884888
1765542746921813800,3.689813720703125,9.648633003234863,-0.7493851184844971,-1.5083470344543457
1765542746931854000,3.69985400390625,9.643844604492188,-0.6799532771110535,-1.5969325304031372
1765542746941863700,3.70986376953125,9.744400978088379,-0.6440402865409851,-1.599326729774475
1765542746951843000,3.719843017578125,9.84495735168457,-0.4884171485900879,-1.6136919260025024
1765542746961822200,3.729822265625,9.849745750427246,-0.47405192255973816,-1.723825216293335
1765542746971862500,3.739862548828125,9.823410034179688,-0.608127236366272,-1.678335428237915
1765542746981842000,3.749842041015625,9.96945571899414,-0.6512228846549988,-1.7884687185287476
1765542746991851500,3.7598515625,10.005369186401367,-0.49320554733276367,-1.8411411046981812
1765542747001831000,3.769830810546875,10.029311180114746,-0.3232172429561615,-1.7860745191574097
1765542747011840500,3.779840576171875,9.983820915222168,-0.14844051003456116,-1.745373010635376
1765542747051818800,3.81981884765625,9.914389610290527,-0.2753331959247589,-2.2649147510528564
1765542747061828400,3.829828369140625,9.816226959228516,0.07661445438861847,-2.315192937850952
1765542747071807700,3.839807861328125,9.947908401489258,0.17717093229293823,-2.3702597618103027
1765542747081847800,3.849847900390625,9.643844604492188,0.1364694982767105,-2.3989901542663574
1765542747091857700,3.859857666015625,9.646238327026367,0.18914192914962769,-2.451662540435791
1765542747101867500,3.869867431640625,9.569623947143555,-0.026336219161748886,-2.403778553009033
1765542747111907800,3.879907958984375,9.375694274902344,-0.2777273952960968,-2.4157495498657227
1765542747131957800,3.899957763671875,9.282320022583008,-0.5674257874488831,-2.1380221843719482
1765542747141937200,3.909937255859375,9.315838813781738,-0.9624691009521484,-2.0661959648132324
1765542747151946800,3.91994677734375,9.35893440246582,-1.6903064250946045,-2.0853497982025146
1765542747161956600,3.92995654296875,9.265560150146484,-2.3558945655822754,-2.0470423698425293
1765542747171966500,3.939966552734375,9.153033256530762,-2.647987127304077,-2.051830768585205
1765542747181976000,3.94997607421875,9.083600997924805,-2.741360902786255,-1.8602946996688843
1765542747191986000,3.95998583984375,9.040505409240723,-2.80361008644104,-1.6208745241165161
1765542747201995500,3.96999560546875,9.040505409240723,-2.80361008644104,-1.6208745241165161
1765542747212005400,3.98000537109375,8.846575736999512,-2.7293899059295654,-1.6089035272598267
1765542747242004200,4.010004150390625,8.293514251708984,-3.6583402156829834,-1.338358759880066
1765542747252013800,4.020013916015625,8.446743965148926,-4.623203277587891,-1.2880805730819702
1765542747262023700,4.030023681640625,8.552088737487793,-5.489904403686523,-1.338358759880066
1765542747272003000,4.040003173828125,8.698134422302246,-5.566518783569336,-0.8667010068893433
1765542747282043100,4.050043212890625,8.916007041931152,-5.018246650695801,-0.33039984107017517
1765542747292083500,4.06008349609375,8.87051773071289,-4.508281707763672,-0.033518824726343155
1765542747302123800,4.070123779296875,8.614337921142578,-3.914519786834717,0.031124621629714966
1765542747312164000,4.0801640625,8.4108304977417,-3.294421434402466,0.021547814831137657
1765542747322174000,4.090174072265625,8.180987358093262,-3.5266590118408203,-0.004788403399288654
1765542747342224000,4.110223876953125,7.402871608734131,-5.243301868438721,0.014365210197865963
1765542747352203300,4.120203369140625,6.914454460144043,-6.596025466918945,-0.29209262132644653
1765542747372253200,4.140253173828125,6.962338447570801,-6.904877662658691,-0.5315127968788147
1765542747382232600,4.150232666015625,7.647080421447754,-5.681440830230713,-0.2849099934101105
1765542747392242200,4.1602421875,8.389283180236816,-4.6040496826171875,-0.0454898327589035
1765542747402252000,4.170251953125,8.832210540771484,-3.9815573692321777,0.15083470940589905
1765542747412261600,4.18026171875,8.975862503051758,-3.4332852363586426,0.023942016065120697
1765542747422271500,4.190271484375,8.698134422302246,-3.890577793121338,-0.28969839215278625
1765542747442291000,4.210291015625,7.802703380584717,-4.491522312164307,-0.5195417404174805
1765542747452300800,4.22030078125,7.247248649597168,-4.606443881988525,-0.4189853072166443
1765542747462341000,4.230341064453125,6.5912370681762695,-5.051765441894531,-0.2561795711517334
1765542747472320300,4.2403203125,5.829881191253662,-5.621585369110107,-0.1412578970193863
1765542747482360600,4.250360595703125,5.439626216888428,-6.722918510437012,-0.08140286058187485
1765542747492340000,4.260340087890625,5.386953830718994,-7.467514991760254,-0.10295066982507706
1765542747502349600,4.270349609375,5.635950565338135,-7.175422668457031,-0.19153612852096558
1765542747512359400,4.280359375,5.542576789855957,-6.62236213684082,-0.1628057211637497
1765542747522369300,4.290369384765625,5.552153587341309,-6.236895561218262,0.014365210197865963
1765542747542358300,4.310358154296875,4.14915132522583,-6.631938934326172,0.6631938815116882
1765542747552367900,4.320367919921875,3.2824504375457764,-7.682993412017822,0.7110779285430908
1765542747562347300,4.33034716796875,2.7030537128448486,-8.542511940002441,0.5913678407669067
1765542747572356900,4.34035693359375,2.0661959648132324,-9.452308654785156,0.6248866319656372
1765542747582397200,4.350397216796875,1.9560627937316895,-9.749189376831055,0.49799394607543945
1765542747592407000,4.360406982421875,1.6663644313812256,-9.57201862335205,0.5506663918495178
1765542747602417000,4.3704169921875,1.8698714971542358,-9.334992408752441,0.790086567401886
1765542747612426500,4.380426513671875,1.6352397203445435,-9.524134635925293,0.9720458984375
1765542747622466800,4.390466796875,1.1468225717544556,-9.708487510681152,1.5203180313110352
1765542747652496100,4.42049609375,1.7717092037200928,-10.94150161743164,1.556231141090393
1765542747662506000,4.430506103515625,1.5466543436050415,-11.307814598083496,1.6400281190872192
1765542747672515600,4.440515625,1.278503656387329,-11.805809020996094,1.7525556087493896
1765542747682525400,4.450525390625,0.9313444495201111,-12.294225692749023,2.1116859912872314
1765542747692504600,4.460504638671875,0.3998316824436188,-12.215216636657715,2.387019157409668
1765542747702514400,4.470514404296875,0.2801215946674347,-11.51850414276123,2.3558945655822754
1765542747722503400,4.49050341796875,0.2537853717803955,-11.202469825744629,2.1523873805999756
1765542747732543700,4.500543701171875,0.2753331959247589,-11.997344970703125,2.097320795059204
1765542747752532700,4.52053271484375,0.44771572947502136,-12.619836807250977,2.1092917919158936
1765542747782531600,4.550531494140625,0.3495534360408783,-11.568782806396484,1.7262194156646729
1765542747792510700,4.5605107421875,0.12689268589019775,-11.707646369934082,1.6927006244659424
1765542747812530200,4.5805302734375,0.021547814831137657,-11.429919242858887,1.50355863571167
1765542747822509600,4.590509521484375,0.05985504388809204,-11.161767959594727,1.3215993642807007
1765542747832519400,4.60051953125,0.12928688526153564,-10.910377502441406,1.1492167711257935
1765542747872588800,4.6405888671875,-1.3455413579940796,-9.519346237182617,0.8259995579719543
1765542747882598700,4.6505986328125,-1.7717092037200928,-9.797073364257812,0.8044517636299133
1765542747892608500,4.6606083984375,-1.7717092037200928,-9.797073364257812,0.8044517636299133
1765542747902587600,4.670587646484375,-2.0590133666992188,-9.830592155456543,0.9744400978088379
1765542747912597500,4.680597412109375,-1.9369091987609863,-9.519346237182617,0.9193734526634216
1765542747922607000,4.690607177734375,-1.7405846118927002,-9.454702377319336,0.7541735172271729
1765542747932647400,4.7006474609375,-1.6639702320098877,-9.35654067993164,0.8523358106613159
1765542747942657300,4.7106572265625,-1.50355863571167,-9.184157371520996,0.7254431247711182
1765542747962707200,4.730707275390625,-1.845929503440857,-9.880870819091797,0.6823474764823914
1765542747972717000,4.740717041015625,-2.118868589401245,-9.787496566772461,0.7350199222564697
1765542747982727000,4.750726806640625,-2.2864625453948975,-9.725247383117676,0.9816226959228516
1765542747992736500,4.760736572265625,-2.3032219409942627,-9.248801231384277,0.9265560507774353
1765542748002746400,4.770746337890625,-2.121262788772583,-9.205705642700195,0.5410895943641663
1765542748012725500,4.7807255859375,-1.8842366933822632,-9.30386734008789,0.3495534360408783
1765542748022735400,4.7907353515625,-1.678335428237915,-9.172186851501465,0.3902548849582672
1765542748032745200,4.8007451171875,-1.534683346748352,-9.047688484191895,0.5506663918495178
1765542748042724400,4.810724365234375,-1.599326729774475,-9.14585018157959,0.4692635238170624
1765542748112823300,4.8808232421875,-1.4484920501708984,-9.205705642700195,0.40462008118629456
1765542748122833200,4.890833251953125,-1.3479355573654175,-9.105149269104004,0.3878606855869293
1765542748132842800,4.9008427734375,-1.558625340461731,-8.923190116882324,0.5339069962501526
1765542748142822100,4.910822265625,-1.6855180263519287,-8.683769226074219,0.5339069962501526
1765542748152862200,4.9208623046875,-1.721431016921997,-8.702922821044922,0.6177040338516235
1765542748162872000,4.9308720703125,-1.6304513216018677,-8.944737434387207,0.44532153010368347
1765542748172882000,4.9408818359375,-1.5729905366897583,-9.14585018157959,0.4189853072166443
1765542748182891500,4.9508916015625,-1.6112977266311646,-9.150638580322266,0.47405192255973816
1765542748192901400,4.9609013671875,-1.625662922859192,-8.935160636901855,0.5171475410461426
1765542748202911200,4.9709111328125,-1.9273324012756348,-8.59997272491455,0.5770025849342346
1765542748212951600,4.98095166015625,-2.3798365592956543,-8.518569946289062,0.7110779285430908
1765542748222991600,4.99099169921875,-2.473210334777832,-9.002198219299316,0.5506663918495178
1765542748233001500,5.00100146484375,-2.0853497982025146,-9.713275909423828,0.3495534360408783
1765542748243011300,5.01101123046875,-1.778891921043396,-10.54645824432373,0.38067805767059326
1765542748253051600,5.0210517578125,-1.6879122257232666,-10.84094524383545,0.4908113479614258
1765542748263061200,5.031061279296875,-1.5682021379470825,-10.469843864440918,0.5003881454467773
1765542748283081000,5.0510810546875,-2.1164743900299072,-10.043676376342773,0.6344634294509888
1765542748293060000,5.06106005859375,-2.853888511657715,-10.218452453613281,0.7086837291717529
1765542748303039200,5.071039306640625,-3.1531636714935303,-10.230423927307129,0.790086567401886
1765542748313049000,5.081049072265625,-3.157952070236206,-10.376470565795898,0.6727706789970398
1765542760226517200,16.994517333984376,9.93593692779541,0.19632454216480255,-1.5873557329177856
1765542760246106000,17.014106201171874,9.890447616577148,-0.2059013396501541,-1.5179238319396973
1765542760275974400,17.043974365234376,10.02452278137207,-0.07422025501728058,-1.4484920501708984
1765542760295993900,17.063993896484376,9.799467086791992,-0.10295066982507706,-1.6400281190872192
1765542760306034200,17.0740341796875,9.701305389404297,0.13407529890537262,-1.5322890281677246
1765542760316044000,17.0840439453125,9.904812812805176,0.4884171485900879,-1.525106430053711
1765542760406009900,17.174009765625,9.746794700622559,-0.26815059781074524,-1.292868971824646
1765542760416019500,17.18401953125,10.019734382629395,0.05027823522686958,-1.2521674633026123
1765542760426029300,17.194029296875,10.101137161254883,-0.0071826050989329815,-1.256955862045288
1765542760446048800,17.214048828125,10.007762908935547,-0.0933738648891449,-1.4053963422775269
1765542760475925500,17.243925537109376,9.770736694335938,-0.028730420395731926,-1.2521674633026123
1765542760485935400,17.253935302734376,9.715670585632324,-0.002394201699644327,-1.2449848651885986
1765542760495914500,17.26391455078125,9.694122314453125,0.07900865375995636,-1.3670891523361206
1765542760505954800,17.273954833984376,9.775525093078613,-0.08379705995321274,-1.4413094520568848
1765542760515903500,17.283903564453126,9.919178009033203,-0.05506663769483566,-1.4293384552001953
1765542760525913300,17.293913330078126,10.070012092590332,0.2825157940387726,-1.5179238319396973
1765542760545932800,17.313932861328126,10.02691650390625,0.16519992053508759,-1.50355863571167
1765542760555942700,17.323942626953126,10.093954086303711,0.07182604819536209,-1.7262194156646729
1765542760565952500,17.333952392578126,10.153809547424316,0.36152446269989014,-1.8387469053268433
1765542760575962000,17.343962158203126,9.974244117736816,0.3663128614425659,-1.778891921043396
1765542760596012300,17.36401220703125,9.490615844726562,0.3256114423274994,-1.9369091987609863
1765542760605991400,17.373991455078126,9.01895809173584,-0.45489832758903503,-1.7836803197860718
1765542760616001300,17.384001220703126,8.834604263305664,-1.05105459690094,-1.6160861253738403
1765542760625980400,17.39398046875,8.96389102935791,-0.7996633648872375,-1.5682021379470825
1765542760635929300,17.403929443359374,9.327810287475586,-0.24181437492370605,-1.4844050407409668
1765542760655888000,17.423887939453124,10.014945983886719,-0.3232172429561615,-1.115697979927063
1765542760665928000,17.433927978515626,10.220847129821777,-0.21787235140800476,-1.091755986213684
1765542760675937800,17.443937744140626,10.20887565612793,-0.42377370595932007,-1.0965443849563599
1765542760685947600,17.45394775390625,10.06043529510498,-0.6991068720817566,-1.0534487962722778
1765542760695896300,17.463896240234376,9.923966407775879,-0.8475474119186401,-1.0678139925003052
1765542760705906200,17.47390625,10.02691650390625,-0.5985504388809204,-1.0103530883789062
1765542760715915800,17.483915771484376,10.163386344909668,-0.19393034279346466,-0.9888052940368652
1765542760725895200,17.493895263671874,10.199298858642578,-0.2059013396501541,-0.9672574996948242
1765542760765903600,17.533903564453126,10.235212326049805,-0.4189853072166443,-1.216254472732544
1765542760775913500,17.54391357421875,10.24239444732666,-0.35434186458587646,-1.2066776752471924
1765542760785953500,17.55395361328125,10.3549222946167,0.1173158809542656,-1.2641384601593018
1765542760795933000,17.563932861328126,10.350133895874023,-0.19871874153614044,-1.173158884048462
1765542760805942800,17.57394287109375,10.182539939880371,-0.4596867263317108,-1.2234370708465576
1765542760815952400,17.583952392578126,10.134655952453613,-0.6751648783683777,-1.1803414821624756
1765542760825962200,17.593962158203126,10.146626472473145,-0.5099649429321289,-1.1037269830703735
1765542760835972000,17.60397216796875,10.089165687561035,-0.31842881441116333,-0.9600749015808105
1765542760845981700,17.613981689453126,10.036493301391602,-0.4884171485900879,-0.8978256583213806
1765542760905979400,17.6739794921875,9.787496566772461,-0.15083470940589905,-1.2234370708465576
1765542760915989000,17.683989013671876,9.744400978088379,-0.33039984107017517,-1.2761094570159912
1765542760925998800,17.693998779296876,9.835380554199219,-0.3495534360408783,-1.41257905960083
1765542760935978000,17.70397802734375,9.773131370544434,-0.3998316824436188,-1.4413094520568848
1765542760946018300,17.714018310546876,9.80904483795166,-0.5937620401382446,-1.400607943534851
1765542760956028200,17.724028076171876,9.90241813659668,-0.44771572947502136,-1.3910311460494995
1765542760966007300,17.73400732421875,10.031704902648926,-0.19153612852096558,-1.3742717504501343
1765542760975986700,17.743986572265626,10.20887565612793,-0.14844051003456116,-1.4508862495422363
1765542760985996300,17.753996337890626,10.105925559997559,-0.3208230137825012,-1.558625340461731
1765542760995945200,17.7639453125,9.986215591430664,-0.26815059781074524,-1.5634137392044067
1765542761005985300,17.7739853515625,9.986215591430664,-0.2825157940387726,-1.556231141090393
1765542761015995100,17.7839951171875,10.007762908935547,-0.38067805767059326,-1.5945383310317993
1765542761025974500,17.793974609375,10.101137161254883,-0.45489832758903503,-1.647210717201233
1765542761035953700,17.80395361328125,10.11789608001709,-0.35434186458587646,-1.723825216293335
1765542761045963500,17.813963623046874,10.029311180114746,-0.43095630407333374,-1.6711528301239014
1765542761055973000,17.82397314453125,9.919178009033203,-0.3878606855869293,-1.6041151285171509
1765542761075962000,17.843962158203126,9.95748519897461,-0.31124621629714966,-1.6065093278884888
1765542761085941500,17.85394140625,9.856928825378418,-0.16998831927776337,-1.558625340461731
1765542761095951000,17.863951171875,9.885659217834473,0.011971008032560349,-1.5849615335464478
1765542761105961000,17.8739609375,9.840168952941895,0.004788403399288654,-1.6543933153152466
1765542761115940400,17.8839404296875,9.78989028930664,-0.05746084079146385,-1.7094600200653076
1765542761125919500,17.89391943359375,9.78989028930664,0.07900865375995636,-1.7334020137786865
1765542761135898600,17.903898681640626,9.670180320739746,-0.06464344263076782,-1.5873557329177856
1765542761145908500,17.913908447265626,9.555258750915527,-0.524330198764801,-1.5658079385757446
1765542761155826700,17.92382666015625,9.622296333312988,-0.5602431893348694,-1.5442601442337036
1765542761165867000,17.933866943359376,9.610325813293457,-0.3280056416988373,-1.525106430053711
1765542761185795000,17.953795166015624,9.718064308166504,-0.15083470940589905,-1.4939818382263184
1765542761195774200,17.963774169921876,9.646238327026367,-0.16759411990642548,-1.4245500564575195
1765542761205753300,17.97375341796875,9.59835433959961,-0.26336219906806946,-1.4389152526855469
1765542761215763200,17.98376318359375,9.715670585632324,-0.22505496442317963,-1.534683346748352
1765542761225742600,17.99374267578125,9.75397777557373,-0.19632454216480255,-1.656787633895874
1765542761235721700,18.0037216796875,9.782708168029785,-0.3711012601852417,-1.5490485429763794
1765542761245731600,18.013731689453124,9.780313491821289,-0.6153098344802856,-1.577778935432434
1765542761255710700,18.023710693359376,9.799467086791992,-0.5315127968788147,-1.6280571222305298
1765542761265690000,18.033690185546874,9.775525093078613,-0.43095630407333374,-1.53707754611969
1765542761275669200,18.043669189453126,9.804255485534668,-0.20350714027881622,-1.577778935432434
1765542761305729000,18.07372900390625,9.734824180603027,-0.16519992053508759,-1.5179238319396973
1765542761315739000,18.08373876953125,9.86650562286377,-0.14844051003456116,-1.5682021379470825
1765542761325748500,18.09374853515625,9.823410034179688,-0.22505496442317963,-1.6136919260025024
1765542761335758300,18.10375830078125,9.794678688049316,-0.4189853072166443,-1.5322890281677246
1765542761345737500,18.113737548828126,9.885659217834473,-0.4381389021873474,-1.4772224426269531
1765542761355747300,18.123747314453126,9.914389610290527,-0.2777273952960968,-1.4676456451416016
1765542761365757200,18.133757080078126,9.96945571899414,-0.14365209639072418,-1.4245500564575195
1765542761375766800,18.143766845703126,9.93354320526123,-0.05985504388809204,-1.4245500564575195
1765542761385746200,18.15374609375,10.014945983886719,-0.06703764945268631,-1.482010841369629
1765542761395725300,18.163725341796876,10.005369186401367,-0.08140286058187485,-1.6065093278884888
1765542761405765600,18.173765625,9.890447616577148,-0.5913678407669067,-1.5610195398330688
1765542761415714300,18.18371435546875,9.864110946655273,-0.6153098344802856,-1.5705963373184204
1765542761425724200,18.19372412109375,9.93593692779541,-0.06703764945268631,-1.6112977266311646
1765542761435703300,18.203703369140626,9.962273597717285,0.28969839215278625,-1.5203180313110352
1765542761445682700,18.2136826171875,9.77791976928711,0.09576806426048279,-1.4317326545715332
1765542761455692500,18.223692626953124,9.720458984375,-0.11971008777618408,-1.6041151285171509
1765542761465702100,18.2337021484375,9.718064308166504,-0.2753331959247589,-1.6208745241165161
1765542761475650800,18.24365087890625,9.725247383117676,-0.05746084079146385,-1.6352397203445435
1765542761485691100,18.253691162109376,9.6989107131958,-0.12689268589019775,-1.6112977266311646
1765542761505710800,18.2737109375,9.780313491821289,-0.11013327538967133,-1.6376339197158813
1765542761515659500,18.283659423828126,9.856928825378418,-0.18914192914962769,-1.7262194156646729
1765542761525699800,18.293699951171874,9.813833236694336,-0.304063618183136,-1.7741034030914307
1765542761535709400,18.30370947265625,9.818621635437012,-0.11013327538967133,-1.843535304069519
1765542761555729200,18.323729248046874,9.86889934539795,0.5051765441894531,-1.9081788063049316
1765542761565708300,18.333708251953126,9.80904483795166,0.47165772318840027,-2.0159177780151367
1765542761575718100,18.34371826171875,9.93593692779541,0.38067805767059326,-2.1978771686553955
1765542761585727700,18.353727783203126,9.86889934539795,0.3208230137825012,-2.3487119674682617
1765542761595737600,18.363737548828126,9.667786598205566,0.3280056416988373,-2.341529369354248
1765542761605747500,18.37374755859375,9.531316757202148,0.17477671802043915,-2.3295583724975586
1765542761615726600,18.3837265625,9.349357604980469,0.05027823522686958,-2.4205379486083984
1765542761625706000,18.3937060546875,9.117119789123535,0.019153613597154617,-2.6144683361053467
1765542761635685000,18.40368505859375,8.973467826843262,-0.038307227194309235,-2.516305923461914
1765542761645664300,18.413664306640626,8.901641845703125,-0.028730420395731926,-2.33913516998291
1765542761655674000,18.423674072265626,8.820239067077637,-0.13407529890537262,-2.248155355453491
1765542761665684000,18.43368408203125,8.755595207214355,-0.3016694188117981,-2.099714994430542
1765542761675663000,18.4436630859375,8.801085472106934,-0.5793967843055725,-1.8962076902389526
1765542761685673000,18.4536728515625,8.71728801727295,-0.768538773059845,-1.6759412288665771
1765542761715641000,18.48364111328125,7.740454196929932,-1.6927006244659424,-1.3455413579940796
1765542761725681400,18.493681396484376,7.2137298583984375,-1.8100165128707886,-1.1180921792984009
1765542761735660800,18.503660888671874,7.137115478515625,-2.075772762298584,-0.8930372595787048
1765542761745670400,18.51367041015625,6.7708024978637695,-3.177105665206909,-0.5674257874488831
1765542761755649800,18.52364990234375,6.476315498352051,-4.721365928649902,-0.3423708379268646
1765542761765629000,18.53362890625,6.390124320983887,-5.719748020172119,-0.33279404044151306
1765542761775638800,18.543638671875,6.399701118469238,-6.162675380706787,-0.23702596127986908
1765542761785679000,18.55367919921875,6.390124320983887,-6.509834289550781,0.014365210197865963
1765542761795658200,18.563658203125,6.323086738586426,-6.586448669433594,0.10055647045373917
1765542761805698600,18.573698486328126,6.232107162475586,-6.054935932159424,0.21787235140800476
1765542761815677700,18.583677734375,5.714959621429443,-6.129156112670898,0.3016694188117981
1765542761825718000,18.593718017578126,5.382165431976318,-6.473921298980713,0.6009446382522583
1765542761835697400,18.603697509765624,4.865017890930176,-6.7277069091796875,0.6177040338516235
1765542761845707000,18.61370703125,4.343081951141357,-7.328651428222656,0.7541735172271729
1765542761855716900,18.623716796875,3.5960910320281982,-8.554482460021973,0.8882488012313843
1765542761865696000,18.633696044921876,3.098097085952759,-10.213664054870605,0.9816226959228516
1765542761875705900,18.643705810546876,3.098097085952759,-11.111490249633789,0.871489405632019
1765542761885715700,18.6537158203125,2.985569477081299,-11.12106704711914,0.7134721279144287
1765542761895694800,18.66369482421875,2.935291290283203,-10.735600471496582,0.8810662031173706
1765542761905735200,18.673735107421876,2.849100112915039,-10.062829971313477,1.0438719987869263
1765542761915745000,18.6837451171875,2.693476915359497,-9.423578262329102,1.1755530834197998
1765542761935734000,18.703734130859374,2.341529369354248,-9.667786598205566,1.335964560508728
1765542761945743600,18.71374365234375,1.9393033981323242,-10.706870079040527,1.259350061416626
1765542761955753500,18.72375341796875,2.0159177780151367,-11.587936401367188,0.9959878921508789
1765542761965793800,18.733793701171876,2.229001760482788,-11.654973983764648,0.9265560507774353
1765542761975803400,18.743803466796876,2.248155355453491,-11.44907283782959,0.8595184087753296
1765542761985782800,18.75378271484375,2.1595699787139893,-11.26950740814209,0.8786720037460327
1765542761995762000,18.763761962890626,2.008735179901123,-11.185709953308105,0.8762778043746948
1765542762005741300,18.7737412109375,1.6208745241165161,-11.14500904083252,0.7733271718025208
1765542762015751000,18.7837509765625,1.3982137441635132,-11.061211585998535,0.6847416758537292
1765542762035770600,18.8037705078125,0.912190854549408,-10.278307914733887,0.6871358752250671
1765542762045780200,18.8137802734375,0.7015010714530945,-10.105925559997559,0.7422025203704834
1765542762065800000,18.833800048828124,0.5315127968788147,-10.309432983398438,0.6847416758537292
1765542762075809500,18.8438095703125,0.2801215946674347,-10.587160110473633,0.5386953949928284
1765542762085819400,18.8538193359375,-0.09576806426048279,-10.766724586486816,0.4596867263317108
1765542762095798500,18.863798583984376,-0.31364041566848755,-10.773907661437988,0.49320554733276367
1765542762105778000,18.87377783203125,-0.6847416758537292,-10.76193618774414,0.38307225704193115
1765542762115787500,18.88378759765625,-0.9433154463768005,-10.876858711242676,0.4668693244457245
1765542762125827800,18.893827880859376,-1.1420341730117798,-10.845733642578125,0.5650315880775452
1765542762145878000,18.9138779296875,-0.9528923034667969,-10.11789608001709,0.4429273009300232
1765542762205906200,18.97390625,-1.9105730056762695,-10.134655952453613,0.20111294090747833
1765542762225925600,18.993925537109376,-2.207453966140747,-9.835380554199219,0.2968810200691223
1765542762235904800,19.00390478515625,-2.126051187515259,-9.801861763000488,0.3758896589279175
1765542762245914600,19.01391455078125,-1.8818424940109253,-9.478644371032715,0.49320554733276367
1765542762255924500,19.023924560546874,-1.7956513166427612,-9.583989143371582,0.5363011956214905
1765542762265934000,19.03393408203125,-1.821987509727478,-9.859322547912598,0.47884035110473633
1765542762275913500,19.04391357421875,-2.0015525817871094,-10.038887977600098,0.5602431893348694
1765542762285923000,19.053923095703126,-2.1930887699127197,-10.374075889587402,0.569819986820221
1765542762295933000,19.063932861328126,-2.43011474609375,-10.639832496643066,0.5817909836769104
1765542762305942800,19.07394287109375,-2.604891538619995,-11.168951034545898,0.7924807667732239
1765542762315922000,19.083921875,-2.6144683361053467,-11.544840812683105,0.9097966551780701
1765542762325931800,19.093931884765624,-2.255337953567505,-11.57596492767334,0.8379706144332886
1765542762335941400,19.10394140625,-1.7525556087493896,-11.006145477294922,0.8092401623725891
1765542762365940200,19.133940185546876,-0.23702596127986908,-9.794678688049316,0.7015010714530945
1765542762375950000,19.1439501953125,-0.06224924325942993,-10.441113471984863,0.730231523513794
1765542762415897600,19.183897705078124,0.21308395266532898,-10.536881446838379,0.6607996821403503
1765542762435917000,19.2039169921875,0.5339069962501526,-10.32858657836914,0.6440402865409851
1765542762445957400,19.213957275390626,0.9241618514060974,-9.78989028930664,0.43095630407333374
1765542762475956200,19.243956298828124,1.7070658206939697,-9.519346237182617,0.31842881441116333
1765542762515964700,19.283964599609376,0.8379706144332886,-10.283096313476562,0.3423708379268646
1765542762535984000,19.303984130859376,0.8595184087753296,-9.622296333312988,0.3256114423274994
1765542762545994000,19.313993896484376,0.9097966551780701,-9.162610054016113,0.3687070608139038
1765542762556003600,19.324003662109376,0.8092401623725891,-8.990227699279785,0.19632454216480255
1765542762575962000,19.343962158203126,0.5434837937355042,-9.639056205749512,0.42616790533065796
1765542762586002400,19.35400244140625,0.38546648621559143,-10.04846477508545,0.27054479718208313
1765542762615970800,19.383970703125,0.6560112833976746,-9.583989143371582,0.06224924325942993
1765542762625950000,19.393949951171876,0.3687070608139038,-9.399636268615723,0.2585737705230713
1765542762635929300,19.403929443359374,0.11971008777618408,-9.481039047241211,0.4165911078453064
1765542762645969400,19.413969482421876,-0.0694318488240242,-9.586383819580078,0.35913026332855225
1765542762665989000,19.433989013671876,-0.019153613597154617,-9.672574996948242,0.2825157940387726
1765542762685978000,19.45397802734375,0.21787235140800476,-9.586383819580078,0.42377370595932007
1765542762695988000,19.463988037109374,0.31124621629714966,-9.57441234588623,0.3711012601852417
1765542762705997600,19.47399755859375,0.2825157940387726,-9.883264541625977,0.4812345504760742
1765542762716007400,19.48400732421875,0.304063618183136,-10.096348762512207,0.363918662071228
1765542762726017000,19.49401708984375,0.16519992053508759,-10.160991668701172,0.3447650372982025
1765542762736027000,19.50402685546875,0.12449848651885986,-10.062829971313477,0.40462008118629456
1765542762746036700,19.51403662109375,0.14844051003456116,-9.813833236694336,0.4189853072166443
1765542762866062300,19.634062255859376,0.5171475410461426,-9.708487510681152,0.3974374830722809
1765542762936100000,19.70410009765625,0.7015010714530945,-10.165780067443848,0.2537853717803955
1765543008374605300,265.1426052246094,9.861717224121094,2.2242133617401123,-1.0342950820922852
1765543008394325000,265.16232495117185,9.90241813659668,2.387019157409668,-1.048660397529602
1765543008414144500,265.18214453125,9.830592155456543,2.3582887649536133,-0.950498104095459
1765543008434164000,265.2021640625,9.66539192199707,2.4181437492370605,-0.7829039692878723
1765543008444173800,265.212173828125,9.627084732055664,2.1715409755706787,-1.0271124839782715
1765543008454153000,265.2221530761719,9.536105155944824,2.1787235736846924,-0.8978256583213806
1765543008464193300,265.232193359375,9.579200744628906,2.3032219409942627,-0.9026140570640564
1765543008474142000,265.24214184570315,9.459490776062012,2.346317768096924,-0.912190854549408
1765543008484121300,265.2521213378906,9.500192642211914,2.2361843585968018,-1.0007762908935547
1765543008554067500,265.3220673828125,9.909601211547852,2.276885747909546,-0.9313444495201111
1765543008584066300,265.35206640625,9.888052940368652,2.3127987384796143,-0.8307880163192749
1765543008604055300,265.37205517578127,9.775525093078613,2.4181437492370605,-0.912190854549408
1765543008704092000,265.472091796875,9.818621635437012,2.094926595687866,-1.015141487121582
1765543008734152000,265.50215185546875,9.617507934570312,2.10210919380188,-0.8690952062606812
1765543008744161500,265.51216162109375,9.691728591918945,1.8962076902389526,-1.094150185585022
1765543008754171400,265.52217138671875,9.672574996948242,2.0015525817871094,-0.8978256583213806
1765543008764150500,265.5321506347656,9.607931137084961,2.0614075660705566,-0.933738648891449
1765543008774130000,265.5421298828125,9.442731857299805,1.9345149993896484,-1.0127472877502441
1765543008784170200,265.5521701660156,9.428366661071777,2.008735179901123,-1.1109095811843872
1765543008794149400,265.5621494140625,9.552865028381348,2.2170307636260986,-1.1683704853057861
1765543008804189700,265.5721896972656,9.742006301879883,2.169146776199341,-1.072602391242981
1765543008834127400,265.60212744140625,10.019734382629395,2.0685901641845703,-1.070208191871643
1765543008844137200,265.61213720703125,10.067618370056152,2.293645143508911,-0.9648633003234863
1765543008854116400,265.6221164550781,9.945513725280762,2.2433669567108154,-0.9864110946655273
1765543008864156700,265.63215673828125,9.81143856048584,2.1978771686553955,-0.9552865028381348
1765543008884176100,265.65217602539065,9.773131370544434,2.0685901641845703,-0.9816226959228516
1765543008894125000,265.662125,9.828198432922363,2.0015525817871094,-0.993593692779541
1765543008904134700,265.672134765625,9.830592155456543,1.9321208000183105,-0.9313444495201111
1765543008914144500,265.68214453125,9.75397777557373,1.886630892753601,-1.0031704902648926
1765543008974111500,265.7421115722656,9.75397777557373,1.8411411046981812,-1.139639973640442
1765543009064169000,265.8321689453125,9.579200744628906,1.9057846069335938,-1.1635819673538208
1765543009084219000,265.8522189941406,9.718064308166504,1.8794482946395874,-1.115697979927063
1765543009094198300,265.8621982421875,9.770736694335938,1.8962076902389526,-1.1037269830703735
1765543009104238600,265.8722385253906,9.732429504394531,1.946485996246338,-1.1085153818130493
1765543009114217700,265.8822177734375,9.799467086791992,2.054224967956543,-1.0606313943862915
1765543009124227600,265.8922275390625,9.787496566772461,2.0638017654418945,-0.933738648891449
1765543009134237200,265.9022373046875,9.732429504394531,2.0159177780151367,-0.9911994934082031
1765543009144216600,265.9122165527344,9.72285270690918,1.9249382019042969,-0.9696516990661621
1765543009154226200,265.92222607421877,9.679757118225098,1.9369091987609863,-1.0079588890075684
1765543009174215200,265.94221508789065,9.627084732055664,1.8531121015548706,-1.0055646896362305
1765543009184255500,265.95225537109377,9.624691009521484,1.8291701078414917,-0.9983820915222168
1765543009194265300,265.9622653808594,9.679757118225098,1.8411411046981812,-1.0079588890075684
1765543009204244500,265.97224438476565,9.62947940826416,1.889025092124939,-1.048660397529602
1765543009214224000,265.9822238769531,9.586383819580078,1.9536685943603516,-0.9672574996948242
1765543009224203000,265.992203125,9.59835433959961,1.8291701078414917,-1.070208191871643
1765543009234243300,266.0022434082031,9.567230224609375,1.7764976024627686,-1.0797849893569946
1765543009244222700,266.01222265625,9.560047149658203,1.625662922859192,-1.192312479019165
1765543009254171400,266.02217138671875,9.588777542114258,1.8507179021835327,-1.094150185585022
1765543009264181000,266.03218090820315,9.643844604492188,1.8195933103561401,-1.1085153818130493
1765543009274190800,266.04219091796875,9.646238327026367,1.8291701078414917,-1.0342950820922852
1765543009284200700,266.05220068359375,9.670180320739746,1.9991583824157715,-1.0414776802062988
1765543009294179800,266.0621799316406,9.591172218322754,1.9847931861877441,-0.9840168952941895
1765543009304159200,266.0721591796875,9.50737476348877,1.8962076902389526,-1.036689281463623
1765543009314138400,266.0821384277344,9.521739959716797,2.008735179901123,-0.9720458984375
1765543009324178700,266.0921787109375,9.564835548400879,1.9823989868164062,-0.9816226959228516
1765543009334157800,266.10215771484377,9.50498104095459,1.9823989868164062,-0.9576807022094727
1765543009344167700,266.1121677246094,9.512163162231445,1.965639591217041,-1.0582371950149536
1765543009354146800,266.12214672851565,9.569623947143555,1.8626888990402222,-1.1875240802764893
1765543009364156700,266.13215673828125,9.526528358459473,1.8938134908676147,-1.0989385843276978
1765543009374166500,266.14216650390625,9.500192642211914,1.9728221893310547,-1.01753568649292
1765543009394155500,266.1621555175781,9.57441234588623,1.766920804977417,-0.9528923034667969
1765543009404165000,266.1721650390625,9.655815124511719,1.8363527059555054,-0.7924807667732239
1765543009414144500,266.18214453125,9.552865028381348,1.7286136150360107,-0.6488286852836609
1765543009424123600,266.19212353515627,9.715670585632324,1.7477672100067139,-0.6033388376235962
1765543009434133500,266.2021335449219,9.078812599182129,1.7334020137786865,-0.7613561153411865
1765543009444112600,266.21211254882815,8.425195693969727,1.3503297567367554,-1.625662922859192
1765543009464102000,266.2321018066406,7.242460250854492,0.667982280254364,-0.9720458984375
1765543009474111500,266.2421115722656,6.9024834632873535,0.1412578970193863,-1.1037269830703735
1765543009484121300,266.2521213378906,6.84981107711792,0.10773907601833344,-1.3431471586227417
1765543009494100500,266.2621005859375,6.897695064544678,1.4460978507995605,-2.719813108444214
1765543009504140800,266.2721408691406,7.053318023681641,0.8427590131759644,-3.818751811981201
1765543009514120200,266.2821201171875,6.998251438140869,1.1348515748977661,-2.542642116546631
1765543009524099300,266.2920993652344,6.701370716094971,1.6903064250946045,-1.3024457693099976
1765543009534078500,266.30207836914065,6.406883716583252,1.7549498081207275,-1.3742717504501343
1765543009544088300,266.31208837890625,6.069301128387451,1.5131354331970215,-1.8291701078414917
1765543009554037000,266.322037109375,5.590460777282715,1.01753568649292,-2.2385785579681396
1765543009564077300,266.3320773925781,5.12119722366333,0.40940847992897034,-2.346317768096924
1765543009574056700,266.342056640625,4.982333660125732,0.14844051003456116,-2.43011474609375
1765543009594076200,266.362076171875,4.63517427444458,0.6224924325942993,-2.4396915435791016
1765543009604055300,266.37205517578127,4.63517427444458,0.6224924325942993,-2.4396915435791016
1765543009614004200,266.3820041503906,4.508281707763672,0.9696516990661621,-2.365471363067627
1765543009624013800,266.3920139160156,4.24970817565918,1.8052281141281128,-2.4229321479797363
1765543009634023700,266.4020236816406,3.732560396194458,1.723825216293335,-2.2840683460235596
1765543009644064000,266.41206396484375,3.708618402481079,0.19393034279346466,-2.5282769203186035
1765543009654073600,266.42207348632815,3.2345664501190186,-1.922544002532959,-3.203441858291626
1765543009664114000,266.4321140136719,2.7246015071868896,-3.050212860107422,-3.845088005065918
1765543009674093300,266.44209326171875,2.3582887649536133,-4.247313976287842,-4.331110954284668
1765543009684072400,266.4520725097656,2.851494312286377,-5.604825973510742,-4.606443881988525
1765543009704061400,266.4720615234375,2.80361008644104,-5.054159641265869,-5.4444146156311035
1765543009714071300,266.4820712890625,2.5474305152893066,-4.999093055725098,-5.374982833862305
1765543009724081000,266.4920808105469,2.535459518432617,-6.165069580078125,-5.343858242034912
1765543009734029800,266.50202978515625,2.5474305152893066,-8.034940719604492,-5.803544998168945
1765543009744070100,266.5120700683594,2.58813214302063,-8.971074104309082,-6.332663536071777
1765543009754079700,266.5220798339844,2.853888511657715,-8.698134422302246,-6.89530086517334
1765543009764059100,266.53205908203125,2.75812029838562,-8.219294548034668,-7.216124057769775
1765543009774038300,266.5420383300781,2.5306711196899414,-8.439560890197754,-7.3023152351379395
1765543009784048000,266.5520480957031,2.169146776199341,-8.7268648147583,-7.568071365356445
1765543009794088400,266.56208837890625,1.7166426181793213,-9.363722801208496,-7.960720539093018
1765543009824087000,266.5920871582031,0.507570743560791,-10.919954299926758,-9.430760383605957
1765543009834127400,266.60212744140625,0.5219359993934631,-10.182539939880371,-9.730035781860352
1765543009844137200,266.61213720703125,0.6751648783683777,-9.44991397857666,-9.653421401977539
1765543009854146800,266.62214672851565,0.8164227604866028,-8.951920509338379,-9.555258750915527
1765543009864126200,266.6321262207031,1.1492167711257935,-9.368511199951172,-9.734824180603027
1765543009874105300,266.6421052246094,1.2880805730819702,-9.782708168029785,-10.366893768310547
1765543009884115200,266.652115234375,1.4197616577148438,-9.921571731567383,-10.943896293640137
1765543009894094300,266.66209423828127,1.5490485429763794,-10.000580787658691,-11.192893028259277
1765543009904073700,266.67207373046875,1.6639702320098877,-10.228029251098633,-11.245565414428711
1765543009934041900,266.7020417480469,1.290474772453308,-10.642226219177246,-11.63103199005127
1765543009964040700,266.7320407714844,0.993593692779541,-10.503362655639648,-11.602301597595215
1765543009974050600,266.7420505371094,0.9050082564353943,-10.453084945678711,-11.513715744018555
1765543009984060200,266.75206005859377,0.8475474119186401,-10.527304649353027,-11.645397186279297
1765543009994100500,266.7621005859375,0.8307880163192749,-10.299856185913086,-11.57596492767334
1765543010004079900,266.7720798339844,0.8140285611152649,-10.218452453613281,-11.458649635314941
1765543010024099300,266.7920993652344,0.8595184087753296,-9.500192642211914,-10.970232009887695
1765543010094137000,266.86213720703125,1.9943699836730957,-7.3238630294799805,-9.253589630126953
1765543010104116500,266.8721164550781,2.121262788772583,-7.450755596160889,-9.160215377807617
1765543010114126000,266.8821259765625,2.2649147510528564,-7.443572998046875,-9.004592895507812
1765543010124136000,266.8921359863281,2.315192937850952,-7.592013359069824,-8.89685344696045
1765543010194235000,266.96223486328125,2.0805611610412598,-7.084442615509033,-8.980650901794434
1765543010204214000,266.9722141113281,1.9584569931030273,-6.88332986831665,-9.150638580322266
1765543010214224000,266.9822238769531,1.8507179021835327,-6.689399719238281,-9.186552047729492
1765543010224233500,266.9922333984375,1.8052281141281128,-6.54574728012085,-9.351752281188965
1765543010254262800,267.0222626953125,1.7142484188079834,-6.1985883712768555,-9.660603523254395
1765543010264272600,267.0322727050781,1.599326729774475,-6.165069580078125,-9.890447616577148
1765543010274282500,267.0422824707031,1.599326729774475,-6.165069580078125,-9.890447616577148
1765543010284292000,267.0522919921875,1.45806884765625,-6.172252178192139,-10.062829971313477
1765543010294271500,267.062271484375,1.290474772453308,-6.033388137817383,-10.20648193359375
1765543010314291000,267.082291015625,0.8331822156906128,-5.889736175537109,-10.42195987701416
1765543010324300800,267.09230078125,0.6823474764823914,-5.884947776794434,-10.462661743164062
1765543010354330000,267.122330078125,0.5434837937355042,-5.638344764709473,-10.596736907958984
1765543010374349600,267.142349609375,0.3423708379268646,-5.413290023803711,-10.556035041809082
1765543010384328700,267.15232861328127,0.31603461503982544,-5.264849662780762,-10.457873344421387
1765543010394338600,267.1623386230469,0.30885201692581177,-5.20978307723999,-10.390835762023926
1765543010404348400,267.1723483886719,0.3926490843296051,-5.044582843780518,-10.431536674499512
1765543010414327600,267.18232763671875,0.3926490843296051,-4.8722004890441895,-10.51054573059082
1765543010424367900,267.1923679199219,0.3878606855869293,-4.702212333679199,-10.615890502929688
1765543010434377700,267.2023776855469,0.4429273009300232,-4.608838081359863,-10.649409294128418
1765543010454427600,267.222427734375,0.29209262132644653,-4.402936935424805,-10.309432983398438
1765543010464437500,267.2324375,0.16998831927776337,-4.175487995147705,-10.168174743652344
1765543010474447000,267.2424470214844,0.10055647045373917,-4.01268196105957,-10.036493301391602
1765543010484457000,267.25245703125,0.028730420395731926,-3.9624037742614746,-10.08198356628418
1765543010494436400,267.2624362792969,-0.016759412363171577,-3.866635799407959,-9.909601211547852
1765543010504446000,267.2724460449219,-0.0071826050989329815,-3.6846764087677,-9.806650161743164
1765543010514455800,267.2824558105469,0.040701430290937424,-3.627215623855591,-9.603142738342285
1765543521421303600,778.1893034667969,7.115567684173584,0.4357447028160095,4.886565685272217
1765543521431282700,778.1992827148438,7.558494567871094,2.1068975925445557,5.772420406341553
1765543521441262000,778.2092619628907,5.937620162963867,0.4644751250743866,6.289567947387695
1765543521450972000,778.2189719238281,4.01268196105957,-0.6392518281936646,6.797138690948486
1765543521460581600,778.2285815429688,2.832340717315674,-0.4165911078453064,8.08043098449707
1765543521470421800,778.238421875,1.5394717454910278,-0.014365210197865963,9.445125579833984
1765543521500251100,778.2682512207032,1.7118542194366455,2.1595699787139893,9.548076629638672
1765543521510230300,778.2782302246094,1.1228805780410767,0.6584054827690125,8.81784439086914
1765543521520240000,778.288240234375,1.2521674633026123,-1.2473790645599365,8.092401504516602
1765543521530250000,778.29825,1.4987702369689941,-1.3910311460494995,7.9176249504089355
1765543521570258400,778.3382585449219,3.0358476638793945,2.1164743900299072,8.238448143005371
1765543521580268300,778.3482683105469,2.4013843536376953,1.5298948287963867,7.898471355438232
1765543521590278000,778.3582778320313,1.86508309841156,0.8810662031173706,8.161833763122559
1765543521600287700,778.3682878417969,1.7310078144073486,2.0853497982025146,8.875306129455566
1765543521610267000,778.3782668457031,2.140416383743286,2.8419175148010254,9.387664794921875
1765543521620276700,778.3882768554688,3.093308687210083,2.2888567447662354,9.153033256530762
1765543521660285200,778.42828515625,3.8522706031799316,1.5418659448623657,8.798690795898438
1765543521700324400,778.4683244628907,5.070919036865234,1.3215993642807007,8.274360656738281
1765543521740332800,778.5083327636719,3.294421434402466,-0.545877993106842,8.765172004699707
1765543521800422100,778.5684221191407,2.9017724990844727,2.669534921646118,8.109161376953125
1765543521820441600,778.5884416503907,3.928884983062744,2.561795711517334,8.645462036132812
1765543521830451200,778.598451171875,3.6367924213409424,1.8171991109848022,8.707711219787598
1765543521840461000,778.6084609375,3.600879430770874,1.3192051649093628,8.669404029846191
1765543521850440400,778.6184404296876,4.089296340942383,0.6655880808830261,8.791508674621582
1765543521860450000,778.6284499511719,3.6822822093963623,0.8738836050033569,9.033323287963867
1765543521870460000,778.6384599609376,3.7924153804779053,1.091755986213684,8.856152534484863
1765543521880469800,778.6484697265626,3.536235809326172,1.5729905366897583,9.121908187866211
1765543521890479400,778.6584792480469,3.4093432426452637,1.5203180313110352,9.239224433898926
1765543521900489200,778.6684892578126,2.9233202934265137,1.194706678390503,9.75637149810791
1765543521910498800,778.6784987792969,2.7940332889556885,1.0438719987869263,10.050858497619629
1765543521920508700,778.6885087890626,3.002328872680664,0.7781155705451965,9.679757118225098
1765543521930518500,778.6985185546876,3.265691041946411,1.173158884048462,9.373299598693848
1765543521960486700,778.7284865722656,3.251325845718384,2.322375535964966,8.722076416015625
1765543521970466000,778.7384660644532,2.8179752826690674,2.4181437492370605,8.451532363891602
1765543521980445200,778.7484450683594,3.5960910320281982,2.1045033931732178,8.20732307434082
1765543521990424600,778.7584245605469,3.1435868740081787,2.3535003662109375,8.645462036132812
1765543522000464600,778.7684645996094,2.8802247047424316,2.6647465229034424,8.851364135742188
1765543522010444000,778.7784440917969,3.2082302570343018,2.779668092727661,8.611943244934082
1765543522030494000,778.7984938964844,3.6774938106536865,2.2457611560821533,8.537723541259766
1765543522040534300,778.8085341796875,3.4596214294433594,2.0183119773864746,8.789113998413086
1765543522070472200,778.8384721679688,2.3247697353363037,0.8858546018600464,9.660603523254395
1765543522170447600,778.9384475097656,1.7142484188079834,0.7038952708244324,8.315062522888184
1765543522200507400,778.9685073242188,0.9361328482627869,-1.5083470344543457,8.7268648147583
1765543522220496400,778.9884963378906,0.38067805767059326,-0.3280056416988373,9.306262016296387
1765543522230506200,778.9985063476563,0.8427590131759644,0.9888052940368652,9.162610054016113
1765543522250525700,779.0185256347656,1.7477672100067139,3.4093432426452637,8.87291145324707
1765543522260505000,779.0285051269532,2.827552318572998,4.63517427444458,8.686163902282715
1765543522270514700,779.0385146484375,3.931279182434082,5.106832027435303,8.303091049194336
1765543522280555000,779.0485549316406,5.48272180557251,5.188235282897949,8.075642585754395
1765543522330542800,779.09854296875,4.738125324249268,1.9369091987609863,9.852140426635742
1765543522340522200,779.1085222167969,4.671087741851807,1.5849615335464478,10.010157585144043
1765543522350501400,779.1185014648438,4.256890773773193,1.4389152526855469,9.832986831665039
1765543522360541700,779.1285417480469,3.691859006881714,1.1276689767837524,9.799467086791992
1765543522370551300,779.1385512695313,3.397372245788574,1.4963760375976562,9.998186111450195
1765543522380561200,779.1485610351563,3.5458126068115234,1.8315643072128296,9.512163162231445
1765543522390571000,779.1585710449219,2.801215887069702,1.8315643072128296,8.927978515625
1765543522400550100,779.1685500488281,2.612074136734009,2.0015525817871094,8.707711219787598
1765543522410590500,779.1785905761719,2.4420857429504395,2.051830768585205,8.877699851989746
1765543522420600300,779.1886003417969,2.367865562438965,2.0398597717285156,8.81784439086914
1765543522430610000,779.1986098632813,2.22660756111145,1.4987702369689941,8.731653213500977
1765543522440619800,779.2086198730469,2.0590133666992188,1.3503297567367554,8.882488250732422
1765543522450599000,779.2185988769531,2.293645143508911,1.3192051649093628,9.014169692993164
1765543522460608800,779.2286088867188,2.0254945755004883,1.316810965538025,9.215282440185547
1765543522470618600,779.2386186523438,2.5905263423919678,1.479616641998291,9.131484985351562
1765543522480597800,779.24859765625,3.0382418632507324,1.1563993692398071,9.349357604980469
1765543522490607600,779.2586076660157,2.9089550971984863,0.47644615173339844,9.895236015319824
1765543522510627000,779.278626953125,2.164358377456665,0.5410895943641663,9.715670585632324
1765543522530646500,779.298646484375,1.7046716213226318,0.5650315880775452,9.38048267364502
1765543522540656400,779.3086564941407,1.9704279899597168,1.6065093278884888,9.272743225097656
1765543522550666200,779.3186662597657,2.322375535964966,2.7988216876983643,8.724471092224121
1765543522560706600,779.3287065429688,2.7269957065582275,2.827552318572998,8.415618896484375
1765543522570716200,779.3387160644531,3.3518824577331543,2.691082715988159,8.975862503051758
1765543522580726000,779.3487260742188,4.000710964202881,2.209848165512085,9.461885452270508
1765543522590736000,779.3587358398438,3.751713991165161,1.802833914756775,9.50737476348877
1765543522600745500,779.3687453613281,3.1699230670928955,1.6065093278884888,9.320627212524414
1765543522630774800,779.3987749023438,1.8602946996688843,1.5897499322891235,9.17697525024414
1765543522640815000,779.4088151855469,2.078166961669922,1.6496049165725708,9.263166427612305
1765543522650825000,779.4188249511719,2.691082715988159,2.032677173614502,9.208099365234375
1765543522660865000,779.4288649902344,2.8778305053710938,1.9560627937316895,9.17936897277832
1765543522670875000,779.438875,2.8155810832977295,1.400607943534851,9.337387084960938
1765543522680884700,779.448884765625,2.542642116546631,1.0438719987869263,9.457097053527832
1765543522690894300,779.4588942871094,2.655169725418091,0.9481038451194763,9.387664794921875
1765543522700904200,779.468904296875,2.609679937362671,1.0223240852355957,9.246406555175781
1765543522710914000,779.4789140625,2.5306711196899414,1.173158884048462,9.124302864074707
1765543522730903000,779.4989030761719,2.188300371170044,1.7980455160140991,8.935160636901855
1765543522740912600,779.5089125976563,2.118868589401245,1.7836803197860718,8.81784439086914
1765543522750922500,779.5189226074219,2.118868589401245,1.7836803197860718,8.81784439086914
1765543522760932400,779.5289323730469,2.073378562927246,1.623268723487854,8.772355079650879
1765543522770942000,779.5389418945313,2.255337953567505,1.479616641998291,8.87291145324707
1765543522780951800,779.5489519042969,2.322375535964966,1.6903064250946045,9.344569206237793
1765543522790961700,779.5589616699219,2.2816741466522217,1.9297266006469727,9.718064308166504
1765543522800971300,779.5689711914063,2.3319525718688965,1.9919757843017578,9.713275909423828
1765543522810950700,779.5789506835938,2.4899697303771973,1.9632453918457031,9.47146224975586
1765543522820991000,779.5889909667969,2.6001031398773193,1.403002142906189,9.255983352661133
1765543522831000600,779.5990004882813,2.367865562438965,1.2258312702178955,9.11233139038086
1765543522841041000,779.609041015625,2.185906171798706,1.216254472732544,9.133879661560059
1765543522851020300,779.6190202636719,2.164358377456665,1.4101848602294922,9.038111686706543
1765543522860999400,779.6289995117188,2.2601263523101807,1.6065093278884888,9.026140213012695
1765543522871039700,779.6390397949219,2.47560453414917,1.6615760326385498,9.169792175292969
1765543522881049300,779.6490493164063,2.499546527862549,1.6974890232086182,9.332598686218262
1765543522891059200,779.6590590820313,2.674323320388794,1.4915876388549805,9.466673851013184
1765543522901069000,779.6690690917969,2.738966703414917,1.41257905960083,9.454702377319336
1765543522911078700,779.6790786132813,2.5905263423919678,1.4197616577148438,9.476250648498535
1765543522941047000,779.7090471191407,2.7293899059295654,1.3431471586227417,9.615114212036133
1765543522951057000,779.7190568847657,2.6360161304473877,1.280897855758667,9.425971984863281
1765543522961066500,779.72906640625,2.4827871322631836,1.5179238319396973,9.198522567749023
1765543522971046000,779.7390458984376,2.3032219409942627,1.721431016921997,9.124302864074707
1765543522981025000,779.7490249023438,2.0590133666992188,1.8698714971542358,9.191340446472168
1765543522991065300,779.7590654296876,2.075772762298584,1.7046716213226318,9.17936897277832
1765543523001105700,779.7691057128907,2.188300371170044,1.6208745241165161,9.095572471618652
1765543523011084800,779.7790847167969,2.27209734916687,1.4101848602294922,9.289502143859863
1765543523021064200,779.7890642089844,2.389413356781006,1.3934253454208374,9.442731857299805
1765543523051062800,779.8190627441406,2.363077163696289,1.647210717201233,9.119514465332031
1765543523061072600,779.8290727539063,2.343923568725586,1.53707754611969,9.062053680419922
1765543523071052000,779.8390520019532,2.1332337856292725,1.414973258972168,8.995016098022461
1765543523081061600,779.8490615234375,2.3702597618103027,1.41257905960083,9.040505409240723
1765543523091071500,779.8590715332032,2.717418909072876,1.316810965538025,9.287108421325684
1765543523101081000,779.8690810546875,2.7246015071868896,1.3263877630233765,9.6989107131958
1765543523111091000,779.8790910644532,2.3247697353363037,1.6184803247451782,9.533711433410645
1765543523121100800,779.8891008300782,2.255337953567505,2.006340980529785,9.078812599182129
1765543523131110400,779.8991103515625,2.363077163696289,1.745373010635376,9.014169692993164
1765543523151130000,779.9191301269532,2.360682964324951,1.161187767982483,9.44991397857666
1765543523161109200,779.9291091308594,2.4420857429504395,1.1468225717544556,9.44752025604248
1765543523171088600,779.9390886230469,2.628833532333374,1.4173674583435059,9.133879661560059
1765543523181067800,779.9490678710938,2.6575639247894287,1.50355863571167,9.198522567749023
1765543523191047000,779.959046875,2.717418909072876,1.4628572463989258,9.351752281188965
1765543523201087200,779.9690871582031,2.5953147411346436,1.4867992401123047,9.600749015808105
1765543523211066600,779.9790666503907,2.279279947280884,1.4508862495422363,9.490615844726562
1765543523221045800,779.9890456542969,2.161964178085327,1.7932571172714233,9.172186851501465
1765543523231086000,779.9990861816407,2.3367409706115723,1.7932571172714233,8.875306129455566
1765543523261085000,780.0290849609376,2.4013843536376953,1.6328455209732056,9.136273384094238
1765543523271125200,780.0391252441407,2.6791117191314697,1.2545616626739502,9.445125579833984
1765543523281134800,780.049134765625,2.518700122833252,1.2114660739898682,9.351752281188965
1765543523291114200,780.0591142578126,2.5785553455352783,1.534683346748352,9.17697525024414
1765543523301123800,780.0691237792969,2.499546527862549,1.702277421951294,9.050082206726074
1765543523311133700,780.0791337890626,2.3295583724975586,1.6711528301239014,9.160215377807617
1765543523321174000,780.0891740722657,2.231395959854126,1.6352397203445435,9.301473617553711
1765543523331153200,780.0991530761719,2.3104045391082764,1.41257905960083,9.337387084960938
1765543523341163000,780.1091630859376,2.382230758666992,1.3287819623947144,9.258378028869629
1765543523351142100,780.1191420898438,2.470816135406494,1.53707754611969,9.255983352661133
1765543523371131100,780.1391311035156,2.367865562438965,1.6424223184585571,9.093177795410156
1765543523381141000,780.1491411132813,2.1763293743133545,1.5634137392044067,8.99740982055664
1765543523391150800,780.1591508789063,2.161964178085327,1.4963760375976562,9.174580574035645
1765543523401160400,780.1691604003906,2.3918075561523438,1.359906554222107,9.287108421325684
1765543523411170300,780.1791704101563,2.559401512145996,1.2952631711959839,9.349357604980469
1765543523421180200,780.1891801757813,2.559401512145996,1.2952631711959839,9.349357604980469
1765543523431189800,780.1991896972656,2.7676970958709717,1.5394717454910278,9.435548782348633
1765543523441169200,780.2091691894532,2.7461493015289307,1.7717092037200928,9.390059471130371
1765543523451178800,780.2191787109375,2.6408045291900635,1.6950948238372803,9.308655738830566
1765543523471168000,780.23916796875,2.166752576828003,1.5418659448623657,9.275136947631836
1765543523481208000,780.2492080078125,2.209848165512085,1.6903064250946045,9.188945770263672
1765543523491218000,780.2592180175782,2.3558945655822754,1.8315643072128296,9.102754592895508
1765543523501227800,780.2692277832032,2.698265314102173,1.8698714971542358,9.174580574035645
1765543523511237400,780.2792373046875,2.7557260990142822,1.9728221893310547,9.21288776397705
1765543523521216800,780.289216796875,2.738966703414917,1.599326729774475,9.363722801208496
1765543523531226400,780.2992263183594,2.832340717315674,1.0965443849563599,9.294290542602539
1765543523541236200,780.309236328125,2.889801502227783,0.871489405632019,9.634267807006836
1765543523551215400,780.3192153320313,2.7892448902130127,1.2761094570159912,9.648633003234863
1765543523561225200,780.3292250976563,2.4468741416931152,1.8100165128707886,9.44752025604248
1765543523571204600,780.3392045898438,2.2864625453948975,1.8531121015548706,9.114726066589355
1765543523581214200,780.3492141113281,2.233790159225464,1.7717092037200928,9.093177795410156
1765543523591224000,780.3592241210938,2.169146776199341,1.6065093278884888,9.193734169006348
1765543523601234000,780.3692338867188,2.403778553009033,1.280897855758667,9.155426979064941
1765543523611213000,780.3792131347657,2.3558945655822754,1.4724340438842773,9.397241592407227
1765543523621223000,780.3892229003907,2.3247697353363037,1.7908629179000854,9.59596061706543
1765543523631202000,780.3992021484376,2.518700122833252,1.968033790588379,9.296685218811035
1765543523641212000,780.4092119140626,2.492363929748535,1.7908629179000854,9.023746490478516
1765543523651191000,780.4191909179688,2.293645143508911,1.647210717201233,8.973467826843262
1765543523661170400,780.4291704101563,2.5258827209472656,1.5705963373184204,8.944737434387207
1765543523671180000,780.4391799316406,2.6192567348480225,1.2210428714752197,9.02135181427002
1765543523691169000,780.4591689453125,2.205059766769409,1.5897499322891235,9.440337181091309
1765543523701179000,780.4691789550782,2.7724854946136475,1.8579005002975464,9.66299819946289
1765543523711188700,780.4791887207032,2.9879636764526367,1.965639591217041,9.141061782836914
1765543523721198300,780.4891982421875,2.717418909072876,1.9153614044189453,9.133879661560059
1765543523731208200,780.4992082519532,2.4420857429504395,1.6615760326385498,9.253589630126953
1765543523741218000,780.5092180175782,1.8315643072128296,1.4844050407409668,9.514557838439941
1765543523751227600,780.5192275390625,1.6615760326385498,1.3192051649093628,9.363722801208496
1765543523761207000,780.52920703125,1.8770540952682495,1.50355863571167,9.208099365234375
1765543523791205600,780.5592055664063,1.9153614044189453,1.7956513166427612,9.064447402954102
1765543523801246000,780.5692458496094,2.0829553604125977,1.5131354331970215,9.138668060302734
1765543523811225300,780.5792253417969,1.8770540952682495,1.3503297567367554,9.318233489990234
1765543523831214300,780.5992143554688,1.702277421951294,1.2234370708465576,9.224859237670898
1765543523841224000,780.6092238769531,1.292868971824646,0.9074024558067322,9.208099365234375
1765543523851233800,780.6192338867188,1.0869675874710083,0.706289529800415,9.057265281677246
1765543523861243600,780.6292436523438,1.0821791887283325,0.8020575642585754,9.169792175292969
1765543523871253200,780.6392531738281,1.3120225667953491,1.2497732639312744,9.050082206726074
1765543523881232600,780.6492326660157,1.3455413579940796,2.1116859912872314,9.366117477416992
1765543523891211800,780.6592116699219,1.702277421951294,2.387019157409668,9.464279174804688
1765543523901221600,780.6692216796876,2.27209734916687,2.425326347351074,9.20091724395752
1765543523911200800,780.6792006835938,2.3271639347076416,2.434903144836426,8.913613319396973
1765543523921241000,780.6892409667969,2.449268341064453,1.9967641830444336,8.827422142028809
1765543523931251000,780.6992509765626,2.896984100341797,2.207453966140747,8.971074104309082
1765543523941260500,780.7092604980469,4.489128112792969,2.786850690841675,8.69334602355957
1765543523951270400,780.7192705078126,3.313575267791748,2.6144683361053467,9.224859237670898
1765543523961280300,780.7292802734376,3.2178070545196533,2.049436569213867,9.636661529541016
1765543523971259400,780.7392592773438,2.7293899059295654,1.7046716213226318,9.749189376831055
1765543523991278800,780.7592788085938,2.4803929328918457,1.2282254695892334,9.117119789123535
1765543524011268000,780.7792680664063,2.609679937362671,1.3886369466781616,9.334992408752441
1765543524021308200,780.7893081054688,2.889801502227783,1.6543933153152466,9.466673851013184
1765543524031318000,780.7993181152344,2.920926094055176,1.7501614093780518,9.634267807006836
1765543524041327900,780.8093278808594,2.6408045291900635,1.6735470294952393,9.66539192199707
1765543524051307000,780.8193071289063,2.389413356781006,1.5490485429763794,9.313444137573242
1765543524061316900,780.8293168945313,2.2170307636260986,1.4724340438842773,9.126696586608887
1765543524071357200,780.8393571777344,2.121262788772583,1.4939818382263184,9.11233139038086
1765543524081336300,780.8493364257813,2.121262788772583,1.4939818382263184,9.11233139038086
1765543524091346200,780.8593461914063,1.9536685943603516,1.6759412288665771,9.23682975769043
1765543524101355800,780.8693557128906,2.097320795059204,1.7980455160140991,9.210494041442871
1765543524111335200,780.8793352050782,2.5091233253479004,1.7717092037200928,9.351752281188965
1765543524121375500,780.8893754882813,2.585737943649292,1.6615760326385498,9.255983352661133
1765543524131354600,780.8993547363282,2.451662540435791,1.6065093278884888,9.162610054016113
1765543524141334000,780.909333984375,2.3726539611816406,1.5275006294250488,9.188945770263672
1765543524151374000,780.9193740234375,2.1954829692840576,1.4245500564575195,9.346963882446289
1765543524161353500,780.929353515625,2.1763293743133545,1.4197616577148438,9.299078941345215
1765543524171393800,780.9393937988282,2.2194249629974365,1.4484920501708984,9.181763648986816
1765543524181403400,780.9494033203125,2.1068975925445557,1.6663644313812256,9.241618156433105
1765543524201423000,780.9694230957032,2.346317768096924,1.6208745241165161,9.368511199951172
1765543524211432700,780.9794326171875,2.3918075561523438,1.5873557329177856,9.315838813781738
1765543524221442600,780.9894426269532,2.5091233253479004,1.3862427473068237,9.277531623840332
1765543524231421700,780.9994216308594,2.5115175247192383,1.3958195447921753,9.35893440246582
1765543524241401000,781.0094011230469,2.360682964324951,1.4844050407409668,9.375694274902344
1765543524251441400,781.01944140625,2.3271639347076416,1.4939818382263184,9.308655738830566
1765543524261420500,781.0294206542969,2.2840683460235596,1.6304513216018677,9.244012832641602
1765543524271460900,781.0394609375,2.3535003662109375,1.7094600200653076,9.148244857788086
1765543524281470700,781.049470703125,2.43011474609375,1.5658079385757446,9.308655738830566
1765543524291449900,781.0594499511719,2.2912509441375732,1.53707754611969,9.363722801208496
1765543524301459700,781.0694597167969,2.209848165512085,1.5610195398330688,9.315838813781738
1765543524311469300,781.0794692382813,2.126051187515259,1.7573440074920654,9.150638580322266
1765543524321479200,781.0894792480469,2.250549554824829,1.699883222579956,9.097966194152832
1765543524331489000,781.0994890136719,2.33913516998291,1.4748282432556152,9.20091724395752
1765543524341498600,781.1094985351563,2.279279947280884,1.5179238319396973,9.332598686218262
1765543524351508500,781.1195085449219,2.454056739807129,1.678335428237915,9.344569206237793
1765543524361518300,781.1295183105469,2.5019407272338867,1.7262194156646729,9.366117477416992
1765543524371528000,781.1395278320313,2.492363929748535,1.702277421951294,9.35893440246582
1765543524381537800,781.1495378417969,2.346317768096924,1.702277421951294,9.318233489990234
1765543524391547400,781.1595473632813,2.229001760482788,1.522712230682373,9.205705642700195
1765543524401557200,781.1695571289063,2.2146365642547607,1.4772224426269531,9.17697525024414
1765543524411567000,781.1795671386719,2.2864625453948975,1.5155296325683594,9.167398452758789
1765543524421576700,781.1895766601563,2.293645143508911,1.4748282432556152,9.32541561126709
1765543524431586600,781.1995866699219,2.3032219409942627,1.4628572463989258,9.289502143859863
1765543524441627000,781.209626953125,2.315192937850952,1.4963760375976562,9.346963882446289
1765543524451606000,781.2196059570313,2.3104045391082764,1.6304513216018677,9.217676162719727
1765543524461585400,781.2295854492188,2.3702597618103027,1.6304513216018677,9.275136947631836
1765543524471625700,781.2396257324219,2.3343467712402344,1.4939818382263184,9.394847869873047
1765543524481635300,781.2496352539063,2.3558945655822754,1.4844050407409668,9.330204010009766
1765543524491614700,781.2596147460938,2.425326347351074,1.4891934394836426,9.27034854888916
1765543524511634200,781.2796342773438,2.2026655673980713,1.5490485429763794,9.289502143859863
1765543524521613300,781.28961328125,2.2218191623687744,1.558625340461731,9.215282440185547
