time,seconds_elapsed,z,y,x
1765542740075812600,-3.1561875,-0.025656340643763542,-0.04153883829712868,-0.09285151958465576
1765542740095801600,-3.136198486328125,-0.0012217304902151227,-0.0806342139840126,-0.03176499158143997
1765542740105842000,-3.126157958984375,0.00366519158706069,-0.0806342139840126,-0.05009094998240471
1765542740125831000,-3.106169189453125,0.01466076634824276,-0.08429940044879913,-0.021991148591041565
1765542740135810000,-3.09618994140625,0.025656340643763542,-0.07330382615327835,-0.03298672288656235
1765542740145850400,-3.086149658203125,0.03298672288656235,-0.05864306539297104,-0.042760565876960754
1765542740155860200,-3.076139892578125,0.02932153269648552,-0.04764748737215996,-0.0354301854968071
1765542740165869800,-3.066130126953125,0.028099801391363144,-0.04398229718208313,-0.021991148591041565
1765542740175879700,-3.056120361328125,0.02321287989616394,-0.03298672288656235,-0.02321287989616394
1765542740185920000,-3.046080078125,0.021991148591041565,-0.012217304669320583,-0.02687807008624077
1765542740215949300,-3.01605078125,-0.004886921960860491,0.01710422709584236,0.02076941914856434
1765542740235938300,-2.996061767578125,-0.013439035043120384,0.009773843921720982,0.0024434609804302454
1765542740245978600,-2.986021484375,-0.00855211354792118,0.006108652334660292,-0.00733038317412138
1765542740255988200,-2.97601171875,-0.00855211354792118,-0.0012217304902151227,-0.00733038317412138
1765542740266028500,-2.965971435546875,-0.010995574295520782,-0.00733038317412138,0.0024434609804302454
1765542740276008000,-2.955991943359375,-0.010995574295520782,-0.012217304669320583,0.015882495790719986
1765542740286017500,-2.945982421875,-0.012217304669320583,-0.01710422709584236,0.021991148591041565
1765542740296027400,-2.93597265625,-0.006108652334660292,-0.021991148591041565,0.012217304669320583
1765542740335975000,-2.896025146484375,-0.0024434609804302454,-0.02321287989616394,0.00733038317412138
1765542740346045700,-2.885954345703125,0.0012217304902151227,-0.02076941914856434,0.015882495790719986
1765542740356024800,-2.87597509765625,0.0012217304902151227,-0.021991148591041565,0.021991148591041565
1765542740366065200,-2.865934814453125,0.006108652334660292,-0.02076941914856434,0.019547687843441963
1765542740376075000,-2.855925048828125,0.009773843921720982,-0.021991148591041565,0.0012217304902151227
1765542740386084900,-2.8459150390625,0.01466076634824276,-0.019547687843441963,-0.00855211354792118
1765542740396094500,-2.835905517578125,0.019547687843441963,-0.01466076634824276,-0.009773843921720982
1765542740416114000,-2.815885986328125,0.02321287989616394,-0.012217304669320583,-0.0012217304902151227
1765542740426123800,-2.805876220703125,0.02076941914856434,-0.00366519158706069,0.004886921960860491
1765542740436103200,-2.795896728515625,0.018325956538319588,-0.0012217304902151227,0.012217304669320583
1765542740446143200,-2.785856689453125,0.015882495790719986,-0.0024434609804302454,0.01466076634824276
1765542740456153000,-2.775846923828125,0.018325956538319588,0.0012217304902151227,0.004886921960860491
1765542740466132500,-2.765867431640625,0.01710422709584236,0.00855211354792118,-0.0024434609804302454
1765542740476142000,-2.75585791015625,0.012217304669320583,0.013439035043120384,-0.00733038317412138
1765542740486121500,-2.74587841796875,0.0024434609804302454,0.015882495790719986,-0.009773843921720982
1765542740496100600,-2.7358994140625,-0.0012217304902151227,0.021991148591041565,-0.015882495790719986
1765542740506110500,-2.7258896484375,-0.004886921960860491,0.02932153269648552,-0.024434609338641167
1765542740536109000,-2.695890869140625,-0.006108652334660292,0.05009094998240471,-0.019547687843441963
1765542740546088400,-2.68591162109375,-0.00855211354792118,0.04886921867728233,0.006108652334660292
1765542740556067600,-2.675932373046875,-0.00733038317412138,0.04886921867728233,0.00366519158706069
1765542740566108000,-2.66589208984375,-0.0012217304902151227,0.0403171069920063,-0.006108652334660292
1765542740576117800,-2.65588232421875,0.00855211354792118,0.03176499158143997,-0.024434609338641167
1765542740586127400,-2.64587255859375,0.009773843921720982,0.028099801391363144,-0.03787364438176155
1765542740596106800,-2.635893310546875,0.013439035043120384,0.028099801391363144,-0.05009094998240471
1765542740606086000,-2.6259140625,0.00733038317412138,0.024434609338641167,-0.06230825558304787
1765542740616065300,-2.615934814453125,0.00366519158706069,0.024434609338641167,-0.05619960278272629
1765542740646063900,-2.58593603515625,-0.00366519158706069,0.036651913076639175,-0.012217304669320583
1765542740656073700,-2.57592626953125,-0.00733038317412138,0.04398229718208313,-0.01466076634824276
1765542740666053000,-2.56594677734375,-0.009773843921720982,0.04886921867728233,-0.024434609338641167
1765542740676062700,-2.555937255859375,-0.009773843921720982,0.05253441259264946,-0.02687807008624077
1765542740686042000,-2.5459580078125,-0.01710422709584236,0.04642575979232788,0.00366519158706069
1765542740696051700,-2.5359482421875,-0.013439035043120384,0.042760565876960754,0.02321287989616394
1765542740706031000,-2.525968994140625,-0.009773843921720982,0.042760565876960754,0.0024434609804302454
1765542740716010200,-2.51598974609375,-0.00733038317412138,0.036651913076639175,-0.013439035043120384
1765542740756019000,-2.47598095703125,-0.013439035043120384,0.010995574295520782,0.012217304669320583
1765542740766028500,-2.465971435546875,-0.009773843921720982,0.00366519158706069,0.010995574295520782
1765542740776038400,-2.455961669921875,-0.00366519158706069,0.0012217304902151227,-0.00366519158706069
1765542740786017500,-2.445982421875,0.00366519158706069,-0.004886921960860491,-0.0012217304902151227
1765542740795997000,-2.436003173828125,0.006108652334660292,-0.010995574295520782,0.00733038317412138
1765542740806006500,-2.425993408203125,0.009773843921720982,-0.009773843921720982,0.012217304669320583
1765542740816016400,-2.415983642578125,0.013439035043120384,-0.010995574295520782,0.012217304669320583
1765542740846015200,-2.38598486328125,0.025656340643763542,-0.009773843921720982,-0.006108652334660292
1765542740856024800,-2.37597509765625,0.02687807008624077,-0.00855211354792118,-0.00366519158706069
1765542740866034700,-2.36596533203125,0.028099801391363144,-0.004886921960860491,-0.00366519158706069
1765542740876044500,-2.35595556640625,0.02932153269648552,0,-0.004886921960860491
1765542740886054100,-2.34594580078125,0.02932153269648552,0.006108652334660292,-0.009773843921720982
1765542740896064000,-2.33593603515625,0.025656340643763542,0.01710422709584236,-0.006108652334660292
1765542740906073900,-2.325926025390625,0.024434609338641167,0.021991148591041565,0.0024434609804302454
1765542740916053000,-2.315947021484375,0.021991148591041565,0.025656340643763542,0.006108652334660292
1765542740926093300,-2.30590673828125,0.021991148591041565,0.03298672288656235,0.0012217304902151227
1765542740976111600,-2.255888427734375,0.02932153269648552,0.02321287989616394,-0.01466076634824276
1765542740986121500,-2.24587841796875,0.02687807008624077,0.019547687843441963,-0.006108652334660292
1765542740996131000,-2.235868896484375,0.02321287989616394,0.018325956538319588,-0.010995574295520782
1765542741006141000,-2.225859130859375,0.019547687843441963,0.013439035043120384,-0.019547687843441963
1765542741016150800,-2.21584912109375,0.01466076634824276,0.009773843921720982,-0.02076941914856434
1765542741026160400,-2.205839599609375,0.012217304669320583,0.00733038317412138,-0.019547687843441963
1765542741036170200,-2.195829833984375,0.012217304669320583,0.00733038317412138,-0.01710422709584236
1765542741066199600,-2.165800537109375,0.0012217304902151227,0.00855211354792118,-0.013439035043120384
1765542741076209200,-2.155790771484375,-0.0024434609804302454,0.006108652334660292,-0.0012217304902151227
1765542741086188500,-2.1458115234375,-0.0024434609804302454,0.0024434609804302454,0.009773843921720982
1765542741096198100,-2.1358017578125,-0.0024434609804302454,0.0012217304902151227,0.010995574295520782
1765542741106208000,-2.1257919921875,-0.00366519158706069,-0.0024434609804302454,0.0012217304902151227
1765542741116217900,-2.1157822265625,-0.00733038317412138,-0.00733038317412138,-0.00733038317412138
1765542741126197000,-2.105802978515625,-0.010995574295520782,-0.01466076634824276,-0.00733038317412138
1765542741136206800,-2.095793212890625,-0.01466076634824276,-0.01466076634824276,0.00366519158706069
1765542741146216700,-2.085783203125,-0.012217304669320583,-0.015882495790719986,0.015882495790719986
1765542741196296000,-2.0357041015625,-0.010995574295520782,-0.012217304669320583,0.025656340643763542
1765542741206336300,-2.025663818359375,-0.010995574295520782,-0.012217304669320583,0.025656340643763542
1765542741216345900,-2.015654052734375,-0.006108652334660292,-0.009773843921720982,0.01466076634824276
1765542741226325200,-2.0056748046875,-0.00366519158706069,-0.009773843921720982,0.004886921960860491
1765542741236304400,-1.995695556640625,-0.00366519158706069,-0.010995574295520782,0.004886921960860491
1765542741246344700,-1.9856552734375,-0.006108652334660292,-0.00855211354792118,0.0012217304902151227
1765542741256324000,-1.975676025390625,-0.013439035043120384,-0.00366519158706069,0.006108652334660292
1765542741276313000,-1.95568701171875,-0.018325956538319588,-0.0024434609804302454,0.01466076634824276
1765542741296302000,-1.935697998046875,-0.02321287989616394,0.00855211354792118,0.00855211354792118
1765542741306311700,-1.925688232421875,-0.021991148591041565,0.004886921960860491,0.01466076634824276
1765542741316321500,-1.915678466796875,-0.021991148591041565,0.00366519158706069,0.00855211354792118
1765542741336310500,-1.895689453125,-0.004886921960860491,-0.0012217304902151227,-0.00733038317412138
1765542741346320400,-1.8856796875,-0.0012217304902151227,0.0012217304902151227,0.006108652334660292
1765542741356299500,-1.875700439453125,0.00366519158706069,-0.0024434609804302454,0.030543262138962746
1765542741376319200,-1.8556806640625,0.006108652334660292,-0.01466076634824276,0.025656340643763542
1765542741386328800,-1.845671142578125,0.00855211354792118,-0.01466076634824276,0.012217304669320583
1765542741396338700,-1.835661376953125,0.00733038317412138,-0.018325956538319588,-0.0012217304902151227
1765542741406348500,-1.8256513671875,0.004886921960860491,-0.013439035043120384,-0.004886921960860491
1765542741416358100,-1.815641845703125,0.00366519158706069,-0.01466076634824276,0.0012217304902151227
1765542741426368000,-1.805632080078125,0.00733038317412138,-0.018325956538319588,0.0024434609804302454
1765542741436347100,-1.79565283203125,0.009773843921720982,-0.012217304669320583,-0.0012217304902151227
1765542741446357000,-1.78564306640625,0.010995574295520782,-0.009773843921720982,0.0024434609804302454
1765542741456366800,-1.775633056640625,0.018325956538319588,-0.012217304669320583,0.00366519158706069
1765542741466407000,-1.765593017578125,0.019547687843441963,-0.006108652334660292,0.0024434609804302454
1765542741516394800,-1.715605224609375,0.028099801391363144,-0.00366519158706069,-0.019547687843441963
1765542741526404600,-1.705595458984375,0.02321287989616394,0.0012217304902151227,-0.021991148591041565
1765542741536414500,-1.69558544921875,0.024434609338641167,0.00366519158706069,-0.006108652334660292
1765542741546424000,-1.685575927734375,0.02321287989616394,0.004886921960860491,0.0024434609804302454
1765542741556434000,-1.675566162109375,0.021991148591041565,0.012217304669320583,0
1765542741566443500,-1.665556396484375,0.02321287989616394,0.012217304669320583,0.006108652334660292
1765542741576392400,-1.655607666015625,0.024434609338641167,0.00366519158706069,0.010995574295520782
1765542741596381400,-1.63561865234375,0.02321287989616394,0.010995574295520782,0.01466076634824276
1765542741606421800,-1.625578125,0.025656340643763542,0.006108652334660292,0.024434609338641167
1765542741616431400,-1.615568603515625,0.024434609338641167,0.004886921960860491,0.01466076634824276
1765542741626441200,-1.605558837890625,0.02076941914856434,0.010995574295520782,0.00733038317412138
1765542741636420400,-1.59557958984375,0.015882495790719986,0.00855211354792118,0.018325956538319588
1765542741646430200,-1.58556982421875,0.01466076634824276,-0.004886921960860491,0.025656340643763542
1765542741656409300,-1.575590576171875,0.013439035043120384,-0.00855211354792118,0.018325956538319588
1765542741666388700,-1.565611328125,0.015882495790719986,-0.010995574295520782,0.006108652334660292
1765542741676398600,-1.555601318359375,0.01710422709584236,-0.013439035043120384,0.00366519158706069
1765542741726417000,-1.5055830078125,0.02076941914856434,-0.0012217304902151227,0.009773843921720982
1765542741736426500,-1.495573486328125,0.021991148591041565,0,0.010995574295520782
1765542741746436400,-1.485563720703125,0.02321287989616394,-0.0012217304902151227,0.0012217304902151227
1765542741756446000,-1.475553955078125,0.018325956538319588,0,-0.006108652334660292
1765542741766455800,-1.465544189453125,0.01466076634824276,-0.0024434609804302454,-0.0012217304902151227
1765542741776465700,-1.455534423828125,0.00855211354792118,0,0.00733038317412138
1765542741786444800,-1.44555517578125,0.00733038317412138,0,0.00855211354792118
1765542741796454700,-1.43554541015625,0.00366519158706069,-0.00366519158706069,-0.0012217304902151227
1765542741826453500,-1.40554638671875,-0.00366519158706069,0.0012217304902151227,0.0024434609804302454
1765542741836371700,-1.395628173828125,-0.0024434609804302454,0.0012217304902151227,0.009773843921720982
1765542741856421600,-1.375578369140625,0,-0.00366519158706069,0.0012217304902151227
1765542741866401000,-1.365598876953125,0,-0.006108652334660292,-0.00733038317412138
1765542741876349700,-1.355650390625,0.0012217304902151227,-0.006108652334660292,-0.010995574295520782
1765542741886359300,-1.345640625,0,-0.004886921960860491,-0.004886921960860491
1765542741916388600,-1.315611328125,-0.006108652334660292,0.004886921960860491,-0.013439035043120384
1765542741926368000,-1.305632080078125,-0.00733038317412138,0.00855211354792118,-0.018325956538319588
1765542741936377600,-1.295622314453125,-0.006108652334660292,0.010995574295520782,-0.01710422709584236
1765542741946357000,-1.28564306640625,-0.00733038317412138,0.018325956538319588,-0.006108652334660292
1765542741956336000,-1.275663818359375,-0.009773843921720982,0.021991148591041565,0.004886921960860491
1765542741966346000,-1.265654052734375,-0.009773843921720982,0.019547687843441963,0.010995574295520782
1765542741976355800,-1.25564404296875,-0.009773843921720982,0.015882495790719986,0.009773843921720982
1765542741986396000,-1.24560400390625,-0.00855211354792118,0.013439035043120384,0.015882495790719986
1765542741996375300,-1.235624755859375,-0.00366519158706069,0.00366519158706069,0.024434609338641167
1765542742006415600,-1.22558447265625,-0.0012217304902151227,-0.004886921960860491,0.03176499158143997
1765542742016394800,-1.215605224609375,0.006108652334660292,-0.009773843921720982,0.03176499158143997
1765542742026404600,-1.205595458984375,0.012217304669320583,-0.009773843921720982,0.021991148591041565
1765542742036414500,-1.19558544921875,0.010995574295520782,-0.009773843921720982,0.010995574295520782
1765542742046424000,-1.185575927734375,0.009773843921720982,-0.009773843921720982,0.015882495790719986
1765542742056403500,-1.175596435546875,0.006108652334660292,-0.00855211354792118,0.02076941914856434
1765542742066413000,-1.1655869140625,0.0012217304902151227,-0.013439035043120384,0.025656340643763542
1765542742076392400,-1.155607666015625,-0.00366519158706069,-0.018325956538319588,0.03420845419168472
1765542742086432800,-1.145567138671875,-0.0024434609804302454,-0.02321287989616394,0.0354301854968071
1765542742096442400,-1.1355576171875,-0.0024434609804302454,-0.025656340643763542,0.02687807008624077
1765542742116431400,-1.115568603515625,0.004886921960860491,-0.024434609338641167,0.013439035043120384
1765542742126410800,-1.10558935546875,0.009773843921720982,-0.025656340643763542,0
1765542742136420400,-1.09557958984375,0.01466076634824276,-0.02321287989616394,-0.006108652334660292
1765542742146460700,-1.085539306640625,0.01466076634824276,-0.013439035043120384,0.0012217304902151227
1765542742156470500,-1.075529541015625,0.01466076634824276,-0.004886921960860491,0.02321287989616394
1765542742166510800,-1.0654892578125,0.013439035043120384,-0.00366519158706069,0.039095375686883926
1765542742176520400,-1.0554794921875,0.012217304669320583,-0.0024434609804302454,0.039095375686883926
1765542742186530300,-1.0454697265625,0.009773843921720982,0,0.03298672288656235
1765542742196509400,-1.035490478515625,0.013439035043120384,-0.0024434609804302454,0.02076941914856434
1765542742236548600,-0.995451416015625,0.015882495790719986,-0.015882495790719986,0.019547687843441963
1765542742296576800,-0.93542333984375,0.013439035043120384,-0.012217304669320583,0.013439035043120384
1765542742307586600,-0.924413330078125,0.009773843921720982,-0.010995574295520782,0.028099801391363144
1765542742317596200,-0.91440380859375,0.009773843921720982,-0.010995574295520782,0.04153883829712868
1765542742347656000,-0.884343994140625,0.00733038317412138,-0.00855211354792118,0.00855211354792118
1765542742367706000,-0.8642939453125,0.009773843921720982,-0.009773843921720982,0.0024434609804302454
1765542742377777000,-0.85422314453125,0.012217304669320583,-0.012217304669320583,-0.0024434609804302454
1765542742387786800,-0.844213134765625,0.012217304669320583,-0.012217304669320583,-0.0024434609804302454
1765542742397796400,-0.83420361328125,0.02076941914856434,-0.0012217304902151227,0.004886921960860491
1765542742407806200,-0.82419384765625,0.02076941914856434,-0.0012217304902151227,0.004886921960860491
1765542742417785300,-0.814214599609375,0.02076941914856434,0.004886921960860491,0.018325956538319588
1765542742437805000,-0.79419482421875,0.01466076634824276,0.010995574295520782,0.03298672288656235
1765542742447814700,-0.784185302734375,0.010995574295520782,0.006108652334660292,0.02932153269648552
1765542742457794000,-0.7742060546875,0.012217304669320583,0,0.009773843921720982
1765542742467803600,-0.7641962890625,0.013439035043120384,-0.006108652334660292,-0.019547687843441963
1765542742477813500,-0.7541865234375,0.009773843921720982,0.00366519158706069,-0.01466076634824276
1765542742487823400,-0.7441767578125,0.009773843921720982,0.00366519158706069,-0.01466076634824276
1765542742497863700,-0.73413623046875,0.009773843921720982,0.00733038317412138,0.00733038317412138
1765542742507873300,-0.724126708984375,0.012217304669320583,0.012217304669320583,0.018325956538319588
1765542742517883100,-0.714116943359375,0.013439035043120384,0.01710422709584236,0.013439035043120384
1765542742527892700,-0.704107177734375,0.01710422709584236,0.01710422709584236,0.00855211354792118
1765542742557891600,-0.6741083984375,0.00733038317412138,0.013439035043120384,-0.00733038317412138
1765542742567901400,-0.6640986328125,0.0024434609804302454,0.00855211354792118,-0.015882495790719986
1765542742577850000,-0.65414990234375,-0.0024434609804302454,0.004886921960860491,-0.0354301854968071
1765542742587860000,-0.64414013671875,-0.006108652334660292,0.00733038317412138,-0.051312681287527084
1765542742597839000,-0.634160888671875,-0.00733038317412138,0.010995574295520782,-0.05253441259264946
1765542742607849000,-0.624151123046875,-0.00855211354792118,0.015882495790719986,-0.036651913076639175
1765542742617858600,-0.614141357421875,-0.00855211354792118,0.02076941914856434,-0.02321287989616394
1765542742627868400,-0.604131591796875,-0.00855211354792118,0.02321287989616394,-0.018325956538319588
1765542742667907600,-0.564092529296875,0.00366519158706069,0.02076941914856434,0.009773843921720982
1765542742677917200,-0.554082763671875,0.009773843921720982,0.013439035043120384,0
1765542742687927000,-0.544072998046875,0.01710422709584236,0.004886921960860491,-0.01710422709584236
1765542742697937000,-0.53406298828125,0.021991148591041565,-0.0024434609804302454,-0.036651913076639175
1765542742707946500,-0.524053466796875,0.025656340643763542,-0.00733038317412138,-0.042760565876960754
1765542742717956400,-0.514043701171875,0.025656340643763542,-0.010995574295520782,-0.042760565876960754
1765542742727966200,-0.50403369140625,0.024434609338641167,-0.013439035043120384,-0.04153883829712868
1765542742737975800,-0.494024169921875,0.024434609338641167,-0.01466076634824276,-0.039095375686883926
1765542742757995300,-0.474004638671875,0.04764748737215996,-0.018325956538319588,-0.05375614017248154
1765542742768005000,-0.463994873046875,0.06719517707824707,-0.02076941914856434,-0.059864792972803116
1765542742778015000,-0.453985107421875,0.09651670604944229,-0.028099801391363144,-0.0757472887635231
1765542742788024600,-0.443975341796875,0.12217304855585098,-0.0354301854968071,-0.09040805697441101
1765542742798034400,-0.433965576171875,0.15515977144241333,-0.0403171069920063,-0.10384709388017654
1765542742808074800,-0.42392529296875,0.17837265133857727,-0.03176499158143997,-0.12095131725072861
1765542742818115000,-0.413885009765625,0.20525072515010834,-0.015882495790719986,-0.1270599663257599
1765542742828124700,-0.403875244140625,0.22968533635139465,-0.00855211354792118,-0.11850785464048386
1765542742848144400,-0.383855712890625,0.2541199326515198,0.00733038317412138,-0.12950342893600464
1765542742868163800,-0.363836181640625,0.2687807083129883,0.00733038317412138,-0.11239920556545258
1765542742878173700,-0.353826416015625,0.2675589919090271,0,-0.10384709388017654
1765542742888183300,-0.343816650390625,0.26022860407829285,-0.00855211354792118,-0.1160643994808197
1765542742898132200,-0.33386767578125,0.26022860407829285,-0.013439035043120384,-0.1258382350206375
1765542742908141800,-0.323858154296875,0.26511552929878235,-0.0024434609804302454,-0.15027284622192383
1765542742918151700,-0.313848388671875,0.2590068578720093,0.010995574295520782,-0.16982053220272064
1765542742928192000,-0.30380810546875,0.24678955972194672,0.015882495790719986,-0.16004669666290283
1765542742938201600,-0.29379833984375,0.23579397797584534,0.012217304669320583,-0.14294247329235077
1765542742948181000,-0.283819091796875,0.23335053026676178,0.004886921960860491,-0.1514945775270462
1765542742988220000,-0.243780029296875,0.22846360504627228,0.025656340643763542,-0.23457226157188416
1765542743008270000,-0.22372998046875,0.22602014243602753,0.05375614017248154,-0.13561208546161652
1765542743018280000,-0.213719970703125,0.2223549485206604,0.06475171446800232,-0.11239920556545258
1765542743028289500,-0.20371044921875,0.19792033731937408,0.06352998316287994,-0.1270599663257599
1765542743038269000,-0.19373095703125,0.19303341209888458,0.07330382615327835,-0.1563815027475357
1765542743048278500,-0.183721435546875,0.18936823308467865,0.0659734457731247,-0.17959438264369965
1765542743058288400,-0.173711669921875,0.1918116807937622,0.045204028487205505,-0.16982053220272064
1765542743068328700,-0.16367138671875,0.1918116807937622,0.045204028487205505,-0.16982053220272064
1765542743078338300,-0.15366162109375,0.18814650177955627,0.015882495790719986,-0.15882496535778046
1765542743098358000,-0.13364208984375,0.19914206862449646,-0.03298672288656235,-0.15393804013729095
1765542743108398300,-0.1236015625,0.19914206862449646,-0.03298672288656235,-0.15393804013729095
1765542743118408000,-0.113592041015625,0.17837265133857727,-0.08429940044879913,-0.11850785464048386
1765542743128448300,-0.1035517578125,0.17837265133857727,-0.08429940044879913,-0.11850785464048386
1765542743138458000,-0.0935419921875,0.16859880089759827,-0.10262536257505417,-0.11239920556545258
1765542743148467700,-0.0835322265625,0.16004669666290283,-0.10751228034496307,-0.1270599663257599
1765542743158477600,-0.0735224609375,0.13927727937698364,-0.09896016865968704,-0.13316862285137177
1765542743168487400,-0.0635126953125,0.11850785464048386,-0.10018189996480942,-0.10262536257505417
1765542743178497000,-0.0535029296875,0.09040805697441101,-0.09407325088977814,-0.06352998316287994
1765542743208526300,-0.0234736328125,0.006108652334660292,-0.019547687843441963,-0.004886921960860491
1765542743218536200,-0.0134638671875,-0.02687807008624077,0.00733038317412138,0.02076941914856434
1765542743228546000,-0.003453857421875,-0.05497787147760391,0.03176499158143997,0.03420845419168472
1765542743238555600,0.0065556640625,-0.08796459436416626,0.05497787147760391,0.03420845419168472
1765542743248565500,0.0165654296875,-0.11362093687057495,0.07208210229873657,0.030543262138962746
1765542743258575000,0.0265751953125,-0.13805554807186127,0.07696902006864548,0.02076941914856434
1765542743268615400,0.036615478515625,-0.16004669666290283,0.09407325088977814,0.015882495790719986
1765542743278594800,0.0465947265625,-0.16982053220272064,0.10384709388017654,0.03298672288656235
1765542743308624100,0.0766240234375,-0.17959438264369965,0.06841690838336945,0.015882495790719986
1765542743318603300,0.086603271484375,-0.16982053220272064,0.0757472887635231,-0.006108652334660292
1765542743328613000,0.096613037109375,-0.16249015927314758,0.06475171446800232,0.009773843921720982
1765542743338592300,0.10659228515625,-0.14782938361167908,0.02932153269648552,0.03176499158143997
1765542743348571600,0.116571533203125,-0.12095131725072861,0.004886921960860491,0.02321287989616394
1765542743358612000,0.126612060546875,-0.09162978827953339,-0.00366519158706069,-0.010995574295520782
1765542743368621600,0.13662158203125,-0.07208210229873657,-0.010995574295520782,-0.0354301854968071
1765542743378631400,0.14663134765625,-0.051312681287527084,-0.01466076634824276,-0.03420845419168472
1765542743388641000,0.15664111328125,-0.03787364438176155,-0.00366519158706069,-0.030543262138962746
1765542743438690000,0.20668994140625,-0.019547687843441963,0.05375614017248154,0.00366519158706069
1765542743448730400,0.21673046875,-0.013439035043120384,0.06352998316287994,-0.018325956538319588
1765542743468719400,0.23671923828125,0.006108652334660292,0.07208210229873657,-0.021991148591041565
1765542743478759400,0.246759521484375,0.021991148591041565,0.07330382615327835,-0.024434609338641167
1765542743488769300,0.256769287109375,0.04398229718208313,0.06108652427792549,-0.03298672288656235
1765542743498718000,0.266718017578125,0.06230825558304787,0.051312681287527084,-0.05253441259264946
1765542743528778000,0.296778076171875,0.1160643994808197,0.019547687843441963,-0.04153883829712868
1765542743538757000,0.306757080078125,0.13561208546161652,0.006108652334660292,-0.03420845419168472
1765542743548767000,0.31676708984375,0.15271630883216858,-0.004886921960860491,-0.04642575979232788
1765542743558807000,0.32680712890625,0.16371189057826996,-0.010995574295520782,-0.04886921867728233
1765542743568786400,0.336786376953125,0.16737708449363708,-0.012217304669320583,-0.039095375686883926
1765542743578765600,0.346765625,0.1661553531885147,-0.010995574295520782,-0.030543262138962746
1765542743588806000,0.356805908203125,0.15760323405265808,-0.0024434609804302454,-0.015882495790719986
1765542743598815700,0.366815673828125,0.13927727937698364,-0.00366519158706069,0.004886921960860491
1765542743628814600,0.396814697265625,0.11239920556545258,0.0024434609804302454,-0.009773843921720982
1765542743638824200,0.40682421875,0.10018189996480942,0.0012217304902151227,0.012217304669320583
1765542743648803600,0.416803466796875,0.08918632566928864,0.00366519158706069,0.03176499158143997
1765542743658813200,0.426813232421875,0.07941248267889023,0.013439035043120384,0.03176499158143997
1765542743668823000,0.436822998046875,0.07208210229873657,0.02076941914856434,0.02687807008624077
1765542743678833000,0.4468330078125,0.06108652427792549,0.019547687843441963,0.01466076634824276
1765542743688842500,0.456842529296875,0.051312681287527084,0.01466076634824276,0.00366519158706069
1765542743698852400,0.466852294921875,0.045204028487205505,0.015882495790719986,0
1765542743708862200,0.4768623046875,0.042760565876960754,0.006108652334660292,0.015882495790719986
1765542743738830300,0.506830322265625,0.01466076634824276,-0.028099801391363144,0.006108652334660292
1765542743748870700,0.51687060546875,0.01466076634824276,-0.036651913076639175,0.009773843921720982
1765542743758880500,0.526880615234375,0.004886921960860491,-0.042760565876960754,0.00733038317412138
1765542743768890000,0.53689013671875,0.004886921960860491,-0.042760565876960754,0.00733038317412138
1765542743778900000,0.54689990234375,0,-0.04642575979232788,0.00855211354792118
1765542743788909800,0.556909912109375,-0.004886921960860491,-0.05253441259264946,0.009773843921720982
1765542743808959700,0.576959716796875,-0.01466076634824276,-0.06719517707824707,0.00366519158706069
1765542743818969600,0.586969482421875,-0.01710422709584236,-0.06230825558304787,-0.004886921960860491
1765542743848937700,0.616937744140625,-0.021991148591041565,-0.045204028487205505,0.0024434609804302454
1765542743858917000,0.626917236328125,-0.021991148591041565,-0.042760565876960754,0.00733038317412138
1765542743878936600,0.6469365234375,-0.0403171069920063,-0.0354301854968071,0.02321287989616394
1765542743888977000,0.656976806640625,-0.05009094998240471,-0.03298672288656235,0.0354301854968071
1765542743898986500,0.666986572265625,-0.05619960278272629,-0.03420845419168472,0.051312681287527084
1765542743909026800,0.67702685546875,-0.05253441259264946,-0.025656340643763542,0.04886921867728233
1765542743919036700,0.68703662109375,-0.04886921867728233,-0.00855211354792118,0.042760565876960754
1765542743949096400,0.717096435546875,-0.03787364438176155,0.018325956538319588,0.04642575979232788
1765542743959106300,0.727106201171875,-0.02932153269648552,0.02687807008624077,0.01710422709584236
1765542743969085400,0.73708544921875,-0.03176499158143997,0.0354301854968071,-0.00366519158706069
1765542743979095300,0.74709521484375,-0.039095375686883926,0.042760565876960754,0.006108652334660292
1765542743989105000,0.75710498046875,-0.04153883829712868,0.042760565876960754,0.0354301854968071
1765542743999114800,0.76711474609375,-0.0403171069920063,0.042760565876960754,0.0354301854968071
1765542744009124600,0.77712451171875,-0.036651913076639175,0.051312681287527084,0.009773843921720982
1765542744029113600,0.797113525390625,-0.03420845419168472,0.059864792972803116,0.03176499158143997
1765542744049133000,0.817133056640625,-0.030543262138962746,0.05009094998240471,0.0806342139840126
1765542744069061000,0.83706103515625,-0.018325956538319588,0.036651913076639175,0.06475171446800232
1765542744079101400,0.847101318359375,-0.009773843921720982,0.025656340643763542,0.03420845419168472
1765542744089141500,0.8571416015625,-0.009773843921720982,0.01466076634824276,0.012217304669320583
1765542744099151400,0.8671513671875,-0.00855211354792118,0.013439035043120384,0.00733038317412138
1765542744109161200,0.8771611328125,-0.00855211354792118,0.009773843921720982,0.019547687843441963
1765542744119170800,0.8871708984375,-0.006108652334660292,-0.0024434609804302454,0.03298672288656235
1765542744129180700,0.8971806640625,-0.004886921960860491,-0.004886921960860491,0.02932153269648552
1765542744159179500,0.927179443359375,0.012217304669320583,0.012217304669320583,0.025656340643763542
1765542744179199000,0.947198974609375,0.030543262138962746,0.02687807008624077,0.009773843921720982
1765542744189208800,0.957208740234375,0.0354301854968071,0.02932153269648552,0
1765542744199218400,0.967218505859375,0.0403171069920063,0.025656340643763542,-0.0024434609804302454
1765542744209228300,0.977228271484375,0.042760565876960754,0.030543262138962746,0.0024434609804302454
1765542744219238100,0.987238037109375,0.045204028487205505,0.03176499158143997,0.00733038317412138
1765542744229278500,0.997278564453125,0.04398229718208313,0.03298672288656235,0.00733038317412138
1765542744239257600,1.007257568359375,0.04642575979232788,0.0354301854968071,-0.0024434609804302454
1765542744269317400,1.0373173828125,0.05253441259264946,0.039095375686883926,0.010995574295520782
1765542744289336800,1.0573369140625,0.05864306539297104,0.03298672288656235,-0.00366519158706069
1765542744299346700,1.0673466796875,0.06475171446800232,0.02321287989616394,-0.019547687843441963
1765542744309356500,1.0773564453125,0.0659734457731247,0.02076941914856434,-0.030543262138962746
1765542744319396900,1.08739697265625,0.0708603709936142,0.02076941914856434,-0.02321287989616394
1765542744329437000,1.09743701171875,0.06963863968849182,0.018325956538319588,-0.0012217304902151227
1765542744339446800,1.10744677734375,0.06475171446800232,0.015882495790719986,0.00855211354792118
1765542744349456600,1.11745654296875,0.06230825558304787,0.01466076634824276,0.006108652334660292
1765542744389526300,1.1575263671875,0.04642575979232788,0.04398229718208313,-0.01466076634824276
1765542744399535900,1.167535888671875,0.03420845419168472,0.039095375686883926,0.00733038317412138
1765542744409545700,1.177545654296875,0.02321287989616394,0.039095375686883926,0.018325956538319588
1765542744419586000,1.1875859375,0.02076941914856434,0.04153883829712868,0.028099801391363144
1765542744429595600,1.197595703125,0.019547687843441963,0.0354301854968071,0.03787364438176155
1765542744439605500,1.20760546875,0.018325956538319588,0.03176499158143997,0.0354301854968071
1765542744449615400,1.217615478515625,0.019547687843441963,0.02076941914856434,0.025656340643763542
1765542744459625000,1.227625,0.019547687843441963,0.02076941914856434,0.025656340643763542
1765542744479614000,1.247614013671875,0.012217304669320583,-0.009773843921720982,0.02932153269648552
1765542744489623800,1.257623779296875,0.01710422709584236,-0.018325956538319588,0.01466076634824276
1765542744499633700,1.267633544921875,0.01710422709584236,-0.01710422709584236,-0.006108652334660292
1765542744509612800,1.27761279296875,0.02076941914856434,-0.02687807008624077,0.00855211354792118
1765542744519653000,1.287653076171875,0.02687807008624077,-0.03420845419168472,0.0354301854968071
1765542744529663000,1.2976630859375,0.0354301854968071,-0.03176499158143997,0.028099801391363144
1765542744539672600,1.307672607421875,0.04153883829712868,-0.030543262138962746,0.015882495790719986
1765542744549682400,1.317682373046875,0.05253441259264946,-0.0354301854968071,0.019547687843441963
1765542744559692300,1.3276923828125,0.03420845419168472,-0.03787364438176155,-0.00733038317412138
1765542744589721300,1.357721435546875,0.02321287989616394,-0.045204028487205505,0.03176499158143997
1765542744599731200,1.367731201171875,0.015882495790719986,-0.039095375686883926,0.00733038317412138
1765542744609741000,1.377740966796875,0.0024434609804302454,-0.03298672288656235,-0.02932153269648552
1765542744619750700,1.387750732421875,-0.012217304669320583,-0.02687807008624077,-0.036651913076639175
1765542744629760500,1.397760498046875,-0.024434609338641167,-0.025656340643763542,-0.013439035043120384
1765542744639770400,1.407770263671875,-0.025656340643763542,-0.02932153269648552,0.009773843921720982
1765542744649749500,1.41774951171875,-0.012217304669320583,-0.03420845419168472,0.00366519158706069
1765542744659729000,1.42772900390625,-0.0012217304902151227,-0.028099801391363144,-0.015882495790719986
1765542744669769000,1.43776904296875,0.00855211354792118,-0.028099801391363144,-0.015882495790719986
1765542744699767800,1.467767822265625,0.02076941914856434,-0.019547687843441963,-0.006108652334660292
1765542744709777700,1.477777587890625,0.015882495790719986,-0.010995574295520782,-0.00855211354792118
1765542744719756800,1.4877568359375,0.00855211354792118,-0.00855211354792118,0.00366519158706069
1765542744729797000,1.497797119140625,0.0024434609804302454,-0.004886921960860491,0.010995574295520782
1765542744749816600,1.517816650390625,-0.01466076634824276,0.00855211354792118,0.006108652334660292
1765542744759796000,1.5277958984375,-0.025656340643763542,-0.0012217304902151227,0.00366519158706069
1765542744769805600,1.5378056640625,-0.02932153269648552,-0.0024434609804302454,-0.013439035043120384
1765542744779785000,1.547784912109375,-0.02687807008624077,0,-0.0354301854968071
1765542744819854600,1.5878544921875,-0.03420845419168472,-0.010995574295520782,0.009773843921720982
1765542744829864200,1.5978642578125,-0.0354301854968071,-0.004886921960860491,0.02321287989616394
1765542744839874000,1.6078740234375,-0.028099801391363144,-0.004886921960860491,0.018325956538319588
1765542744849884000,1.6178837890625,-0.03176499158143997,-0.00366519158706069,-0.009773843921720982
1765542744859893500,1.6278935546875,-0.019547687843441963,-0.00366519158706069,0.018325956538319588
1765542744869903400,1.6379033203125,-0.019547687843441963,-0.010995574295520782,0.00855211354792118
1765542744879913200,1.647913330078125,-0.028099801391363144,-0.019547687843441963,-0.012217304669320583
1765542744909973000,1.677972900390625,-0.019547687843441963,-0.02076941914856434,0.019547687843441963
1765542744919982600,1.687982666015625,-0.02076941914856434,-0.00855211354792118,0.02687807008624077
1765542744940032800,1.70803271484375,-0.01710422709584236,0.00733038317412138,0.028099801391363144
1765542744950042600,1.718042724609375,-0.02321287989616394,0.013439035043120384,0.024434609338641167
1765542744960052200,1.72805224609375,-0.02076941914856434,0.01466076634824276,0.02321287989616394
1765542744970092500,1.738092529296875,-0.019547687843441963,0.01466076634824276,0.015882495790719986
1765542744980102400,1.748102294921875,-0.021991148591041565,0.012217304669320583,0.009773843921720982
1765542744990112000,1.758112060546875,-0.025656340643763542,0.0024434609804302454,0.009773843921720982
1765542745020141300,1.788141357421875,-0.02687807008624077,-0.012217304669320583,-0.018325956538319588
1765542745030181600,1.798181640625,-0.024434609338641167,-0.010995574295520782,-0.021991148591041565
1765542745040161000,1.8081611328125,-0.019547687843441963,-0.004886921960860491,-0.019547687843441963
1765542745050201000,1.818201171875,-0.01710422709584236,0.004886921960860491,-0.012217304669320583
1765542745060241400,1.828241455078125,-0.01466076634824276,0.009773843921720982,-0.00366519158706069
1765542745070281700,1.83828173828125,-0.01466076634824276,0.009773843921720982,-0.00733038317412138
1765542745080291600,1.84829150390625,-0.015882495790719986,0.013439035043120384,-0.01710422709584236
1765542745090301200,1.85830126953125,-0.015882495790719986,0.01710422709584236,-0.015882495790719986
1765542745100280600,1.868280517578125,-0.01710422709584236,0.015882495790719986,-0.00366519158706069
1765542745130310000,1.898309814453125,-0.02076941914856434,0.030543262138962746,-0.012217304669320583
1765542745140319500,1.908319580078125,-0.02321287989616394,0.03787364438176155,-0.009773843921720982
1765542745150329300,1.918329345703125,-0.02321287989616394,0.03787364438176155,-0.009773843921720982
1765542745160308700,1.928308837890625,-0.021991148591041565,0.042760565876960754,-0.006108652334660292
1765542745170318300,1.938318359375,-0.019547687843441963,0.03787364438176155,-0.0024434609804302454
1765542745180328200,1.948328125,-0.009773843921720982,0.02076941914856434,0.00855211354792118
1765542745190368500,1.958368408203125,-0.009773843921720982,0.02076941914856434,0.00855211354792118
1765542745200378000,1.968378173828125,0,-0.0012217304902151227,0.00733038317412138
1765542745240417300,2.008417236328125,0.01710422709584236,-0.004886921960860491,0.00855211354792118
1765542745250427100,2.01842724609375,0.025656340643763542,-0.006108652334660292,0.006108652334660292
1765542745260436700,2.028436767578125,0.028099801391363144,-0.006108652334660292,0.010995574295520782
1765542745270416100,2.038416015625,0.02321287989616394,-0.009773843921720982,0.02321287989616394
1765542745280425700,2.04842578125,0.01710422709584236,-0.01710422709584236,0.030543262138962746
1765542745290435600,2.058435546875,0.013439035043120384,-0.015882495790719986,0.012217304669320583
1765542745300414700,2.068414794921875,0.0024434609804302454,-0.00855211354792118,-0.00855211354792118
1765542745330413600,2.09841357421875,-0.006108652334660292,-0.012217304669320583,0.00855211354792118
1765542745350433000,2.11843310546875,-0.00366519158706069,-0.015882495790719986,-0.01710422709584236
1765542745360412400,2.128412353515625,-0.0024434609804302454,-0.00855211354792118,-0.018325956538319588
1765542745370452700,2.13845263671875,-0.0012217304902151227,-0.006108652334660292,0.004886921960860491
1765542745380493000,2.1484931640625,0,-0.00733038317412138,0.02321287989616394
1765542745390502700,2.158502685546875,-0.0012217304902151227,-0.004886921960860491,0.02687807008624077
1765542745400512500,2.168512451171875,0.00366519158706069,-0.00733038317412138,0.028099801391363144
1765542745410522400,2.1785224609375,0.00366519158706069,-0.00855211354792118,0.012217304669320583
1765542745440490500,2.208490478515625,-0.02076941914856434,-0.0024434609804302454,0.0012217304902151227
1765542745460510000,2.228510009765625,-0.03420845419168472,-0.006108652334660292,-0.00733038317412138
1765542745470519800,2.238519775390625,-0.039095375686883926,-0.00366519158706069,0.0012217304902151227
1765542745480499000,2.2484990234375,-0.04153883829712868,0,0.010995574295520782
1765542745490508800,2.2585087890625,-0.04153883829712868,0.004886921960860491,0.01710422709584236
1765542745500549000,2.268549072265625,-0.04398229718208313,0.013439035043120384,0.01710422709584236
1765542745510559000,2.27855908203125,-0.042760565876960754,0.013439035043120384,0.01710422709584236
1765542745520568600,2.288568603515625,-0.045204028487205505,0.012217304669320583,0.00733038317412138
1765542745530609000,2.29860888671875,-0.051312681287527084,0.01710422709584236,0.004886921960860491
1765542745570678500,2.338678466796875,-0.036651913076639175,-0.006108652334660292,0.010995574295520782
1765542745580657700,2.34865771484375,-0.030543262138962746,-0.00855211354792118,-0.01466076634824276
1765542745590698000,2.358697998046875,-0.03176499158143997,-0.006108652334660292,-0.024434609338641167
1765542745600707800,2.368707763671875,-0.030543262138962746,-0.00366519158706069,-0.004886921960860491
1765542745610717400,2.378717529296875,-0.030543262138962746,-0.004886921960860491,0.010995574295520782
1765542745620696800,2.38869677734375,-0.028099801391363144,0,0.01466076634824276
1765542745630706700,2.398706787109375,-0.02076941914856434,0.004886921960860491,0.006108652334660292
1765542745660705300,2.428705322265625,-0.018325956538319588,0.01710422709584236,0.01710422709584236
1765542745670684700,2.4386845703125,-0.01710422709584236,0.01710422709584236,0.018325956538319588
1765542745680725000,2.44872509765625,-0.013439035043120384,0.02076941914856434,0.021991148591041565
1765542745690765000,2.45876513671875,-0.00366519158706069,0.039095375686883926,0.030543262138962746
1765542745700775000,2.46877490234375,0.00855211354792118,0.03787364438176155,-0.00855211354792118
1765542745710815200,2.478815185546875,0,0.02321287989616394,-0.02687807008624077
1765542745720825000,2.4888251953125,0.009773843921720982,0.004886921960860491,-0.010995574295520782
1765542745730834700,2.498834716796875,0.01466076634824276,-0.00733038317412138,-0.00366519158706069
1765542745760833500,2.52883349609375,0.018325956538319588,0.00366519158706069,-0.010995574295520782
1765542745770843400,2.538843505859375,0.01466076634824276,0.019547687843441963,0.015882495790719986
1765542745780822500,2.548822509765625,0.010995574295520782,0.03298672288656235,0.03298672288656235
1765542745790801700,2.5588017578125,0.010995574295520782,0.0403171069920063,0.02687807008624077
1765542745800811500,2.5688115234375,0.009773843921720982,0.04764748737215996,0.006108652334660292
1765542745810821400,2.5788212890625,0.004886921960860491,0.05009094998240471,-0.004886921960860491
1765542745820831000,2.5888310546875,0,0.04642575979232788,0.0012217304902151227
1765542745830840800,2.5988408203125,0,0.04642575979232788,0.0012217304902151227
1765542745840820200,2.6088203125,-0.009773843921720982,0.024434609338641167,0.00855211354792118
1765542745860839700,2.628839599609375,-0.012217304669320583,0.012217304669320583,0.004886921960860491
1765542745890869000,2.658868896484375,-0.010995574295520782,-0.025656340643763542,-0.02321287989616394
1765542745900909300,2.668909423828125,-0.01466076634824276,-0.030543262138962746,-0.010995574295520782
1765542745910919000,2.6789189453125,-0.013439035043120384,-0.02932153269648552,-0.00366519158706069
1765542745920928800,2.6889287109375,-0.010995574295520782,-0.03420845419168472,-0.006108652334660292
1765542745930969000,2.698968994140625,-0.012217304669320583,-0.03787364438176155,-0.015882495790719986
1765542745940978700,2.708978759765625,-0.012217304669320583,-0.03420845419168472,-0.03298672288656235
1765542745950988500,2.718988525390625,-0.01710422709584236,-0.030543262138962746,-0.03420845419168472
1765542745960967700,2.7289677734375,-0.028099801391363144,-0.03176499158143997,-0.013439035043120384
1765542745990997000,2.7589970703125,-0.03420845419168472,-0.015882495790719986,-0.018325956538319588
1765542746001006800,2.7690068359375,-0.030543262138962746,-0.013439035043120384,-0.01466076634824276
1765542746021057000,2.78905712890625,-0.02321287989616394,-0.012217304669320583,0.0024434609804302454
1765542746031066600,2.799066650390625,-0.013439035043120384,-0.01710422709584236,0.013439035043120384
1765542746041046000,2.8090458984375,-0.0024434609804302454,-0.019547687843441963,0
1765542746051086300,2.81908642578125,0.0012217304902151227,-0.01466076634824276,-0.00855211354792118
1765542746071105800,2.839105712890625,0,-0.013439035043120384,0.015882495790719986
1765542746081115400,2.849115478515625,-0.0012217304902151227,-0.00733038317412138,0.004886921960860491
1765542746091125200,2.859125244140625,-0.00733038317412138,-0.010995574295520782,0.0024434609804302454
1765542746101135000,2.869135009765625,-0.009773843921720982,-0.01466076634824276,-0.0024434609804302454
1765542746121154600,2.889154541015625,-0.0024434609804302454,-0.00855211354792118,-0.01466076634824276
1765542746131164400,2.899164306640625,0.0012217304902151227,-0.0024434609804302454,-0.0024434609804302454
1765542746141174000,2.909174072265625,0.004886921960860491,0.0024434609804302454,0.010995574295520782
1765542746151184000,2.919183837890625,0.010995574295520782,0.00366519158706069,0.02076941914856434
1765542746161193700,2.92919384765625,0.018325956538319588,0.00855211354792118,0.015882495790719986
1765542746181182700,2.9491826171875,0.02076941914856434,0.013439035043120384,-0.013439035043120384
1765542746191192300,2.9591923828125,0.018325956538319588,0.019547687843441963,-0.0012217304902151227
1765542746201202200,2.9692021484375,0.01710422709584236,0.013439035043120384,0.015882495790719986
1765542746211212000,2.9792119140625,0.01466076634824276,0.009773843921720982,0.02321287989616394
1765542746221252400,2.98925244140625,0.015882495790719986,0.013439035043120384,0.013439035043120384
1765542746231262000,2.999261962890625,0.01710422709584236,0.015882495790719986,-0.004886921960860491
1765542746241241300,3.009241455078125,0.009773843921720982,0.021991148591041565,-0.009773843921720982
1765542746251281400,3.019281494140625,0.004886921960860491,0.025656340643763542,0.00366519158706069
1765542746271270700,3.039270751953125,0.004886921960860491,0.019547687843441963,0.01466076634824276
1765542746291290000,3.0592900390625,0.006108652334660292,0.013439035043120384,-0.015882495790719986
1765542746301299700,3.0692998046875,0.00855211354792118,0.012217304669320583,-0.009773843921720982
1765542746311309600,3.0793095703125,0.01466076634824276,0.015882495790719986,0.0012217304902151227
1765542746321350000,3.089349853515625,0.01466076634824276,0.01710422709584236,-0.0012217304902151227
1765542746331390200,3.09939013671875,0.012217304669320583,0.018325956538319588,-0.00366519158706069
1765542746341399800,3.10939990234375,0.00733038317412138,0.012217304669320583,0.00366519158706069
1765542746351409700,3.11940966796875,0.00733038317412138,0.009773843921720982,0.006108652334660292
1765542746361450000,3.129449951171875,0.004886921960860491,0.010995574295520782,-0.013439035043120384
1765542746371429000,3.13942919921875,0.0012217304902151227,0.012217304669320583,-0.030543262138962746
1765542746381439000,3.14943896484375,-0.0012217304902151227,0.00855211354792118,-0.03176499158143997
1765542746401458400,3.16945849609375,-0.0012217304902151227,0.00366519158706069,-0.024434609338641167
1765542746421478100,3.18947802734375,0.00855211354792118,-0.00855211354792118,-0.030543262138962746
1765542746441497600,3.20949755859375,0.02687807008624077,-0.009773843921720982,-0.024434609338641167
1765542746451476700,3.219476806640625,0.021991148591041565,-0.015882495790719986,-0.021991148591041565
1765542746461517000,3.22951708984375,0.02687807008624077,-0.019547687843441963,-0.012217304669320583
1765542746471527000,3.23952685546875,0.0354301854968071,-0.02076941914856434,-0.01710422709584236
1765542746481536800,3.249536865234375,0.045204028487205505,-0.02076941914856434,-0.03298672288656235
1765542746511535400,3.279535400390625,0.036651913076639175,-0.06475171446800232,-0.03420845419168472
1765542746521545200,3.289545166015625,0.02932153269648552,-0.0659734457731247,-0.018325956538319588
1765542746531555000,3.29955517578125,0.02932153269648552,-0.0659734457731247,-0.018325956538319588
1765542746541564700,3.309564697265625,0.025656340643763542,-0.06963863968849182,-0.00733038317412138
1765542746551605000,3.31960498046875,0.018325956538319588,-0.0659734457731247,-0.021991148591041565
1765542746561614800,3.32961474609375,0.019547687843441963,-0.06963863968849182,-0.02687807008624077
1765542746571594000,3.339593994140625,0.02076941914856434,-0.0708603709936142,-0.02932153269648552
1765542746581603800,3.349603759765625,0.015882495790719986,-0.0659734457731247,-0.025656340643763542
1765542746601562400,3.369562255859375,0.01466076634824276,-0.06475171446800232,-0.025656340643763542
1765542746621551400,3.38955126953125,0.01710422709584236,-0.04642575979232788,-0.03787364438176155
1765542746631561000,3.39956103515625,0.013439035043120384,-0.04398229718208313,-0.03420845419168472
1765542746641570800,3.40957080078125,0.013439035043120384,-0.042760565876960754,-0.025656340643763542
1765542746651611100,3.419611083984375,0.013439035043120384,-0.042760565876960754,-0.025656340643763542
1765542746661621000,3.42962109375,0.00733038317412138,-0.03787364438176155,-0.03176499158143997
1765542746671600000,3.43960009765625,0.00733038317412138,-0.03298672288656235,-0.030543262138962746
1765542746681610000,3.44960986328125,0.00366519158706069,-0.025656340643763542,-0.025656340643763542
1765542746691619600,3.45961962890625,0.013439035043120384,-0.024434609338641167,-0.04398229718208313
1765542746701629400,3.46962939453125,0.015882495790719986,-0.018325956538319588,-0.05742133408784866
1765542746711608600,3.479608642578125,0.019547687843441963,-0.02076941914856434,-0.01466076634824276
1765542746721618400,3.489618408203125,0.02076941914856434,-0.024434609338641167,0.015882495790719986
1765542746731628300,3.499628173828125,0.01466076634824276,-0.02932153269648552,0.006108652334660292
1765542746741638000,3.509637939453125,0.015882495790719986,-0.025656340643763542,0.0024434609804302454
1765542746751647700,3.519647705078125,0.018325956538319588,-0.024434609338641167,0.006108652334660292
1765542746761657600,3.52965771484375,0.01466076634824276,-0.02321287989616394,0.0012217304902151227
1765542746771667200,3.539667236328125,0.010995574295520782,-0.012217304669320583,-0.0012217304902151227
1765542746781677000,3.549677001953125,0.00366519158706069,-0.0012217304902151227,0.006108652334660292
1765542746791687000,3.55968701171875,-0.00366519158706069,0.00366519158706069,0.02076941914856434
1765542746821746700,3.58974658203125,0.00366519158706069,0.019547687843441963,0
1765542746831756300,3.59975634765625,0.00855211354792118,0.015882495790719986,-0.0024434609804302454
1765542746841735700,3.609735595703125,0.01466076634824276,0.015882495790719986,0
1765542746851776000,3.61977587890625,0.02076941914856434,0.021991148591041565,0
1765542746861755100,3.629755126953125,0.02932153269648552,0.025656340643763542,-0.00366519158706069
1765542746871765000,3.639764892578125,0.03298672288656235,0.028099801391363144,-0.01710422709584236
1765542746881774600,3.649774658203125,0.03420845419168472,0.036651913076639175,-0.018325956538319588
1765542746891784400,3.659784423828125,0.036651913076639175,0.04153883829712868,0
1765542746911804000,3.679803955078125,0.0354301854968071,0.03420845419168472,-0.00733038317412138
1765542746931854000,3.69985400390625,0.0403171069920063,0.04886921867728233,-0.006108652334660292
1765542746951843000,3.719843017578125,0.045204028487205505,0.05009094998240471,0.013439035043120384
1765542746961822200,3.729822265625,0.051312681287527084,0.04886921867728233,-0.0024434609804302454
1765542746971862500,3.739862548828125,0.05253441259264946,0.039095375686883926,-0.03176499158143997
1765542746981842000,3.749842041015625,0.05009094998240471,0.02687807008624077,-0.04764748737215996
1765542746991851500,3.7598515625,0.05253441259264946,0.00366519158706069,-0.06108652427792549
1765542747001831000,3.769830810546875,0.059864792972803116,-0.025656340643763542,-0.07452555745840073
1765542747011840500,3.779840576171875,0.07696902006864548,-0.05864306539297104,-0.10873401165008545
1765542747051818800,3.81981884765625,0.1612684279680252,-0.1722639948129654,-0.33475416898727417
1765542747061828400,3.829828369140625,0.19058994948863983,-0.2174680233001709,-0.3689626157283783
1765542747071807700,3.839807861328125,0.22846360504627228,-0.27000242471694946,-0.4495968222618103
1765542747081847800,3.849847900390625,0.2577851414680481,-0.33475416898727417,-0.5876523852348328
1765542747091857700,3.859857666015625,0.29565876722335815,-0.3933972120285034,-0.7269296646118164
1765542747101867500,3.869867431640625,0.35552358627319336,-0.455705463886261,-0.8539896011352539
1765542747131957800,3.899957763671875,0.46670106053352356,-0.598647952079773,-1.3280210494995117
1765542747141937200,3.909937255859375,0.4996877610683441,-0.6279694437980652,-1.5173892974853516
1765542747151946800,3.91994677734375,0.5461135506629944,-0.6670648455619812,-1.673770785331726
1765542747161956600,3.92995654296875,0.5717698931694031,-0.7134906053543091,-1.7996090650558472
1765542747171966500,3.939966552734375,0.618195652961731,-0.7635815739631653,-1.8362609148025513
1765542747181976000,3.94997607421875,0.6475171446800232,-0.8100073337554932,-1.8411478996276855
1765542747191986000,3.95998583984375,0.6707300543785095,-0.8442157506942749,-1.8851301670074463
1765542747201995500,3.96999560546875,0.6927211880683899,-0.8698720932006836,-1.9449949264526367
1765542747212005400,3.98000537109375,0.6927211880683899,-0.8698720932006836,-1.9449949264526367
1765542747231994400,3.999994384765625,0.7122688889503479,-0.8881980776786804,-2.174680233001709
1765542747242004200,4.010004150390625,0.7061602473258972,-0.9040805697441101,-2.29440975189209
1765542747252013800,4.020013916015625,0.6805039048194885,-0.8991936445236206,-2.342057466506958
1765542747262023700,4.030023681640625,0.675616979598999,-0.8637634515762329,-2.196671485900879
1765542747272003000,4.040003173828125,0.675616979598999,-0.8943067193031311,-1.872912883758545
1765542747282043100,4.050043212890625,0.5754350423812866,-0.8918632864952087,-1.2131783962249756
1765542747292083500,4.06008349609375,0.5754350423812866,-0.8918632864952087,-1.2131783962249756
1765542747302123800,4.070123779296875,0.5619960427284241,-0.8454375267028809,-1.1142182350158691
1765542747312164000,4.0801640625,0.5729916095733643,-0.7929030656814575,-1.1313223838806152
1765542747342224000,4.110223876953125,0.5998696684837341,-0.6951646208763123,-1.644449234008789
1765542747352203300,4.120203369140625,0.6157521605491638,-0.6609562039375305,-1.6407840251922607
1765542747372253200,4.140253173828125,0.5791002511978149,-0.6059783101081848,-0.9431759119033813
1765542747382232600,4.150232666015625,0.5607742667198181,-0.5949827432632446,-0.45692721009254456
1765542747392242200,4.1602421875,0.5632177591323853,-0.5742133259773254,-0.10384709388017654
1765542747402252000,4.170251953125,0.5656611919403076,-0.5717698931694031,-0.01710422709584236
1765542747412261600,4.18026171875,0.5705481171607971,-0.5644394755363464,-0.2223549485206604
1765542747442291000,4.210291015625,0.6035348773002625,-0.6695083379745483,-1.5418238639831543
1765542747452300800,4.22030078125,0.6548475623130798,-0.7733554244041443,-1.9718730449676514
1765542747462341000,4.230341064453125,0.7147123217582703,-0.8747590184211731,-2.383596181869507
1765542747472320300,4.2403203125,0.7550294399261475,-0.9663888216018677,-2.7488934993743896
1765542747482360600,4.250360595703125,0.7819074988365173,-1.0494664907455444,-2.995683193206787
1765542747492340000,4.260340087890625,0.7916813492774963,-1.1178834438323975,-3.089756488800049
1765542747502349600,4.270349609375,0.8051204085350037,-1.176526427268982,-3.089756488800049
1765542747512359400,4.280359375,0.856433093547821,-1.254717230796814,-3.1593949794769287
1765542747522369300,4.290369384765625,0.8808676600456238,-1.340238332748413,-3.4012975692749023
1765542747542358300,4.310358154296875,0.8405506014823914,-1.4892895221710205,-4.533842086791992
1765542747552367900,4.320367919921875,0.8307767510414124,-1.5259413719177246,-5.076290130615234
1765542747562347300,4.33034716796875,0.8100073337554932,-1.567480206489563,-5.378057479858398
1765542747572356900,4.34035693359375,0.7770205736160278,-1.5992451906204224,-5.3890533447265625
1765542747582397200,4.350397216796875,0.7379252314567566,-1.5796974897384644,-5.149593830108643
1765542747592407000,4.360406982421875,0.6707300543785095,-1.55892813205719,-4.797735691070557
1765542747602417000,4.3704169921875,0.5913175344467163,-1.5442672967910767,-4.459316253662109
1765542747612426500,4.380426513671875,0.4948008358478546,-1.5344934463500977,-4.23207426071167
1765542747622466800,4.390466796875,0.4043927788734436,-1.5418238639831543,-4.1832051277160645
1765542747652496100,4.42049609375,0.3543018400669098,-1.350012183189392,-3.966958999633789
1765542747662506000,4.430506103515625,0.3579670190811157,-1.264491081237793,-3.717725992202759
1765542747672515600,4.440515625,0.35552358627319336,-1.1924089193344116,-3.4550538063049316
1765542747682525400,4.450525390625,0.2981022298336029,-1.1374311447143555,-3.260798692703247
1765542747692504600,4.460504638671875,0.2590068578720093,-1.0604621171951294,-2.9749138355255127
1765542747702514400,4.470514404296875,0.2431243658065796,-0.96883225440979,-2.6670377254486084
1765542747722503400,4.49050341796875,0.1869247704744339,-0.7574729323387146,-2.3738224506378174
1765542747752532700,4.52053271484375,0.10873401165008545,-0.4703662395477295,-2.03540301322937
1765542747782531600,4.550531494140625,-0.04642575979232788,-0.22113321721553802,-1.0286970138549805
1765542747792510700,4.5605107421875,-0.07941248267889023,-0.1514945775270462,-0.7929030656814575
1765542747812530200,4.5805302734375,-0.14782938361167908,-0.09285151958465576,-0.29565876722335815
1765542747822509600,4.590509521484375,-0.16371189057826996,-0.08552113175392151,-0.07696902006864548
1765542747862579200,4.6305791015625,-0.21991148591041565,-0.07941248267889023,0.39095374941825867
1765542747872588800,4.6405888671875,-0.22968533635139465,-0.06230825558304787,0.4031710624694824
1765542747882598700,4.6505986328125,-0.2431243658065796,-0.0354301854968071,0.4190535545349121
1765542747892608500,4.6606083984375,-0.2431243658065796,-0.0354301854968071,0.4190535545349121
1765542747902587600,4.670587646484375,-0.26145032048225403,0.02687807008624077,0.4544837474822998
1765542747912597500,4.680597412109375,-0.26145032048225403,0.02687807008624077,0.4544837474822998
1765542747922607000,4.690607177734375,-0.20891591906547546,0.08307767659425735,0.37751471996307373
1765542747932647400,4.7006474609375,-0.20891591906547546,0.08307767659425735,0.37751471996307373
1765542747962707200,4.730707275390625,-0.18325957655906677,0.15760323405265808,0.06841690838336945
1765542747972717000,4.740717041015625,-0.19914206862449646,0.18448130786418915,0.09529497474431992
1765542747982727000,4.750726806640625,-0.2028072625398636,0.18814650177955627,0.2174680233001709
1765542747992736500,4.760736572265625,-0.20402899384498596,0.19914206862449646,0.3090978264808655
1765542748002746400,4.770746337890625,-0.21013765037059784,0.20525072515010834,0.31642818450927734
1765542748012725500,4.7807255859375,-0.21380282938480377,0.18814650177955627,0.2724458873271942
1765542748022735400,4.7907353515625,-0.21868975460529327,0.14538592100143433,0.2174680233001709
1765542748032745200,4.8007451171875,-0.19425514340400696,0.09651670604944229,0.16982053220272064
1765542748042724400,4.810724365234375,-0.1918116807937622,0.04886921867728233,0.06719517707824707
1765542748112823300,4.8808232421875,-0.14049901068210602,-0.08429940044879913,-0.28466320037841797
1765542748122833200,4.890833251953125,-0.11850785464048386,-0.10751228034496307,-0.31154128909111023
1765542748132842800,4.9008427734375,-0.09529497474431992,-0.11972958594560623,-0.3494149148464203
1765542748142822100,4.910822265625,-0.06963863968849182,-0.1258382350206375,-0.4056145250797272
1765542748152862200,4.9208623046875,-0.04153883829712868,-0.13805554807186127,-0.48380526900291443
1765542748172882000,4.9408818359375,0.0354301854968071,-0.14905111491680145,-0.6108652353286743
1765542748182891500,4.9508916015625,0.06719517707824707,-0.15393804013729095,-0.6340781450271606
1765542748192901400,4.9609013671875,0.11484266817569733,-0.1466076523065567,-0.6316346526145935
1765542748202911200,4.9709111328125,0.1722639948129654,-0.1368338167667389,-0.6243042945861816
1765542748212951600,4.98095166015625,0.21991148591041565,-0.11728613078594208,-0.6719517707824707
1765542748222991600,4.99099169921875,0.26633724570274353,-0.07330382615327835,-0.7623597979545593
1765542748233001500,5.00100146484375,0.31520646810531616,-0.045204028487205505,-0.8478809595108032
1765542748243011300,5.01101123046875,0.3543018400669098,-0.02076941914856434,-0.8491026759147644
1765542748253051600,5.0210517578125,0.3628539443016052,0.00733038317412138,-0.7293730974197388
1765542748283081000,5.0510810546875,0.3982841372489929,0.08552113175392151,-0.3591887652873993
1765542748293060000,5.06106005859375,0.4080579876899719,0.1270599663257599,-0.36651915311813354
1765542748303039200,5.071039306640625,0.4178318381309509,0.18448130786418915,-0.3323107063770294
1765542748313049000,5.081049072265625,0.43127086758613586,0.23945917189121246,-0.2687807083129883
1765542760216576800,16.98457666015625,0.1111774742603302,-0.030543262138962746,-0.4899139404296875
1765542760236296400,17.00429638671875,0.2687807083129883,-0.04398229718208313,0.3738495409488678
1765542760246106000,17.014106201171874,-0.06841690838336945,-0.09040805697441101,-0.31642818450927734
1765542760275974400,17.043974365234376,0.03176499158143997,-0.009773843921720982,0.02076941914856434
1765542760295993900,17.063993896484376,0.030543262138962746,-0.036651913076639175,-0.021991148591041565
1765542760306034200,17.0740341796875,0.030543262138962746,-0.036651913076639175,-0.021991148591041565
1765542760316044000,17.0840439453125,0.04153883829712868,-0.04153883829712868,-0.02321287989616394
1765542760396000000,17.164,0.059864792972803116,0.006108652334660292,-0.05375614017248154
1765542760406009900,17.174009765625,0.042760565876960754,0.030543262138962746,-0.02076941914856434
1765542760416019500,17.18401953125,0.051312681287527084,0.0403171069920063,0.021991148591041565
1765542760446048800,17.214048828125,0.045204028487205505,0.05375614017248154,-0.05375614017248154
1765542760475925500,17.243925537109376,0.03176499158143997,0.036651913076639175,-0.08429940044879913
1765542760485935400,17.253935302734376,0.0354301854968071,0.04153883829712868,-0.05619960278272629
1765542760495914500,17.26391455078125,0.05009094998240471,0.039095375686883926,-0.021991148591041565
1765542760505954800,17.273954833984376,0.05742133408784866,0.045204028487205505,-0.009773843921720982
1765542760515903500,17.283903564453126,0.04886921867728233,0.04886921867728233,-0.009773843921720982
1765542760525913300,17.293913330078126,0.04764748737215996,0.04398229718208313,-0.015882495790719986
1765542760545932800,17.313932861328126,0.07941248267889023,0.010995574295520782,-0.09529497474431992
1765542760555942700,17.323942626953126,0.09651670604944229,-0.0012217304902151227,-0.13561208546161652
1765542760565952500,17.333952392578126,0.10995574295520782,-0.024434609338641167,-0.15027284622192383
1765542760575962000,17.343962158203126,0.12095131725072861,-0.05619960278272629,-0.16371189057826996
1765542760596012300,17.36401220703125,0.1661553531885147,-0.10751228034496307,-0.25045475363731384
1765542760605991400,17.373991455078126,0.19425514340400696,-0.1270599663257599,-0.27977627515792847
1765542760616001300,17.384001220703126,0.2015855312347412,-0.12828169763088226,-0.2541199326515198
1765542760625980400,17.39398046875,0.21135938167572021,-0.1062905490398407,-0.1722639948129654
1765542760655888000,17.423887939453124,0.1722639948129654,-0.04153883829712868,-0.1111774742603302
1765542760665928000,17.433927978515626,0.1771509200334549,-0.025656340643763542,-0.15882496535778046
1765542760675937800,17.443937744140626,0.18081611394882202,-0.01466076634824276,-0.20891591906547546
1765542760685947600,17.45394775390625,0.14905111491680145,0.004886921960860491,-0.22968533635139465
1765542760695896300,17.463896240234376,0.12217304855585098,0.02932153269648552,-0.18448130786418915
1765542760705906200,17.47390625,0.09529497474431992,0.051312681287527084,-0.09896016865968704
1765542760715915800,17.483915771484376,0.07330382615327835,0.07330382615327835,-0.0403171069920063
1765542760725895200,17.493895263671874,0.05742133408784866,0.09162978827953339,-0.03420845419168472
1765542760765903600,17.533903564453126,-0.0024434609804302454,0.10384709388017654,-0.04398229718208313
1765542760775913500,17.54391357421875,-0.012217304669320583,0.09896016865968704,-0.006108652334660292
1765542760785953500,17.55395361328125,-0.018325956538319588,0.08674286305904388,0.042760565876960754
1765542760795933000,17.563932861328126,-0.01710422709584236,0.06963863968849182,0.05619960278272629
1765542760805942800,17.57394287109375,-0.02321287989616394,0.059864792972803116,0.02687807008624077
1765542760815952400,17.583952392578126,-0.021991148591041565,0.04764748737215996,0.028099801391363144
1765542760825962200,17.593962158203126,-0.018325956538319588,0.0354301854968071,0.059864792972803116
1765542760835972000,17.60397216796875,-0.028099801391363144,0.02321287989616394,0.0659734457731247
1765542760905979400,17.6739794921875,-0.07330382615327835,0.024434609338641167,0.012217304669320583
1765542760915989000,17.683989013671876,-0.08307767659425735,0.02687807008624077,-0.00366519158706069
1765542760925998800,17.693998779296876,-0.08918632566928864,0.03298672288656235,-0.010995574295520782
1765542760935978000,17.70397802734375,-0.07819075137376785,0.03420845419168472,-0.009773843921720982
1765542760946018300,17.714018310546876,-0.07696902006864548,0.0403171069920063,0.006108652334660292
1765542760966007300,17.73400732421875,-0.07452555745840073,0.05497787147760391,0.07330382615327835
1765542760985996300,17.753996337890626,-0.06963863968849182,0.05253441259264946,0.0403171069920063
1765542760995945200,17.7639453125,-0.06719517707824707,0.04886921867728233,0.01466076634824276
1765542761005985300,17.7739853515625,-0.0659734457731247,0.042760565876960754,0.012217304669320583
1765542761015995100,17.7839951171875,-0.06963863968849182,0.042760565876960754,0.02687807008624077
1765542761025974500,17.793974609375,-0.07452555745840073,0.045204028487205505,0.036651913076639175
1765542761035953700,17.80395361328125,-0.06963863968849182,0.042760565876960754,0.04398229718208313
1765542761045963500,17.813963623046874,-0.06841690838336945,0.0354301854968071,0.04642575979232788
1765542761075962000,17.843962158203126,-0.05742133408784866,0.02687807008624077,0.06230825558304787
1765542761085941500,17.85394140625,-0.06230825558304787,0.02932153269648552,0.05619960278272629
1765542761095951000,17.863951171875,-0.05375614017248154,0.02687807008624077,0.06352998316287994
1765542761105961000,17.8739609375,-0.045204028487205505,0.024434609338641167,0.05497787147760391
1765542761115940400,17.8839404296875,-0.04153883829712868,0.028099801391363144,0.039095375686883926
1765542761125919500,17.89391943359375,-0.03787364438176155,0.02321287989616394,0.03298672288656235
1765542761135898600,17.903898681640626,-0.025656340643763542,0.012217304669320583,0.024434609338641167
1765542761145908500,17.913908447265626,-0.01466076634824276,0.010995574295520782,0.015882495790719986
1765542761155826700,17.92382666015625,-0.013439035043120384,0.01710422709584236,0.0403171069920063
1765542761185795000,17.953795166015624,-0.010995574295520782,0.02321287989616394,0.06108652427792549
1765542761195774200,17.963774169921876,-0.00855211354792118,0.02687807008624077,0.018325956538319588
1765542761205753300,17.97375341796875,-0.0024434609804302454,0.03176499158143997,-0.00366519158706069
1765542761215763200,17.98376318359375,-0.0012217304902151227,0.039095375686883926,-0.0024434609804302454
1765542761225742600,17.99374267578125,0,0.04153883829712868,-0.00366519158706069
1765542761235721700,18.0037216796875,0.0024434609804302454,0.0403171069920063,-0.00733038317412138
1765542761245731600,18.013731689453124,0,0.03787364438176155,0
1765542761255710700,18.023710693359376,-0.0012217304902151227,0.0354301854968071,0.01710422709584236
1765542761265690000,18.033690185546874,-0.004886921960860491,0.02687807008624077,0.025656340643763542
1765542761305729000,18.07372900390625,0.006108652334660292,0.02076941914856434,-0.036651913076639175
1765542761315739000,18.08373876953125,0.009773843921720982,0.02076941914856434,-0.021991148591041565
1765542761325748500,18.09374853515625,0.012217304669320583,0.015882495790719986,-0.021991148591041565
1765542761335758300,18.10375830078125,0.012217304669320583,0.010995574295520782,-0.02687807008624077
1765542761345737500,18.113737548828126,0.010995574295520782,0.013439035043120384,-0.009773843921720982
1765542761355747300,18.123747314453126,0.01466076634824276,0.013439035043120384,0.00733038317412138
1765542761365757200,18.133757080078126,0.013439035043120384,0.013439035043120384,0.0012217304902151227
1765542761385746200,18.15374609375,0.00366519158706069,0.009773843921720982,-0.015882495790719986
1765542761395725300,18.163725341796876,0.012217304669320583,0.006108652334660292,-0.036651913076639175
1765542761405765600,18.173765625,0.013439035043120384,0.0012217304902151227,-0.05864306539297104
1765542761415714300,18.18371435546875,0.0012217304902151227,0.00366519158706069,-0.03787364438176155
1765542761425724200,18.19372412109375,-0.0024434609804302454,-0.006108652334660292,0.009773843921720982
1765542761435703300,18.203703369140626,0.00366519158706069,-0.021991148591041565,0.01710422709584236
1765542761445682700,18.2136826171875,0.00733038317412138,-0.03420845419168472,-0.0354301854968071
1765542761455692500,18.223692626953124,0.01710422709584236,-0.036651913076639175,-0.08674286305904388
1765542761465702100,18.2337021484375,0.02932153269648552,-0.0403171069920063,-0.09896016865968704
1765542761475650800,18.24365087890625,0.03787364438176155,-0.04642575979232788,-0.09040805697441101
1765542761505710800,18.2737109375,0.051312681287527084,-0.06108652427792549,-0.12461651116609573
1765542761515659500,18.283659423828126,0.06719517707824707,-0.0757472887635231,-0.15760323405265808
1765542761525699800,18.293699951171874,0.08552113175392151,-0.09162978827953339,-0.18936823308467865
1765542761535709400,18.30370947265625,0.09407325088977814,-0.1111774742603302,-0.21991148591041565
1765542761555729200,18.323729248046874,0.13439035415649414,-0.17592918872833252,-0.32986724376678467
1765542761565708300,18.333708251953126,0.16859880089759827,-0.21502456068992615,-0.4447098970413208
1765542761575718100,18.34371826171875,0.20525072515010834,-0.25534167885780334,-0.5729916095733643
1765542761585727700,18.353727783203126,0.2480112910270691,-0.3139847218990326,-0.7024950385093689
1765542761605747500,18.37374755859375,0.36163222789764404,-0.4789183437824249,-1.0042624473571777
1765542761615726600,18.3837265625,0.42760565876960754,-0.5571091175079346,-1.147204875946045
1765542761625706000,18.3937060546875,0.4948008358478546,-0.6377432942390442,-1.284038782119751
1765542761635685000,18.40368505859375,0.5595525503158569,-0.7232644557952881,-1.4184291362762451
1765542761655674000,18.423674072265626,0.7159340381622314,-0.9053022861480713,-1.7201964855194092
1765542761665684000,18.43368408203125,0.7941248416900635,-1.0005972385406494,-1.947438359260559
1765542761675663000,18.4436630859375,0.856433093547821,-1.0824532508850098,-2.205223560333252
1765542761685673000,18.4536728515625,0.9089674949645996,-1.1508700847625732,-2.4825563430786133
1765542761715641000,18.48364111328125,1.0250319242477417,-1.3341296911239624,-3.356093645095825
1765542761725681400,18.493681396484376,1.0702359676361084,-1.4123204946517944,-3.6053266525268555
1765542761735660800,18.503660888671874,1.1484266519546509,-1.508837103843689,-3.8533380031585693
1765542761745670400,18.51367041015625,1.1899654865264893,-1.595579981803894,-4.148996829986572
1765542761755649800,18.52364990234375,1.1618657112121582,-1.607797384262085,-4.338365077972412
1765542761765629000,18.53362890625,1.1154398918151855,-1.587027907371521,-4.3004913330078125
1765542761775638800,18.543638671875,1.0836749076843262,-1.5833626985549927,-4.13067102432251
1765542761785679000,18.55367919921875,1.0409144163131714,-1.5796974897384644,-3.9681806564331055
1765542761795658200,18.563658203125,1.0018190145492554,-1.566258430480957,-3.8741073608398438
1765542761815677700,18.583677734375,0.9908234477043152,-1.5601497888565063,-3.952298164367676
1765542761825718000,18.593718017578126,0.9724974632263184,-1.5540411472320557,-4.1465535163879395
1765542761835697400,18.603697509765624,0.9627236127853394,-1.5418238639831543,-4.365242958068848
1765542761845707000,18.61370703125,0.9737191796302795,-1.5369369983673096,-4.5155158042907715
1765542761855716900,18.623716796875,0.9297369122505188,-1.508837103843689,-4.590041637420654
1765542761865696000,18.633696044921876,0.8527678847312927,-1.4599679708480835,-4.530176639556885
1765542761875705900,18.643705810546876,0.7489207983016968,-1.379333734512329,-4.274835109710693
1765542761885715700,18.6537158203125,0.6585127115249634,-1.321912407875061,-3.8789942264556885
1765542761895694800,18.66369482421875,0.618195652961731,-1.2962560653686523,-3.456275463104248
1765542761905735200,18.673735107421876,0.6047565937042236,-1.2791517972946167,-3.1874947547912598
1765542761935734000,18.703734130859374,0.5925393104553223,-1.1545352935791016,-3.306002616882324
1765542761945743600,18.71374365234375,0.5754350423812866,-1.0751228332519531,-3.4012975692749023
1765542761955753500,18.72375341796875,0.5302310585975647,-0.9896016716957092,-3.3707544803619385
1765542761965793800,18.733793701171876,0.48258355259895325,-0.9370672702789307,-3.1557297706604004
1765542761975803400,18.743803466796876,0.45326200127601624,-0.9004153609275818,-2.789210796356201
1765542761985782800,18.75378271484375,0.4202753007411957,-0.8662069439888,-2.403143882751465
1765542761995762000,18.763761962890626,0.37140607833862305,-0.8319984674453735,-2.120924234390259
1765542762005741300,18.7737412109375,0.3274237811565399,-0.7941248416900635,-1.95965576171875
1765542762035770600,18.8037705078125,0.251676470041275,-0.7122688889503479,-1.7690657377243042
1765542762045780200,18.8137802734375,0.26145032048225403,-0.6976081132888794,-1.8106045722961426
1765542762065800000,18.833800048828124,0.27000242471694946,-0.6719517707824707,-1.7592918872833252
1765542762075809500,18.8438095703125,0.2565633952617645,-0.6524040699005127,-1.6493362188339233
1765542762085819400,18.8538193359375,0.2223549485206604,-0.6340781450271606,-1.5564846992492676
1765542762095798500,18.863798583984376,0.17959438264369965,-0.616973876953125,-1.4892895221710205
1765542762105778000,18.87377783203125,0.15760323405265808,-0.6035348773002625,-1.4098769426345825
1765542762115787500,18.88378759765625,0.14782938361167908,-0.5925393104553223,-1.321912407875061
1765542762145878000,18.9138779296875,0.07452555745840073,-0.5375614166259766,-1.1227703094482422
1765542762195896300,18.963896240234376,0.06841690838336945,-0.5070181488990784,-1.0018190145492554
1765542762225925600,18.993925537109376,0.08552113175392151,-0.42638394236564636,-0.8381071090698242
1765542762235904800,19.00390478515625,0.09651670604944229,-0.37629300355911255,-0.7660250067710876
1765542762245914600,19.01391455078125,0.09407325088977814,-0.3286454975605011,-0.7342600226402283
1765542762255924500,19.023924560546874,0.11484266817569733,-0.2919935882091522,-0.7305948138237
1765542762265934000,19.03393408203125,0.13927727937698364,-0.23945917189121246,-0.7367035150527954
1765542762275913500,19.04391357421875,0.13316862285137177,-0.1869247704744339,-0.7452555894851685
1765542762285923000,19.053923095703126,0.13805554807186127,-0.1258382350206375,-0.6914994716644287
1765542762295933000,19.063932861328126,0.1319468915462494,-0.06108652427792549,-0.5925393104553223
1765542762305942800,19.07394287109375,0.11850785464048386,0.00855211354792118,-0.44226643443107605
1765542762315922000,19.083921875,0.10873401165008545,0.09162978827953339,-0.19058994948863983
1765542762325931800,19.093931884765624,0.10506882518529892,0.1869247704744339,0.1466076523065567
1765542762335941400,19.10394140625,0.08674286305904388,0.2675589919090271,0.5229006409645081
1765542762365940200,19.133940185546876,0.036651913076639175,0.37262779474258423,1.0286970138549805
1765542762415897600,19.183897705078124,-0.00366519158706069,0.45692721009254456,1.0971139669418335
1765542762435917000,19.2039169921875,-0.051312681287527084,0.4948008358478546,1.4037683010101318
1765542762445957400,19.213957275390626,-0.06963863968849182,0.50335294008255,1.5149458646774292
1765542762475956200,19.243956298828124,-0.0659734457731247,0.40072759985923767,1.3145819902420044
1765542762505954800,19.273954833984376,-0.09162978827953339,0.251676470041275,0.3799581825733185
1765542762525974500,19.293974609375,-0.06108652427792549,0.1918116807937622,0.22113321721553802
1765542762535984000,19.303984130859376,-0.05864306539297104,0.16249015927314758,0.25045475363731384
1765542762556003600,19.324003662109376,-0.06963863968849182,0.1368338167667389,0.22602014243602753
1765542762575962000,19.343962158203126,-0.045204028487205505,0.13561208546161652,0.1160643994808197
1765542762586002400,19.35400244140625,-0.02321287989616394,0.15393804013729095,0.1270599663257599
1765542762615970800,19.383970703125,-0.004886921960860491,0.12339477986097336,0.21991148591041565
1765542762625950000,19.393949951171876,-0.009773843921720982,0.10384709388017654,0.1563815027475357
1765542762635929300,19.403929443359374,-0.00733038317412138,0.09162978827953339,0.08429940044879913
1765542762645969400,19.413969482421876,-0.00733038317412138,0.09040805697441101,0.024434609338641167
1765542762665989000,19.433989013671876,-0.006108652334660292,0.09651670604944229,-0.0012217304902151227
1765542762685978000,19.45397802734375,-0.01466076634824276,0.09285151958465576,0.012217304669320583
1765542762695988000,19.463988037109374,-0.01466076634824276,0.09285151958465576,-0.00733038317412138
1765542762705997600,19.47399755859375,-0.00855211354792118,0.08796459436416626,-0.021991148591041565
1765542762716007400,19.48400732421875,-0.010995574295520782,0.08552113175392151,-0.05375614017248154
1765542762726017000,19.49401708984375,-0.021991148591041565,0.08552113175392151,-0.08674286305904388
1765542762736027000,19.50402685546875,-0.019547687843441963,0.08918632566928864,-0.09040805697441101
1765542762816074500,19.584074462890626,-0.05619960278272629,0.1417207419872284,0.0012217304902151227
1765542762916080600,19.68408056640625,-0.01710422709584236,0.17470745742321014,0.12339477986097336
1765542762936100000,19.70410009765625,-0.02687807008624077,0.16493362188339233,0.0659734457731247
1765542762976108800,19.74410888671875,-0.030543262138962746,0.17470745742321014,0.1820378452539444
1765542763006107400,19.774107421875,-0.01710422709584236,0.13927727937698364,0.1319468915462494
1765543008374605300,265.1426052246094,0.26022860407829285,-0.04153883829712868,0.09285151958465576
1765543008394325000,265.16232495117185,0.27488934993743896,-0.03787364438176155,0.37751471996307373
1765543008414144500,265.18214453125,-0.06108652427792549,-0.05375614017248154,-0.26022860407829285
1765543008434164000,265.2021640625,0.02321287989616394,0.00366519158706069,-0.028099801391363144
1765543008444173800,265.212173828125,0.021991148591041565,0.010995574295520782,-0.030543262138962746
1765543008454153000,265.2221530761719,0.019547687843441963,0.01710422709584236,-0.01466076634824276
1765543008464193300,265.232193359375,0.019547687843441963,0.02076941914856434,-0.0024434609804302454
1765543008474142000,265.24214184570315,0.021991148591041565,0.030543262138962746,-0.019547687843441963
1765543008484121300,265.2521213378906,0.028099801391363144,0.042760565876960754,-0.042760565876960754
1765543008554067500,265.3220673828125,0.05619960278272629,0.02932153269648552,0.01466076634824276
1765543008584066300,265.35206640625,0.05375614017248154,0.019547687843441963,-0.006108652334660292
1765543008604055300,265.37205517578127,0.0354301854968071,0.039095375686883926,-0.02687807008624077
1765543008704092000,265.472091796875,0.13439035415649414,0.024434609338641167,0.039095375686883926
1765543008734152000,265.50215185546875,0.21135938167572021,-0.013439035043120384,-0.01466076634824276
1765543008744161500,265.51216162109375,0.17959438264369965,0,-0.0403171069920063
1765543008754171400,265.52217138671875,0.1466076523065567,0.019547687843441963,-0.08796459436416626
1765543008764150500,265.5321506347656,0.09285151958465576,0.03176499158143997,-0.13316862285137177
1765543008774130000,265.5421298828125,0.009773843921720982,0.05375614017248154,-0.1869247704744339
1765543008784170200,265.5521701660156,-0.06108652427792549,0.05864306539297104,-0.20402899384498596
1765543008794149400,265.5621494140625,-0.10384709388017654,0.04153883829712868,-0.17959438264369965
1765543008834127400,265.60212744140625,-0.04886921867728233,-0.009773843921720982,-0.07696902006864548
1765543008844137200,265.61213720703125,-0.036651913076639175,-0.025656340643763542,-0.042760565876960754
1765543008854116400,265.6221164550781,-0.028099801391363144,-0.030543262138962746,-0.04886921867728233
1765543008864156700,265.63215673828125,-0.02687807008624077,-0.039095375686883926,-0.051312681287527084
1765543008884176100,265.65217602539065,-0.025656340643763542,-0.039095375686883926,-0.04153883829712868
1765543008894125000,265.662125,-0.019547687843441963,-0.03420845419168472,-0.039095375686883926
1765543008904134700,265.672134765625,-0.02076941914856434,-0.024434609338641167,-0.0403171069920063
1765543008914144500,265.68214453125,-0.03298672288656235,-0.01466076634824276,-0.04764748737215996
1765543008964132400,265.73213232421875,0.010995574295520782,0.0024434609804302454,-0.00855211354792118
1765543009044180000,265.8121799316406,-0.00855211354792118,0,-0.0403171069920063
1765543009084219000,265.8522189941406,-0.004886921960860491,0.02932153269648552,-0.019547687843441963
1765543009094198300,265.8621982421875,-0.018325956538319588,0.02687807008624077,0
1765543009104238600,265.8722385253906,-0.021991148591041565,0.021991148591041565,0.021991148591041565
1765543009114217700,265.8822177734375,-0.021991148591041565,0.01710422709584236,0.03787364438176155
1765543009124227600,265.8922275390625,-0.01710422709584236,0.013439035043120384,0.036651913076639175
1765543009134237200,265.9022373046875,-0.009773843921720982,0.012217304669320583,0.00855211354792118
1765543009144216600,265.9122165527344,-0.00855211354792118,0.009773843921720982,-0.013439035043120384
1765543009154226200,265.92222607421877,-0.00733038317412138,0.009773843921720982,-0.024434609338641167
1765543009174215200,265.94221508789065,-0.004886921960860491,0.0012217304902151227,-0.03176499158143997
1765543009184255500,265.95225537109377,-0.00855211354792118,0,-0.03176499158143997
1765543009194265300,265.9622653808594,-0.010995574295520782,-0.0024434609804302454,-0.03176499158143997
1765543009204244500,265.97224438476565,-0.018325956538319588,0,-0.028099801391363144
1765543009214224000,265.9822238769531,-0.021991148591041565,0,-0.025656340643763542
1765543009224203000,265.992203125,-0.021991148591041565,-0.0012217304902151227,-0.030543262138962746
1765543009234243300,266.0022434082031,-0.015882495790719986,0,-0.0403171069920063
1765543009244222700,266.01222265625,-0.010995574295520782,-0.0012217304902151227,-0.0403171069920063
1765543009254171400,266.02217138671875,-0.00855211354792118,-0.006108652334660292,-0.025656340643763542
1765543009274190800,266.04219091796875,0,-0.00855211354792118,-0.030543262138962746
1765543009284200700,266.05220068359375,-0.004886921960860491,-0.010995574295520782,-0.024434609338641167
1765543009294179800,266.0621799316406,-0.0012217304902151227,-0.006108652334660292,-0.03176499158143997
1765543009304159200,266.0721591796875,0.00733038317412138,0.0012217304902151227,-0.045204028487205505
1765543009314138400,266.0821384277344,0.00855211354792118,0.00366519158706069,-0.05497787147760391
1765543009324178700,266.0921787109375,0.00855211354792118,0.010995574295520782,-0.07452555745840073
1765543009334157800,266.10215771484377,0.009773843921720982,0.021991148591041565,-0.10262536257505417
1765543009344167700,266.1121677246094,0.0024434609804302454,0.03176499158143997,-0.13316862285137177
1765543009354146800,266.12214672851565,-0.004886921960860491,0.036651913076639175,-0.16371189057826996
1765543009364156700,266.13215673828125,-0.00855211354792118,0.03787364438176155,-0.19425514340400696
1765543009394155500,266.1621555175781,-0.03176499158143997,0.045204028487205505,-0.394618958234787
1765543009404165000,266.1721650390625,-0.04764748737215996,0.06475171446800232,-0.5363397002220154
1765543009414144500,266.18214453125,-0.05009094998240471,0.09040805697441101,-0.7489207983016968
1765543009424123600,266.19212353515627,-0.019547687843441963,0.09162978827953339,-1.0152580738067627
1765543009434133500,266.2021335449219,0.07696902006864548,0.02076941914856434,-1.320690631866455
1765543009444112600,266.21211254882815,0.10384709388017654,0.0708603709936142,-1.606575608253479
1765543009464102000,266.2321018066406,-0.2871066629886627,0.004886921960860491,-1.976759910583496
1765543009474111500,266.2421115722656,-0.394618958234787,0.042760565876960754,-1.986533761024475
1765543009484121300,266.2521213378906,-0.29565876722335815,0.0708603709936142,-1.7336355447769165
1765543009494100500,266.2621005859375,-0.13805554807186127,0.10262536257505417,-1.4025466442108154
1765543009504140800,266.2721408691406,0.4789183437824249,0.12950342893600464,-1.2486085891723633
1765543009514120200,266.2821201171875,0.8845328688621521,-0.00366519158706069,-1.1313223838806152
1765543009524099300,266.2920993652344,0.846659243106842,-0.10384709388017654,-1.1582005023956299
1765543009534078500,266.30207836914065,0.8943067193031311,-0.07452555745840073,-1.3524556159973145
1765543009544088300,266.31208837890625,0.9737191796302795,-0.01466076634824276,-1.6493362188339233
1765543009554037000,266.322037109375,1.0812314748764038,0.02076941914856434,-1.9730947017669678
1765543009564077300,266.3320773925781,1.207069754600525,0.04398229718208313,-2.246762275695801
1765543009574056700,266.342056640625,1.33168625831604,0.06230825558304787,-2.3848178386688232
1765543009594076200,266.362076171875,1.653001308441162,0.02932153269648552,-2.630385637283325
1765543009604055300,266.37205517578127,1.813048005104065,-0.00366519158706069,-2.917492389678955
1765543009614004200,266.3820041503906,1.813048005104065,-0.00366519158706069,-2.917492389678955
1765543009624013800,266.3920139160156,1.9914207458496094,-0.05253441259264946,-3.356093645095825
1765543009634023700,266.4020236816406,2.445904493331909,-0.15027284622192383,-4.687779903411865
1765543009644064000,266.41206396484375,2.445904493331909,-0.15027284622192383,-4.687779903411865
1765543009654073600,266.42207348632815,2.7672195434570312,-0.20525072515010834,-5.809328556060791
1765543009664114000,266.4321140136719,2.7672195434570312,-0.20525072515010834,-5.809328556060791
1765543009674093300,266.44209326171875,2.939483642578125,-0.29565876722335815,-5.970596790313721
1765543009704061400,266.4720615234375,3.4428365230560303,-0.5815436840057373,-6.079330921173096
1765543009714071300,266.4820712890625,3.5882225036621094,-0.7086036801338196,-6.163630485534668
1765543009724081000,266.4920808105469,3.762929916381836,-0.7904596328735352,-6.103765487670898
1765543009734029800,266.50202978515625,3.886324644088745,-0.8185594081878662,-5.898514747619629
1765543009744070100,266.5120700683594,3.908315896987915,-0.797789990901947,-5.580864906311035
1765543009754079700,266.5220798339844,3.947411298751831,-0.7904596328735352,-5.182580947875977
1765543009764059100,266.53205908203125,4.078136444091797,-0.8527678847312927,-4.8783698081970215
1765543009774038300,266.5420383300781,4.236961364746094,-0.9236282706260681,-4.701219081878662
1765543009784048000,266.5520480957031,4.361577987670898,-0.9346238374710083,-4.648684501647949
1765543009814077400,266.5820773925781,4.428772926330566,-0.7867944240570068,-4.662123680114746
1765543009834127400,266.60212744140625,4.345695495605469,-0.6279694437980652,-4.397007942199707
1765543009844137200,266.61213720703125,4.345695495605469,-0.5681046843528748,-4.189313888549805
1765543009854146800,266.62214672851565,4.320038795471191,-0.48747047781944275,-4.031710624694824
1765543009864126200,266.6321262207031,4.26628303527832,-0.3579670190811157,-3.9327504634857178
1765543009874105300,266.6421052246094,4.1636576652526855,-0.19914206862449646,-3.8704421520233154
1765543009884115200,266.652115234375,4.047593116760254,-0.059864792972803116,-3.7665951251983643
1765543009894094300,266.66209423828127,3.9706242084503174,0.025656340643763542,-3.5417966842651367
1765543009934041900,266.7020417480469,3.6199874877929688,0.44837507605552673,-2.2846360206604004
1765543009964040700,266.7320407714844,3.2791247367858887,0.7709119319915771,-0.8478809595108032
1765543009974050600,266.7420505371094,3.112969398498535,0.8600982427597046,-0.3433062732219696
1765543009984060200,266.75206005859377,2.9211575984954834,0.93095862865448,0.12095131725072861
1765543009994100500,266.7621005859375,2.707354784011841,0.9834930300712585,0.5387831330299377
1765543010024099300,266.7920993652344,1.9792033433914185,1.0531316995620728,1.398881435394287
1765543010094137000,266.86213720703125,0.6352998614311218,0.827111542224884,1.1105530261993408
1765543010104116500,266.8721164550781,0.5180137157440186,0.7586946487426758,0.9773843884468079
1765543010114126000,266.8821259765625,0.4190535545349121,0.6878342628479004,0.8759807348251343
1765543010124136000,266.8921359863281,0.3396410644054413,0.6108652353286743,0.807563841342926
1765543010194235000,266.96223486328125,-0.1270599663257599,0.00855211354792118,0.6304129362106323
1765543010204214000,266.9722141113281,-0.20525072515010834,-0.09285151958465576,0.5839871764183044
1765543010224233500,266.9922333984375,-0.3787364661693573,-0.2981022298336029,0.4300491213798523
1765543010254262800,267.0222626953125,-0.6352998614311218,-0.5913175344467163,0.08552113175392151
1765543010274282500,267.0422824707031,-0.7745771408081055,-0.7538077235221863,-0.15515977144241333
1765543010294271500,267.062271484375,-0.8967501521110535,-0.8906415104866028,-0.3640756905078888
1765543010314291000,267.082291015625,-0.9492846131324768,-0.9468411207199097,-0.45204028487205505
1765543010324300800,267.09230078125,-1.0030407905578613,-0.9932668805122375,-0.5241223573684692
1765543010354330000,267.122330078125,-1.1679743528366089,-1.0604621171951294,-0.6145304441452026
1765543010374349600,267.142349609375,-1.2754865884780884,-1.0702359676361084,-0.608421802520752
1765543010384328700,267.15232861328127,-1.3231340646743774,-1.06657075881958,-0.5974262356758118
1765543010394338600,267.1623386230469,-1.3671164512634277,-1.0543533563613892,-0.5778785347938538
1765543010404348400,267.1723483886719,-1.4062118530273438,-1.0299187898635864,-0.5424483418464661
1765543010414327600,267.18232763671875,-1.4367550611495972,-0.9993755221366882,-0.4960225820541382
1765543010434377700,267.2023776855469,-1.4685200452804565,-0.9370672702789307,-0.3885102868080139
1765543010454427600,267.222427734375,-1.4721852540969849,-0.8833111524581909,-0.27122417092323303
1765543010464437500,267.2324375,-1.4550809860229492,-0.846659243106842,-0.21013765037059784
1765543010474447000,267.2424470214844,-1.4208725690841675,-0.799011766910553,-0.14905111491680145
1765543010484457000,267.25245703125,-1.3744467496871948,-0.7428121566772461,-0.08429940044879913
1765543010494436400,267.2624362792969,-1.3145819902420044,-0.6866125464439392,-0.015882495790719986
1765543010504446000,267.2724460449219,-1.246165156364441,-0.6328563690185547,0.059864792972803116
1765543010514455800,267.2824558105469,-1.166752576828003,-0.5766568183898926,0.1417207419872284
1765543521421303600,778.1893034667969,1.2217304706573486,0.3481931984424591,0.7464773058891296
1765543521431282700,778.1992827148438,0.14294247329235077,-0.04886921867728233,-0.4899139404296875
1765543521441262000,778.2092619628907,0.33108896017074585,-0.10506882518529892,0.10262536257505417
1765543521450972000,778.2189719238281,0.47769662737846375,-0.14905111491680145,0.21013765037059784
1765543521460581600,778.2285815429688,0.16249015927314758,-0.3029891550540924,-0.7428121566772461
1765543521470421800,778.238421875,0.384845107793808,-0.3384193480014801,0.34697145223617554
1765543521500251100,778.2682512207032,0.6023131608963013,-0.12950342893600464,0.4178318381309509
1765543521510230300,778.2782302246094,0.47280970215797424,-0.01710422709584236,0.13439035415649414
1765543521520240000,778.288240234375,0.28466320037841797,0.10751228034496307,0.06230825558304787
1765543521570258400,778.3382585449219,0.059864792972803116,0.0757472887635231,0.4129449129104614
1765543521580268300,778.3482683105469,0.07819075137376785,0.042760565876960754,0.2370157092809677
1765543521590278000,778.3582778320313,0.030543262138962746,0.010995574295520782,0.12217304855585098
1765543521600287700,778.3682878417969,-0.0659734457731247,-0.024434609338641167,0.04642575979232788
1765543521610267000,778.3782668457031,0.02076941914856434,-0.05253441259264946,0.1722639948129654
1765543521620276700,778.3882768554688,0.14049901068210602,-0.02321287989616394,0.4190535545349121
1765543521660285200,778.42828515625,0.19792033731937408,-0.08185594528913498,0.04398229718208313
1765543521690314500,778.458314453125,0.32009339332580566,0.006108652334660292,0.33475416898727417
1765543521740332800,778.5083327636719,0.12828169763088226,-0.11972958594560623,-0.3323107063770294
1765543521800422100,778.5684221191407,-0.1466076523065567,-0.08552113175392151,0.12217304855585098
1765543521820441600,778.5884416503907,-0.17470745742321014,-0.08307767659425735,0.15760323405265808
1765543521830451200,778.598451171875,-0.15760323405265808,-0.0659734457731247,0.00855211354792118
1765543521850440400,778.6184404296876,-0.27611109614372253,-0.10262536257505417,-0.05009094998240471
1765543521860450000,778.6284499511719,-0.3494149148464203,-0.14905111491680145,0.02321287989616394
1765543521870460000,778.6384599609376,-0.2675589919090271,-0.09529497474431992,0.11362093687057495
1765543521880469800,778.6484697265626,-0.27000242471694946,-0.12461651116609573,0.1722639948129654
1765543521890479400,778.6584792480469,-0.2822197377681732,-0.13072516024112701,0.12461651116609573
1765543521900489200,778.6684892578126,-0.28588494658470154,-0.1111774742603302,0.07696902006864548
1765543521910498800,778.6784987792969,-0.26633724570274353,-0.07696902006864548,0.08552113175392151
1765543521920508700,778.6885087890626,-0.20402899384498596,-0.042760565876960754,0.1417207419872284
1765543521930518500,778.6985185546876,-0.1258382350206375,-0.024434609338641167,0.1918116807937622
1765543521960486700,778.7284865722656,-0.015882495790719986,-0.07819075137376785,0.22968533635139465
1765543521970466000,778.7384660644532,-0.021991148591041565,-0.07941248267889023,0.13072516024112701
1765543521980445200,778.7484450683594,-0.025656340643763542,-0.10873401165008545,0.10018189996480942
1765543521990424600,778.7584245605469,-0.04886921867728233,-0.1661553531885147,0.0012217304902151227
1765543522000464600,778.7684645996094,-0.04764748737215996,-0.2125810980796814,-0.1160643994808197
1765543522010444000,778.7784440917969,-0.02076941914856434,-0.2541199326515198,-0.22968533635139465
1765543522030494000,778.7984938964844,0.04153883829712868,-0.3579670190811157,-0.5424483418464661
1765543522040534300,778.8085341796875,0.07941248267889023,-0.4043927788734436,-0.7134906053543091
1765543522060492800,778.8284929199219,0.10018189996480942,-0.4178318381309509,-0.7513642311096191
1765543522160468500,778.9284685058594,0.030543262138962746,-0.08307767659425735,0.00733038317412138
1765543522200507400,778.9685073242188,-0.13805554807186127,0.1160643994808197,0.2015855312347412
1765543522220496400,778.9884963378906,-0.3127630054950714,0.26145032048225403,0.5473352670669556
1765543522230506200,778.9985063476563,-0.32986724376678467,0.3066543638706207,0.66584312915802
1765543522250525700,779.0185256347656,-0.1820378452539444,0.2321287989616394,0.6340781450271606
1765543522260505000,779.0285051269532,-0.10506882518529892,0.1918116807937622,0.7660250067710876
1765543522270514700,779.0385146484375,-0.021991148591041565,0.1417207419872284,0.7831292152404785
1765543522280555000,779.0485549316406,-0.051312681287527084,0.08674286305904388,0.5778785347938538
1765543522330542800,779.09854296875,0.030543262138962746,-0.3066543638706207,-0.37140607833862305
1765543522340522200,779.1085222167969,-0.06475171446800232,-0.35552358627319336,-0.40194934606552124
1765543522350501400,779.1185014648438,-0.08674286305904388,-0.38728857040405273,-0.5522221922874451
1765543522360541700,779.1285417480469,-0.039095375686883926,-0.4153883755207062,-0.6597344875335693
1765543522370551300,779.1385512695313,-0.059864792972803116,-0.43615779280662537,-0.5925393104553223
1765543522380561200,779.1485610351563,-0.00855211354792118,-0.40683624148368835,-0.43615779280662537
1765543522400550100,779.1685500488281,0.006108652334660292,-0.34208452701568604,-0.32498031854629517
1765543522410590500,779.1785905761719,0.006108652334660292,-0.32986724376678467,-0.32620203495025635
1765543522420600300,779.1886003417969,0.0024434609804302454,-0.304210901260376,-0.2871066629886627
1765543522430610000,779.1986098632813,-0.0354301854968071,-0.2577851414680481,-0.22357667982578278
1765543522440619800,779.2086198730469,-0.0806342139840126,-0.2223549485206604,-0.18448130786418915
1765543522450599000,779.2185988769531,-0.09773843735456467,-0.19303341209888458,-0.1563815027475357
1765543522460608800,779.2286088867188,-0.10751228034496307,-0.17104226350784302,-0.13805554807186127
1765543522470618600,779.2386186523438,-0.12217304855585098,-0.13805554807186127,-0.11239920556545258
1765543522480597800,779.24859765625,-0.09773843735456467,-0.12828169763088226,-0.05864306539297104
1765543522510627000,779.278626953125,-0.07208210229873657,-0.06108652427792549,-0.09285151958465576
1765543522530646500,779.298646484375,-0.01466076634824276,-0.03176499158143997,-0.13805554807186127
1765543522540656400,779.3086564941407,0.013439035043120384,-0.04153883829712868,-0.20402899384498596
1765543522550666200,779.3186662597657,0.10751228034496307,-0.0806342139840126,-0.22968533635139465
1765543522560706600,779.3287065429688,0.1722639948129654,-0.12461651116609573,-0.1661553531885147
1765543522570716200,779.3387160644531,0.08552113175392151,-0.15760323405265808,-0.16493362188339233
1765543522580726000,779.3487260742188,-0.00366519158706069,-0.20891591906547546,-0.2431243658065796
1765543522590736000,779.3587358398438,0.013439035043120384,-0.2321287989616394,-0.28099802136421204
1765543522630774800,779.3987749023438,0.021991148591041565,-0.2028072625398636,-0.34208452701568604
1765543522640815000,779.4088151855469,0.004886921960860491,-0.1661553531885147,-0.22479841113090515
1765543522650825000,779.4188249511719,0,-0.1466076523065567,-0.1160643994808197
1765543522660865000,779.4288649902344,0.03787364438176155,-0.13072516024112701,-0.04764748737215996
1765543522670875000,779.438875,0.028099801391363144,-0.09896016865968704,0.006108652334660292
1765543522680884700,779.448884765625,-0.02321287989616394,-0.059864792972803116,-0.0403171069920063
1765543522690894300,779.4588942871094,-0.010995574295520782,-0.03176499158143997,-0.06475171446800232
1765543522700904200,779.468904296875,0.00855211354792118,0.009773843921720982,-0.015882495790719986
1765543522730903000,779.4989030761719,-0.019547687843441963,0.039095375686883926,0.019547687843441963
1765543522740912600,779.5089125976563,-0.00855211354792118,0.04153883829712868,0.045204028487205505
1765543522750922500,779.5189226074219,-0.01466076634824276,0.030543262138962746,0.05375614017248154
1765543522760932400,779.5289323730469,-0.01466076634824276,0.030543262138962746,0.05375614017248154
1765543522770942000,779.5389418945313,-0.025656340643763542,0.02076941914856434,0.04886921867728233
1765543522780951800,779.5489519042969,-0.036651913076639175,0,0.04764748737215996
1765543522790961700,779.5589616699219,-0.0403171069920063,-0.019547687843441963,0.06841690838336945
1765543522800971300,779.5689711914063,-0.02076941914856434,-0.024434609338641167,0.05253441259264946
1765543522810950700,779.5789506835938,0.006108652334660292,-0.02687807008624077,-0.03176499158143997
1765543522820991000,779.5889909667969,0.02321287989616394,-0.02932153269648552,-0.09407325088977814
1765543522831000600,779.5990004882813,0.01466076634824276,-0.0354301854968071,-0.14538592100143433
1765543522841041000,779.609041015625,0.024434609338641167,-0.05375614017248154,-0.1612684279680252
1765543522851020300,779.6190202636719,0.05009094998240471,-0.06963863968849182,-0.10018189996480942
1765543522860999400,779.6289995117188,0.06108652427792549,-0.07696902006864548,-0.05375614017248154
1765543522871039700,779.6390397949219,0.06352998316287994,-0.08918632566928864,-0.06108652427792549
1765543522881049300,779.6490493164063,0.06352998316287994,-0.1014036312699318,-0.09529497474431992
1765543522891059200,779.6590590820313,0.051312681287527084,-0.08674286305904388,-0.1111774742603302
1765543522901069000,779.6690690917969,0.045204028487205505,-0.07330382615327835,-0.12095131725072861
1765543522911078700,779.6790786132813,0.036651913076639175,-0.06230825558304787,-0.12095131725072861
1765543522941047000,779.7090471191407,0.018325956538319588,-0.028099801391363144,-0.11484266817569733
1765543522951057000,779.7190568847657,0.01466076634824276,0.004886921960860491,-0.10751228034496307
1765543522961066500,779.72906640625,0.030543262138962746,0.028099801391363144,-0.07941248267889023
1765543522971046000,779.7390458984376,0.03298672288656235,0.036651913076639175,-0.03176499158143997
1765543522981025000,779.7490249023438,0.02076941914856434,0.04398229718208313,-0.004886921960860491
1765543522991065300,779.7590654296876,0.018325956538319588,0.05375614017248154,0.00733038317412138
1765543523001105700,779.7691057128907,0.018325956538319588,0.0659734457731247,0.01466076634824276
1765543523011084800,779.7790847167969,0.004886921960860491,0.0708603709936142,0.03298672288656235
1765543523041083600,779.8090837402344,-0.00366519158706069,0.06719517707824707,0.09285151958465576
1765543523051062800,779.8190627441406,-0.00366519158706069,0.0659734457731247,0.07696902006864548
1765543523061072600,779.8290727539063,-0.0012217304902151227,0.0403171069920063,0.039095375686883926
1765543523071052000,779.8390520019532,-0.0024434609804302454,0.01466076634824276,0.00366519158706069
1765543523081061600,779.8490615234375,-0.006108652334660292,0.0024434609804302454,-0.02687807008624077
1765543523091071500,779.8590715332032,-0.0012217304902151227,-0.01710422709584236,-0.02321287989616394
1765543523101081000,779.8690810546875,-0.018325956538319588,-0.039095375686883926,-0.009773843921720982
1765543523111091000,779.8790910644532,-0.009773843921720982,-0.03420845419168472,0.00366519158706069
1765543523121100800,779.8891008300782,0.02932153269648552,-0.018325956538319588,-0.01710422709584236
1765543523151130000,779.9191301269532,-0.0354301854968071,-0.019547687843441963,-0.09529497474431992
1765543523161109200,779.9291091308594,-0.03298672288656235,0,-0.05742133408784866
1765543523171088600,779.9390886230469,-0.02932153269648552,0.024434609338641167,0.00733038317412138
1765543523181067800,779.9490678710938,-0.02932153269648552,0.030543262138962746,0.02687807008624077
1765543523191047000,779.959046875,-0.03787364438176155,0.02687807008624077,0.006108652334660292
1765543523201087200,779.9690871582031,-0.05375614017248154,0.02687807008624077,-0.00855211354792118
1765543523211066600,779.9790666503907,-0.05253441259264946,0.03176499158143997,0.024434609338641167
1765543523221045800,779.9890456542969,-0.02932153269648552,0.05009094998240471,0.05375614017248154
1765543523261085000,780.0290849609376,-0.028099801391363144,0.009773843921720982,-0.03787364438176155
1765543523271125200,780.0391252441407,-0.03787364438176155,0.010995574295520782,-0.00855211354792118
1765543523281134800,780.049134765625,-0.051312681287527084,0.015882495790719986,0.004886921960860491
1765543523291114200,780.0591142578126,-0.010995574295520782,-0.004886921960860491,-0.01466076634824276
1765543523301123800,780.0691237792969,0.010995574295520782,-0.01710422709584236,-0.010995574295520782
1765543523311133700,780.0791337890626,-0.006108652334660292,-0.0403171069920063,-0.03176499158143997
1765543523321174000,780.0891740722657,-0.015882495790719986,-0.059864792972803116,-0.06108652427792549
1765543523331153200,780.0991530761719,-0.01710422709584236,-0.05864306539297104,-0.059864792972803116
1765543523341163000,780.1091630859376,-0.025656340643763542,-0.051312681287527084,-0.05009094998240471
1765543523371131100,780.1391311035156,-0.004886921960860491,-0.04764748737215996,0.03787364438176155
1765543523381141000,780.1491411132813,-0.009773843921720982,-0.042760565876960754,0.019547687843441963
1765543523391150800,780.1591508789063,-0.028099801391363144,-0.051312681287527084,-0.01710422709584236
1765543523401160400,780.1691604003906,-0.024434609338641167,-0.06352998316287994,-0.018325956538319588
1765543523411170300,780.1791704101563,-0.02687807008624077,-0.05742133408784866,-0.00366519158706069
1765543523421180200,780.1891801757813,-0.02687807008624077,-0.05742133408784866,-0.00366519158706069
1765543523431189800,780.1991896972656,-0.02932153269648552,-0.045204028487205505,0.009773843921720982
1765543523441169200,780.2091691894532,-0.012217304669320583,-0.04764748737215996,0.010995574295520782
1765543523451178800,780.2191787109375,-0.0024434609804302454,-0.04153883829712868,0.02076941914856434
1765543523471168000,780.23916796875,-0.024434609338641167,-0.019547687843441963,-0.00733038317412138
1765543523481208000,780.2492080078125,-0.015882495790719986,-0.01466076634824276,0.012217304669320583
1765543523491218000,780.2592180175782,-0.009773843921720982,0,0.06230825558304787
1765543523501227800,780.2692277832032,-0.0012217304902151227,0.010995574295520782,0.09651670604944229
1765543523511237400,780.2792373046875,-0.00733038317412138,0.03176499158143997,0.11239920556545258
1765543523521216800,780.289216796875,-0.006108652334660292,0.04153883829712868,0.1270599663257599
1765543523531226400,780.2992263183594,-0.006108652334660292,0.06352998316287994,0.14782938361167908
1765543523541236200,780.309236328125,-0.036651913076639175,0.05864306539297104,0.10506882518529892
1765543523551215400,780.3192153320313,-0.039095375686883926,0.051312681287527084,0.1258382350206375
1765543523571204600,780.3392045898438,0.018325956538319588,0.05742133408784866,0.24068090319633484
1765543523581214200,780.3492141113281,0.00733038317412138,0.06108652427792549,0.1966986060142517
1765543523591224000,780.3592241210938,-0.01466076634824276,0.04886921867728233,0.1270599663257599
1765543523601234000,780.3692338867188,-0.010995574295520782,0.05009094998240471,0.13072516024112701
1765543523611213000,780.3792131347657,-0.01710422709584236,0.04764748737215996,0.18570303916931152
1765543523621223000,780.3892229003907,-0.02932153269648552,0.0403171069920063,0.2174680233001709
1765543523631202000,780.3992021484376,0.015882495790719986,0.04398229718208313,0.21135938167572021
1765543523641212000,780.4092119140626,0.028099801391363144,0.036651913076639175,0.16249015927314758
1765543523651191000,780.4191909179688,0.0012217304902151227,0.019547687843441963,0.1160643994808197
1765543523671180000,780.4391799316406,0.015882495790719986,-0.00855211354792118,0.10018189996480942
1765543523701179000,780.4691789550782,-0.02932153269648552,-0.059864792972803116,0.1368338167667389
1765543523711188700,780.4791887207032,0.009773843921720982,-0.042760565876960754,0.1771509200334549
1765543523721198300,780.4891982421875,0.021991148591041565,-0.03298672288656235,0.15882496535778046
1765543523731208200,780.4992082519532,-0.00733038317412138,-0.0659734457731247,0.09285151958465576
1765543523741218000,780.5092180175782,0,-0.07452555745840073,0.025656340643763542
1765543523751227600,780.5192275390625,-0.00855211354792118,-0.06352998316287994,-0.006108652334660292
1765543523761207000,780.52920703125,0.00855211354792118,-0.05009094998240471,0.04642575979232788
1765543523791205600,780.5592055664063,-0.004886921960860491,-0.02687807008624077,0.13316862285137177
1765543523801246000,780.5692458496094,-0.00733038317412138,-0.042760565876960754,0.08307767659425735
1765543523811225300,780.5792253417969,-0.030543262138962746,-0.04764748737215996,0.07452555745840073
1765543523831214300,780.5992143554688,-0.03176499158143997,-0.02321287989616394,0.04764748737215996
1765543523841224000,780.6092238769531,-0.04642575979232788,0.013439035043120384,0.01710422709584236
1765543523851233800,780.6192338867188,-0.06108652427792549,0.04398229718208313,-0.024434609338641167
1765543523861243600,780.6292436523438,-0.07208210229873657,0.06108652427792549,-0.036651913076639175
1765543523871253200,780.6392531738281,-0.0708603709936142,0.07696902006864548,0.01710422709584236
1765543523881232600,780.6492326660157,-0.059864792972803116,0.08674286305904388,0.06352998316287994
1765543523891211800,780.6592116699219,-0.028099801391363144,0.09162978827953339,0.059864792972803116
1765543523901221600,780.6692216796876,-0.00855211354792118,0.09529497474431992,0.00733038317412138
1765543523911200800,780.6792006835938,0.013439035043120384,0.09407325088977814,-0.1319468915462494
1765543523921241000,780.6892409667969,0.03176499158143997,0.07696902006864548,-0.26022860407829285
1765543523931251000,780.6992509765626,0.01466076634824276,0.05864306539297104,-0.3579670190811157
1765543523941260500,780.7092604980469,0.051312681287527084,-0.01710422709584236,-0.41661009192466736
1765543523951270400,780.7192705078126,0.10018189996480942,-0.14416420459747314,-0.42638394236564636
1765543523961280300,780.7292802734376,0.08307767659425735,-0.16737708449363708,-0.375071257352829
1765543523991278800,780.7592788085938,0.04642575979232788,-0.13072516024112701,-0.43249258399009705
1765543524011268000,780.7792680664063,0.0024434609804302454,-0.10018189996480942,-0.21380282938480377
1765543524021308200,780.7893081054688,-0.02321287989616394,-0.06352998316287994,-0.12950342893600464
1765543524031318000,780.7993181152344,-0.02076941914856434,-0.04398229718208313,-0.0757472887635231
1765543524041327900,780.8093278808594,-0.036651913076639175,-0.02687807008624077,-0.08552113175392151
1765543524051307000,780.8193071289063,-0.0403171069920063,0,-0.13072516024112701
1765543524061316900,780.8293168945313,-0.02932153269648552,0.00733038317412138,-0.1319468915462494
1765543524071357200,780.8393571777344,-0.03420845419168472,0.006108652334660292,-0.0757472887635231
1765543524081336300,780.8493364257813,-0.03420845419168472,0.006108652334660292,-0.0757472887635231
1765543524091346200,780.8593461914063,-0.039095375686883926,0.00733038317412138,-0.0024434609804302454
1765543524101355800,780.8693557128906,-0.02687807008624077,0.006108652334660292,0.04764748737215996
1765543524111335200,780.8793352050782,-0.018325956538319588,0.0012217304902151227,0.04153883829712868
1765543524131354600,780.8993547363282,-0.00366519158706069,-0.006108652334660292,-0.06475171446800232
1765543524141334000,780.909333984375,0.004886921960860491,-0.015882495790719986,-0.09040805697441101
1765543524151374000,780.9193740234375,0.00733038317412138,-0.028099801391363144,-0.10018189996480942
1765543524161353500,780.929353515625,0.013439035043120384,-0.03420845419168472,-0.09040805697441101
1765543524171393800,780.9393937988282,0.015882495790719986,-0.02687807008624077,-0.06108652427792549
1765543524201423000,780.9694230957032,0.02321287989616394,-0.028099801391363144,0.0024434609804302454
1765543524211432700,780.9794326171875,0.019547687843441963,-0.018325956538319588,-0.025656340643763542
1765543524221442600,780.9894426269532,0.02687807008624077,-0.006108652334660292,-0.036651913076639175
1765543524231421700,780.9994216308594,0.02932153269648552,0.0024434609804302454,-0.02321287989616394
1765543524241401000,781.0094011230469,0.02321287989616394,0.009773843921720982,-0.00366519158706069
1765543524251441400,781.01944140625,0.02687807008624077,0.01710422709584236,0.019547687843441963
1765543524261420500,781.0294206542969,0.02321287989616394,0.025656340643763542,0.01710422709584236
1765543524271460900,781.0394609375,0.01710422709584236,0.025656340643763542,-0.0012217304902151227
1765543524291449900,781.0594499511719,0.0012217304902151227,0.02076941914856434,0.0012217304902151227
1765543524301459700,781.0694597167969,0.00733038317412138,0.010995574295520782,-0.004886921960860491
1765543524311469300,781.0794692382813,0.015882495790719986,0.012217304669320583,-0.0012217304902151227
1765543524321479200,781.0894792480469,0.013439035043120384,0.012217304669320583,-0.0024434609804302454
1765543524331489000,781.0994890136719,0.00733038317412138,0.00366519158706069,-0.010995574295520782
1765543524341498600,781.1094985351563,0.004886921960860491,0.0012217304902151227,-0.01710422709584236
1765543524351508500,781.1195085449219,0.00855211354792118,0.010995574295520782,0.0012217304902151227
1765543524361518300,781.1295183105469,0.02076941914856434,0,0.019547687843441963
1765543524371528000,781.1395278320313,0.018325956538319588,-0.0012217304902151227,0.004886921960860491
1765543524381537800,781.1495378417969,0.009773843921720982,0.0024434609804302454,-0.0403171069920063
1765543524401557200,781.1695571289063,0.018325956538319588,-0.00733038317412138,-0.06230825558304787
1765543524411567000,781.1795671386719,0.02321287989616394,-0.01710422709584236,-0.05497787147760391
1765543524421576700,781.1895766601563,0.028099801391363144,-0.02932153269648552,-0.04398229718208313
1765543524431586600,781.1995866699219,0.02687807008624077,-0.02932153269648552,-0.030543262138962746
1765543524441627000,781.209626953125,0.03420845419168472,-0.021991148591041565,-0.024434609338641167
1765543524451606000,781.2196059570313,0.0403171069920063,-0.02076941914856434,-0.03176499158143997
1765543524461585400,781.2295854492188,0.042760565876960754,-0.025656340643763542,-0.03787364438176155
1765543524471625700,781.2396257324219,0.0354301854968071,-0.025656340643763542,-0.042760565876960754
1765543524481635300,781.2496352539063,0.03787364438176155,-0.018325956538319588,-0.036651913076639175
1765543524511634200,781.2796342773438,0.03176499158143997,-0.004886921960860491,-0.02321287989616394
1765543524521613300,781.28961328125,0.03176499158143997,0,-0.02076941914856434
1765543524531653600,781.2996535644531,0.025656340643763542,0.00855211354792118,-0.004886921960860491
1765543524541663500,781.3096635742188,0.015882495790719986,0.018325956538319588,0.012217304669320583
1765543524551673300,781.3196733398438,0.012217304669320583,0.015882495790719986,0.02321287989616394
1765543524561652500,781.3296525878907,0.01710422709584236,0.01710422709584236,0.021991148591041565
1765543524571662300,781.3396623535157,0.015882495790719986,0.021991148591041565,0.019547687843441963
1765543524581672000,781.349671875,0.01710422709584236,0.024434609338641167,0.012217304669320583
1765543524591681800,781.3596818847657,0.01710422709584236,0.025656340643763542,-0.009773843921720982
1765543524611670800,781.3796708984376,0.009773843921720982,0.03298672288656235,-0.00733038317412138
1765543524621650200,781.3896501464844,0.00855211354792118,0.03298672288656235,0.0354301854968071
1765543524631629300,781.3996293945313,0.009773843921720982,0.0354301854968071,0.05742133408784866
1765543524641639200,781.4096391601563,0.012217304669320583,0.04153883829712868,0.04642575979232788
1765543524651618300,781.4196184082032,0.013439035043120384,0.0403171069920063,0.02321287989616394
1765543524661628200,781.4296281738282,0.013439035043120384,0.03298672288656235,0.010995574295520782
1765543524671637800,781.4396376953125,0.012217304669320583,0.02932153269648552,0.018325956538319588
1765543524681617200,781.4496171875,0.010995574295520782,0.030543262138962746,0.021991148591041565
1765543524691626800,781.4596267089844,0.019547687843441963,0.036651913076639175,0.01466076634824276
1765543524721656000,781.4896560058594,0.021991148591041565,0.019547687843441963,0.021991148591041565
1765543524731635500,781.4996354980469,0.025656340643763542,0.015882495790719986,0.00366519158706069
1765543524741614600,781.5096145019531,0.02932153269648552,0.004886921960860491,-0.01466076634824276
1765543524751655000,781.5196550292969,0.018325956538319588,0.004886921960860491,-0.02687807008624077
1765543524761664800,781.5296647949219,0.018325956538319588,0.004886921960860491,-0.02687807008624077
1765543524771674400,781.5396743164063,0.00855211354792118,0.01466076634824276,-0.021991148591041565
1765543524781653800,781.5496538085938,0.01710422709584236,0.01466076634824276,-0.0024434609804302454
1765543524791663400,781.5596633300781,0.019547687843441963,0.009773843921720982,0.004886921960860491
1765543524801642800,781.5696428222657,0.01710422709584236,0.00733038317412138,0.00366519158706069
1765543524841651200,781.6096511230469,0.019547687843441963,0,0.00855211354792118
1765543524851661000,781.6196611328126,0.021991148591041565,-0.0012217304902151227,0.004886921960860491
1765543524861671000,781.6296708984376,0.02321287989616394,0.004886921960860491,-0.009773843921720982
1765543524871650000,781.6396501464844,0.018325956538319588,-0.0012217304902151227,-0.024434609338641167
1765543524881629200,781.6496291503906,0.019547687843441963,0.00366519158706069,-0.015882495790719986
1765543524891669500,781.6596694335938,0.02687807008624077,-0.00366519158706069,-0.019547687843441963
1765543524901679400,781.6696794433594,0.024434609338641167,-0.00855211354792118,-0.015882495790719986
1765543524941687800,781.7096877441406,0.019547687843441963,0.00855211354792118,-0.02932153269648552
1765543524951697700,781.7196977539063,0.01710422709584236,0.00733038317412138,-0.012217304669320583
1765543524961738000,781.7297380371094,0.01466076634824276,0.00733038317412138,-0.00855211354792118
1765543524971717000,781.7397170410156,0.021991148591041565,0.012217304669320583,-0.00733038317412138
1765543524981696500,781.7496965332032,0.025656340643763542,0.012217304669320583,-0.013439035043120384
1765543524991736800,781.7597368164063,0.018325956538319588,0.015882495790719986,-0.010995574295520782
1765543525001716000,781.7697160644532,0.019547687843441963,0.013439035043120384,0
1765543525011725800,781.7797258300782,0.015882495790719986,0.009773843921720982,0.01710422709584236
