time,seconds_elapsed,z,y,x
1765542740075812600,-3.1561875,9.627511024475098,0.06036398187279701,-1.8648803234100342
1765542740095801600,-3.136198486328125,9.628990173339844,0.055033158510923386,-1.8573884963989258
1765542740105842000,-3.126157958984375,9.63106918334961,0.047364242374897,-1.8467950820922852
1765542740125831000,-3.106169189453125,9.634159088134766,0.04156959801912308,-1.8307501077651978
1765542740135810000,-3.09618994140625,9.634839057922363,0.0407162643969059,-1.827183723449707
1765542740145850400,-3.086149658203125,9.636566162109375,0.031659431755542755,-1.8182346820831299
1765542740155860200,-3.076139892578125,9.636951446533203,0.027636779472231865,-1.8162555694580078
1765542740165869800,-3.066130126953125,9.6383695602417,0.02397068589925766,-1.8087694644927979
1765542740175879700,-3.056120361328125,9.639115333557129,0.020979605615139008,-1.8048268556594849
1765542740185920000,-3.046080078125,9.639752388000488,0.010721218772232533,-1.8015118837356567
1765542740215949300,-3.01605078125,9.63976001739502,-0.0036340365186333656,-1.8015011548995972
1765542740235938300,-2.996061767578125,9.639710426330566,-0.0014713603304699063,-1.8017688989639282
1765542740245978600,-2.986021484375,9.639698028564453,-0.0021894911769777536,-1.8018317222595215
1765542740255988200,-2.97601171875,9.63964557647705,-0.0041521512903273106,-1.8021092414855957
1765542740266028500,-2.965971435546875,9.639801025390625,-0.00627141771838069,-1.8012731075286865
1765542740276008000,-2.955991943359375,9.640034675598145,-0.0066068051382899284,-1.8000216484069824
1765542740286017500,-2.945982421875,9.640584945678711,-0.003865726524963975,-1.7970813512802124
1765542740296027400,-2.93597265625,9.641124725341797,-0.0027734923642128706,-1.7941837310791016
1765542740335975000,-2.896025146484375,9.642419815063477,-0.005330967716872692,-1.7872060537338257
1765542740346045700,-2.885954345703125,9.642802238464355,-0.00571224931627512,-1.7851401567459106
1765542740356024800,-2.87597509765625,9.643442153930664,-0.0019252324709668756,-1.7816845178604126
1765542740366065200,-2.865934814453125,9.64365291595459,-0.0002930098562501371,-1.7805476188659668
1765542740376075000,-2.855925048828125,9.644186973571777,0.0024363056290894747,-1.7776522636413574
1765542740386084900,-2.8459150390625,9.644407272338867,0.001678281114436686,-1.7764554023742676
1765542740396094500,-2.835905517578125,9.644429206848145,0.0008077361853793263,-1.776337742805481
1765542740416114000,-2.815885986328125,9.644774436950684,-0.0033088689669966698,-1.774457573890686
1765542740426123800,-2.805876220703125,9.644968032836914,-0.008105656132102013,-1.773388147354126
1765542740436103200,-2.795896728515625,9.645158767700195,-0.010971777141094208,-1.7723348140716553
1765542740446143200,-2.785856689453125,9.645498275756836,-0.00980411283671856,-1.7704976797103882
1765542740456153000,-2.775846923828125,9.646013259887695,-0.00899756420403719,-1.7676934003829956
1765542740466132500,-2.765867431640625,9.646258354187012,-0.009094740264117718,-1.7663511037826538
1765542740476142000,-2.75585791015625,9.645965576171875,-0.011416589841246605,-1.767934799194336
1765542740486121500,-2.74587841796875,9.64608383178711,-0.011031417176127434,-1.767295241355896
1765542740496100600,-2.7358994140625,9.64583969116211,-0.013883646577596664,-1.7686067819595337
1765542740506110500,-2.7258896484375,9.645562171936035,-0.01903139427304268,-1.7700724601745605
1765542740536109000,-2.695890869140625,9.642570495605469,-0.03131629154086113,-1.7861227989196777
1765542740546088400,-2.68591162109375,9.641762733459473,-0.0335676483809948,-1.790441870689392
1765542740556067600,-2.675932373046875,9.641288757324219,-0.033121347427368164,-1.7929977178573608
1765542740566108000,-2.66589208984375,9.640501976013184,-0.03180823102593422,-1.797250509262085
1765542740576117800,-2.65588232421875,9.63982105255127,-0.031361810863018036,-1.8009021282196045
1765542740586127400,-2.64587255859375,9.639159202575684,-0.032101329416036606,-1.8044285774230957
1765542740596106800,-2.635893310546875,9.638505935668945,-0.035609595477581024,-1.8078500032424927
1765542740606086000,-2.6259140625,9.63813304901123,-0.042377837002277374,-1.809693694114685
1765542740616065300,-2.615934814453125,9.637505531311035,-0.05587879568338394,-1.8126614093780518
1765542740646063900,-2.58593603515625,9.636673927307129,-0.0683087557554245,-1.8166550397872925
1765542740656073700,-2.57592626953125,9.63687801361084,-0.06885555386543274,-1.8155499696731567
1765542740666053000,-2.56594677734375,9.636375427246094,-0.07114219665527344,-1.818130612373352
1765542740676062700,-2.555937255859375,9.635579109191895,-0.07800748199224472,-1.8220617771148682
1765542740686042000,-2.5459580078125,9.635208129882812,-0.08146672695875168,-1.8238731622695923
1765542740696051700,-2.5359482421875,9.634577751159668,-0.08176843822002411,-1.8271846771240234
1765542740706031000,-2.525968994140625,9.633934020996094,-0.07992330193519592,-1.830659031867981
1765542740716010200,-2.51598974609375,9.63300609588623,-0.08064191043376923,-1.8355038166046143
1765542740756019000,-2.47598095703125,9.63084888458252,-0.09546873718500137,-1.8460825681686401
1765542740766028500,-2.465971435546875,9.63082504272461,-0.09427842497825623,-1.8462674617767334
1765542740776038400,-2.455961669921875,9.630661010742188,-0.09344441443681717,-1.847169280052185
1765542740786017500,-2.445982421875,9.630447387695312,-0.0938333198428154,-1.8482589721679688
1765542740795997000,-2.436003173828125,9.63057804107666,-0.09293106198310852,-1.8476234674453735
1765542740806006500,-2.425993408203125,9.63049602508545,-0.09201920032501221,-1.8480980396270752
1765542740816016400,-2.415983642578125,9.63040828704834,-0.08938922733068466,-1.8486814498901367
1765542740826026200,-2.405973876953125,9.630559921264648,-0.08653391897678375,-1.848031759262085
1765542740856024800,-2.37597509765625,9.63118839263916,-0.08664955198764801,-1.8447455167770386
1765542740866034700,-2.36596533203125,9.631157875061035,-0.08974111825227737,-1.8447608947753906
1765542740876044500,-2.35595556640625,9.631794929504395,-0.09208248555660248,-1.8413108587265015
1765542740886054100,-2.34594580078125,9.63214111328125,-0.09430725872516632,-1.8393886089324951
1765542740896064000,-2.33593603515625,9.63204288482666,-0.09639673680067062,-1.8397952318191528
1765542740906073900,-2.325926025390625,9.631660461425781,-0.09625323861837387,-1.8418024778366089
1765542740916053000,-2.315947021484375,9.63150691986084,-0.09625069797039032,-1.8426059484481812
1765542740926093300,-2.30590673828125,9.631109237670898,-0.0958927795290947,-1.8447037935256958
1765542740976111600,-2.255888427734375,9.629118919372559,-0.10351086407899857,-1.8546512126922607
1765542740986121500,-2.24587841796875,9.629237174987793,-0.10413545370101929,-1.8540050983428955
1765542740996131000,-2.235868896484375,9.629018783569336,-0.10546504706144333,-1.8550622463226318
1765542741006141000,-2.225859130859375,9.628884315490723,-0.10700544714927673,-1.8556718826293945
1765542741016150800,-2.21584912109375,9.629167556762695,-0.10640589892864227,-1.854238510131836
1765542741026160400,-2.205839599609375,9.629652976989746,-0.1078169122338295,-1.8516310453414917
1765542741036170200,-2.195829833984375,9.629874229431152,-0.1077309399843216,-1.8504873514175415
1765542741066199600,-2.165800537109375,9.630085945129395,-0.11541815102100372,-1.8489196300506592
1765542741076209200,-2.155790771484375,9.630202293395996,-0.11834600567817688,-1.8481289148330688
1765542741086188500,-2.1458115234375,9.63012981414795,-0.11860351264476776,-1.8484927415847778
1765542741096198100,-2.1358017578125,9.630304336547852,-0.11795420199632645,-1.8476262092590332
1765542741106208000,-2.1257919921875,9.630289077758789,-0.11712799966335297,-1.8477522134780884
1765542741116217900,-2.1157822265625,9.6304292678833,-0.11657379567623138,-1.8470619916915894
1765542741126197000,-2.105802978515625,9.630511283874512,-0.11775459349155426,-1.8465590476989746
1765542741136206800,-2.095793212890625,9.630992889404297,-0.11867830157279968,-1.8439828157424927
1765542741146216700,-2.085783203125,9.631379127502441,-0.117487333714962,-1.8420413732528687
1765542741196296000,-2.0357041015625,9.633883476257324,-0.10554066300392151,-1.829627513885498
1765542741206336300,-2.025663818359375,9.634377479553223,-0.10162902623414993,-1.827245831489563
1765542741216345900,-2.015654052734375,9.63454818725586,-0.09935548901557922,-1.8264707326889038
1765542741226325200,-2.0056748046875,9.634552001953125,-0.09796880930662155,-1.8265269994735718
1765542741236304400,-1.995695556640625,9.634689331054688,-0.09908296167850494,-1.825742483139038
1765542741246344700,-1.9856552734375,9.634706497192383,-0.10336174815893173,-1.8254153728485107
1765542741256324000,-1.975676025390625,9.634997367858887,-0.10836681723594666,-1.823583722114563
1765542741276313000,-1.95568701171875,9.63567066192627,-0.11053745448589325,-1.81989324092865
1765542741296302000,-1.935697998046875,9.635703086853027,-0.11188320070505142,-1.8196440935134888
1765542741306311700,-1.925688232421875,9.635628700256348,-0.10921836644411087,-1.8201984167099
1765542741316321500,-1.915678466796875,9.635794639587402,-0.10562919080257416,-1.8195291757583618
1765542741336310500,-1.895689453125,9.635805130004883,-0.10572274029254913,-1.8194665908813477
1765542741346320400,-1.8856796875,9.63559341430664,-0.10951300710439682,-1.8203680515289307
1765542741356299500,-1.875700439453125,9.63542366027832,-0.10861335694789886,-1.8213204145431519
1765542741376319200,-1.8556806640625,9.635984420776367,-0.1019725501537323,-1.8187339305877686
1765542741386328800,-1.845671142578125,9.636198997497559,-0.1004553958773613,-1.817681908607483
1765542741396338700,-1.835661376953125,9.636609077453613,-0.09996435046195984,-1.815537452697754
1765542741406348500,-1.8256513671875,9.636832237243652,-0.10155515372753143,-1.8142576217651367
1765542741416358100,-1.815641845703125,9.637251853942871,-0.1019953116774559,-1.8120019435882568
1765542741426368000,-1.805632080078125,9.637627601623535,-0.1015624850988388,-1.810025930404663
1765542741436347100,-1.79565283203125,9.63801097869873,-0.10191396623849869,-1.8079673051834106
1765542741446357000,-1.78564306640625,9.638264656066895,-0.10159332305192947,-1.8066350221633911
1765542741456366800,-1.775633056640625,9.638810157775879,-0.10185211896896362,-1.8037036657333374
1765542741466407000,-1.765593017578125,9.638915061950684,-0.10339099913835526,-1.8030554056167603
1765542741516394800,-1.715605224609375,9.639309883117676,-0.09828943759202957,-1.8012315034866333
1765542741526404600,-1.705595458984375,9.639476776123047,-0.1024777740240097,-1.8001047372817993
1765542741536414500,-1.69558544921875,9.639596939086914,-0.10313712805509567,-1.799424409866333
1765542741546424000,-1.685575927734375,9.639806747436523,-0.10300378501415253,-1.798307180404663
1765542741556434000,-1.675566162109375,9.639689445495605,-0.10302993655204773,-1.7989310026168823
1765542741566443500,-1.665556396484375,9.63951301574707,-0.10245805978775024,-1.7999132871627808
1765542741576392400,-1.655607666015625,9.639630317687988,-0.10165508836507797,-1.7993296384811401
1765542741606421800,-1.625578125,9.63923168182373,-0.0990387573838234,-1.8016103506088257
1765542741616431400,-1.615568603515625,9.639298439025879,-0.09740030765533447,-1.8013365268707275
1765542741626441200,-1.605558837890625,9.639050483703613,-0.09865184128284454,-1.8025953769683838
1765542741636420400,-1.59557958984375,9.638792037963867,-0.09601247310638428,-1.8041218519210815
1765542741646430200,-1.58556982421875,9.638933181762695,-0.09333933144807816,-1.8035081624984741
1765542741656409300,-1.575590576171875,9.639153480529785,-0.08883500099182129,-1.8025590181350708
1765542741666388700,-1.565611328125,9.639320373535156,-0.08676739782094955,-1.8017646074295044
1765542741676398600,-1.555601318359375,9.63975715637207,-0.08334185183048248,-1.7995909452438354
1765542741726417000,-1.5055830078125,9.641939163208008,-0.08261942118406296,-1.7878941297531128
1765542741736426500,-1.495573486328125,9.641914367675781,-0.08035536855459213,-1.7881332635879517
1765542741746436400,-1.485563720703125,9.641949653625488,-0.08012166619300842,-1.7879499197006226
1765542741756446000,-1.475553955078125,9.642036437988281,-0.08194493502378464,-1.7874016761779785
1765542741766455800,-1.465544189453125,9.642173767089844,-0.08446900546550751,-1.7865467071533203
1765542741776465700,-1.455534423828125,9.642167091369629,-0.08506458252668381,-1.7865499258041382
1765542741786444800,-1.44555517578125,9.642138481140137,-0.08347368985414505,-1.786782145500183
1765542741826453500,-1.40554638671875,9.64316177368164,-0.08595908433198929,-1.7811299562454224
1765542741836371700,-1.395628173828125,9.643216133117676,-0.08395595848560333,-1.7809324264526367
1765542741856421600,-1.375578369140625,9.643157958984375,-0.07874270528554916,-1.781485676765442
1765542741866401000,-1.365598876953125,9.64330005645752,-0.07793998718261719,-1.7807544469833374
1765542741876349700,-1.355650390625,9.643528938293457,-0.07925368845462799,-1.7794504165649414
1765542741886359300,-1.345640625,9.643842697143555,-0.08198325335979462,-1.7776291370391846
1765542741916388600,-1.315611328125,9.643609046936035,-0.08463935554027557,-1.7787725925445557
1765542741926368000,-1.305632080078125,9.643574714660645,-0.08728715777397156,-1.7788279056549072
1765542741936377600,-1.295622314453125,9.643542289733887,-0.08952401578426361,-1.7788960933685303
1765542741946357000,-1.28564306640625,9.643322944641113,-0.09121819585561752,-1.7799986600875854
1765542741956336000,-1.275663818359375,9.64291000366211,-0.09061521291732788,-1.7822623252868652
1765542741966346000,-1.265654052734375,9.642773628234863,-0.08838269114494324,-1.7831141948699951
1765542741976355800,-1.25564404296875,9.642438888549805,-0.08591936528682709,-1.785042405128479
1765542741986396000,-1.24560400390625,9.642184257507324,-0.08404097706079483,-1.7865090370178223
1765542741996375300,-1.235624755859375,9.642172813415527,-0.08188768476247787,-1.7866690158843994
1765542742006415600,-1.22558447265625,9.64250659942627,-0.07664503157138824,-1.7850983142852783
1765542742016394800,-1.215605224609375,9.642997741699219,-0.07225034385919571,-1.7826255559921265
1765542742036414500,-1.19558544921875,9.643533706665039,-0.0681079551577568,-1.779891014099121
1765542742046424000,-1.185575927734375,9.64371109008789,-0.06979250907897949,-1.7788654565811157
1765542742056403500,-1.175596435546875,9.643926620483398,-0.06946161389350891,-1.7777056694030762
1765542742066413000,-1.1655869140625,9.644007682800293,-0.07026823610067368,-1.7772345542907715
1765542742076392400,-1.155607666015625,9.644103050231934,-0.06980273127555847,-1.776738166809082
1765542742086432800,-1.145567138671875,9.644524574279785,-0.06696446239948273,-1.7745567560195923
1765542742096442400,-1.1355576171875,9.645325660705566,-0.061548348516225815,-1.7703924179077148
1765542742116431400,-1.115568603515625,9.646360397338867,-0.05269411951303482,-1.765031099319458
1765542742126410800,-1.10558935546875,9.646909713745117,-0.05021372810006142,-1.762098789215088
1765542742136420400,-1.09557958984375,9.647211074829102,-0.05278022587299347,-1.760372281074524
1765542742146460700,-1.085539306640625,9.647197723388672,-0.05629482865333557,-1.7603403329849243
1765542742156470500,-1.075529541015625,9.647527694702148,-0.058744706213474274,-1.7584518194198608
1765542742166510800,-1.0654892578125,9.64759349822998,-0.05891771614551544,-1.758082628250122
1765542742176520400,-1.0554794921875,9.647882461547852,-0.053739774972200394,-1.7566652297973633
1765542742186530300,-1.0454697265625,9.648083686828613,-0.049581222236156464,-1.755677342414856
1765542742196509400,-1.035490478515625,9.648250579833984,-0.04526999592781067,-1.754879355430603
1765542742226569500,-1.005430419921875,9.648763656616211,-0.0428885743021965,-1.7521169185638428
1765542742296576800,-0.93542333984375,9.65139102935791,-0.03461015224456787,-1.7377716302871704
1765542742307586600,-0.924413330078125,9.65173625946045,-0.0346788614988327,-1.7358511686325073
1765542742317596200,-0.91440380859375,9.652105331420898,-0.03097890317440033,-1.733867883682251
1765542742337646300,-0.894353759765625,9.65269947052002,-0.0217275470495224,-1.7306963205337524
1765542742367706000,-0.8642939453125,9.652141571044922,0.026080435141921043,-1.733742117881775
1765542742377777000,-0.85422314453125,9.652356147766113,0.026324374601244926,-1.7325459718704224
1765542742387786800,-0.844213134765625,9.652642250061035,0.026030059903860092,-1.7309554815292358
1765542742397796400,-0.83420361328125,9.65290641784668,0.025216998532414436,-1.7294944524765015
1765542742407806200,-0.82419384765625,9.652975082397461,0.025754498317837715,-1.7291009426116943
1765542742417785300,-0.814214599609375,9.652998924255371,0.025898486375808716,-1.728965401649475
1765542742437805000,-0.79419482421875,9.652572631835938,0.029545405879616737,-1.7312864065170288
1765542742447814700,-0.784185302734375,9.652389526367188,0.032059572637081146,-1.7322638034820557
1765542742457794000,-0.7742060546875,9.652290344238281,0.036762308329343796,-1.732722520828247
1765542742467803600,-0.7641962890625,9.652454376220703,0.0381421260535717,-1.7317782640457153
1765542742477813500,-0.7541865234375,9.652592658996582,0.034829024225473404,-1.7310796976089478
1765542742487823400,-0.7441767578125,9.652851104736328,0.030296139419078827,-1.729720115661621
1765542742497863700,-0.73413623046875,9.653426170349121,0.028925426304340363,-1.726531982421875
1765542742507873300,-0.724126708984375,9.653435707092285,0.03105856478214264,-1.726441502571106
1765542742517883100,-0.714116943359375,9.653351783752441,0.032568976283073425,-1.7268850803375244
1765542742557891600,-0.6741083984375,9.652573585510254,0.03373239189386368,-1.731207013130188
1765542742567901400,-0.6640986328125,9.652511596679688,0.03249446675181389,-1.7315772771835327
1765542742577850000,-0.65414990234375,9.65259838104248,0.029314782470464706,-1.7311487197875977
1765542742587860000,-0.64414013671875,9.652772903442383,0.023314349353313446,-1.7302669286727905
1765542742597839000,-0.634160888671875,9.653024673461914,0.013585244305431843,-1.7289668321609497
1765542742607849000,-0.624151123046875,9.653120994567871,0.004250852856785059,-1.7284737825393677
1765542742617858600,-0.614141357421875,9.653205871582031,-0.00011185417679371312,-1.7280045747756958
1765542742627868400,-0.604131591796875,9.65310001373291,-0.004060227889567614,-1.7285922765731812
1765542742667907600,-0.564092529296875,9.651430130004883,-0.006592359393835068,-1.737885594367981
1765542742677917200,-0.554082763671875,9.650806427001953,-0.0020663957111537457,-1.7413570880889893
1765542742687927000,-0.544072998046875,9.650272369384766,-0.0016333452658727765,-1.7443137168884277
1765542742697937000,-0.53406298828125,9.649870872497559,-0.003681843401864171,-1.746530532836914
1765542742707946500,-0.524053466796875,9.649514198303223,-0.009185430593788624,-1.7484780550003052
1765542742717956400,-0.514043701171875,9.649311065673828,-0.017444955185055733,-1.749535322189331
1765542742727966200,-0.50403369140625,9.648727416992188,-0.02306767739355564,-1.7526880502700806
1765542742737975800,-0.494024169921875,9.648104667663574,-0.02474631927907467,-1.7560911178588867
1765542742757995300,-0.474004638671875,9.6445951461792,-0.01637442596256733,-1.7753605842590332
1765542742768005000,-0.463994873046875,9.640837669372559,-0.0020886289421468973,-1.7957271337509155
1765542742778015000,-0.453985107421875,9.638204574584961,0.00009385743760503829,-1.8098064661026
1765542742788024600,-0.443975341796875,9.635753631591797,0.009685486555099487,-1.8227850198745728
1765542742798034400,-0.433965576171875,9.635062217712402,0.012460802681744099,-1.8264212608337402
1765542742808074800,-0.42392529296875,9.634964942932129,0.005593638867139816,-1.8269658088684082
1765542742818115000,-0.413885009765625,9.634278297424316,-0.0039870054461061954,-1.8305861949920654
1765542742828124700,-0.403875244140625,9.633817672729492,-0.018320269882678986,-1.832923412322998
1765542742848144400,-0.383855712890625,9.631668090820312,-0.031108584254980087,-1.8440163135528564
1765542742868163800,-0.363836181640625,9.628602027893066,-0.05859769508242607,-1.8592969179153442
1765542742878173700,-0.353826416015625,9.626855850219727,-0.06876695901155472,-1.8679664134979248
1765542742888183300,-0.343816650390625,9.627476692199707,-0.07634248584508896,-1.8644700050354004
1765542742898132200,-0.33386767578125,9.629022598266602,-0.08482455462217331,-1.8561028242111206
1765542742908141800,-0.323858154296875,9.630627632141113,-0.10233055800199509,-1.8468691110610962
1765542742918151700,-0.313848388671875,9.631126403808594,-0.11557459831237793,-1.843485713005066
1765542742928192000,-0.30380810546875,9.631142616271973,-0.13585273921489716,-1.8420183658599854
1765542742938201600,-0.29379833984375,9.631810188293457,-0.14926186203956604,-1.8374813795089722
1765542742948181000,-0.283819091796875,9.633241653442383,-0.16378560662269592,-1.828721284866333
1765542742988220000,-0.243780029296875,9.635353088378906,-0.22990922629833221,-1.8103859424591064
1765542743008270000,-0.22372998046875,9.636237144470215,-0.27326101064682007,-1.799620270729065
1765542743018280000,-0.213719970703125,9.636659622192383,-0.287551611661911,-1.7951273918151855
1765542743028289500,-0.20371044921875,9.636703491210938,-0.2969644367694855,-1.7933586835861206
1765542743038269000,-0.19373095703125,9.636889457702637,-0.30053120851516724,-1.7917636632919312
1765542743048278500,-0.183721435546875,9.635584831237793,-0.310794472694397,-1.797025203704834
1765542743058288400,-0.173711669921875,9.63454532623291,-0.3219408094882965,-1.8006305694580078
1765542743068328700,-0.16367138671875,9.63390827178955,-0.331992506980896,-1.8022146224975586
1765542743078338300,-0.15366162109375,9.63283920288086,-0.3490961790084839,-1.8046983480453491
1765542743098358000,-0.13364208984375,9.632884979248047,-0.36895936727523804,-1.8004933595657349
1765542743108398300,-0.1236015625,9.63342571258545,-0.38902103900909424,-1.7933666706085205
1765542743118408000,-0.113592041015625,9.63461685180664,-0.4016914963722229,-1.7841514348983765
1765542743128448300,-0.1035517578125,9.636649131774902,-0.41242170333862305,-1.7706751823425293
1765542743138458000,-0.0935419921875,9.639297485351562,-0.4195682108402252,-1.7545071840286255
1765542743148467700,-0.0835322265625,9.642213821411133,-0.43350738286972046,-1.7349848747253418
1765542743158477600,-0.0735224609375,9.644121170043945,-0.4465733468532562,-1.7210155725479126
1765542743168487400,-0.0635126953125,9.650184631347656,-0.46705061197280884,-1.6811269521713257
1765542743178497000,-0.0535029296875,9.65450668334961,-0.48366132378578186,-1.6513500213623047
1765542743208526300,-0.0234736328125,9.662651062011719,-0.525181770324707,-1.5898905992507935
1765542743218536200,-0.0134638671875,9.665251731872559,-0.5377079248428345,-1.5697643756866455
1765542743228546000,-0.003453857421875,9.667440414428711,-0.5475139617919922,-1.5528059005737305
1765542743238555600,0.0065556640625,9.668112754821777,-0.5527510046958923,-1.5467501878738403
1765542743248565500,0.0165654296875,9.66826057434082,-0.5556533336639404,-1.5447885990142822
1765542743258575000,0.0265751953125,9.66892147064209,-0.5632349848747253,-1.5378918647766113
1765542743268615400,0.036615478515625,9.666982650756836,-0.5760205984115601,-1.5453249216079712
1765542743278594800,0.0465947265625,9.664901733398438,-0.5832810401916504,-1.5555895566940308
1765542743308624100,0.0766240234375,9.662394523620605,-0.5671299695968628,-1.5769867897033691
1765542743318603300,0.086603271484375,9.65951919555664,-0.5726096630096436,-1.5925427675247192
1765542743328613000,0.096613037109375,9.657365798950195,-0.573136568069458,-1.6053581237792969
1765542743338592300,0.10659228515625,9.656167984008789,-0.5663067102432251,-1.6149641275405884
1765542743348571600,0.116571533203125,9.655496597290039,-0.5537021160125732,-1.6233291625976562
1765542743358612000,0.126612060546875,9.654175758361816,-0.547665536403656,-1.6331994533538818
1765542743368621600,0.13662158203125,9.651308059692383,-0.542885959148407,-1.6516412496566772
1765542743378631400,0.14663134765625,9.648073196411133,-0.5463119745254517,-1.6693134307861328
1765542743388641000,0.15664111328125,9.645885467529297,-0.549981415271759,-1.680712342262268
1765542743438690000,0.20668994140625,9.62013053894043,-0.5882361531257629,-1.8103770017623901
1765542743448730400,0.21673046875,9.616110801696777,-0.5916669368743896,-1.8304996490478516
1765542743468719400,0.23671923828125,9.610662460327148,-0.5953505039215088,-1.857715368270874
1765542743478759400,0.246759521484375,9.607747077941895,-0.5926121473312378,-1.8736062049865723
1765542743488769300,0.256769287109375,9.605420112609863,-0.5873880386352539,-1.8871349096298218
1765542743498718000,0.266718017578125,9.603372573852539,-0.5829567909240723,-1.898889422416687
1765542743528778000,0.296778076171875,9.597949028015137,-0.5936083793640137,-1.9228593111038208
1765542743538757000,0.306757080078125,9.598005294799805,-0.5920818448066711,-1.9230499267578125
1765542743548767000,0.31676708984375,9.598103523254395,-0.5925914645195007,-1.9223994016647339
1765542743558807000,0.32680712890625,9.598715782165527,-0.5945526957511902,-1.9187387228012085
1765542743568786400,0.336786376953125,9.599178314208984,-0.5971611738204956,-1.915611982345581
1765542743578765600,0.346765625,9.600252151489258,-0.6006281971931458,-1.9091333150863647
1765542743588806000,0.356805908203125,9.600743293762207,-0.6054916381835938,-1.9051215648651123
1765542743598815700,0.366815673828125,9.601893424987793,-0.6061219573020935,-1.8991153240203857
1765542743628814600,0.396814697265625,9.607258796691895,-0.6091212630271912,-1.8708090782165527
1765542743638824200,0.40682421875,9.610251426696777,-0.6140823364257812,-1.853740930557251
1765542743648803600,0.416803466796875,9.6138277053833,-0.6132633686065674,-1.8353742361068726
1765542743658813200,0.426813232421875,9.617269515991211,-0.6112887263298035,-1.817922830581665
1765542743668823000,0.436822998046875,9.618988990783691,-0.6057000160217285,-1.8106809854507446
1765542743678833000,0.4468330078125,9.62045955657959,-0.5963124632835388,-1.8059788942337036
1765542743688842500,0.456842529296875,9.622486114501953,-0.5958033204078674,-1.7953171730041504
1765542743698852400,0.466852294921875,9.622735977172852,-0.5943428874015808,-1.7944611310958862
1765542743708862200,0.4768623046875,9.623456001281738,-0.5910897254943848,-1.791673183441162
1765542743738830300,0.506830322265625,9.627857208251953,-0.5903270840644836,-1.7681262493133545
1765542743748870700,0.51687060546875,9.629461288452148,-0.5901684761047363,-1.759419560432434
1765542743758880500,0.526880615234375,9.631146430969238,-0.590050220489502,-1.75021231174469
1765542743768890000,0.53689013671875,9.6322660446167,-0.5912571549415588,-1.74363374710083
1765542743778900000,0.54689990234375,9.63387680053711,-0.5924901366233826,-1.7342872619628906
1765542743788909800,0.556909912109375,9.634628295898438,-0.59012770652771,-1.730918049812317
1765542743808959700,0.576959716796875,9.638463020324707,-0.5843200087547302,-1.7114291191101074
1765542743818969600,0.586969482421875,9.639238357543945,-0.5882814526557922,-1.7056957483291626
1765542743848937700,0.616937744140625,9.645318984985352,-0.5796443819999695,-1.6739811897277832
1765542743858917000,0.626917236328125,9.64620590209961,-0.5766109228134155,-1.6699159145355225
1765542743878936600,0.6469365234375,9.647360801696777,-0.5783944725990295,-1.662614107131958
1765542743888977000,0.656976806640625,9.647775650024414,-0.5737147331237793,-1.66182541847229
1765542743898986500,0.666986572265625,9.648987770080566,-0.5642198324203491,-1.6580350399017334
1765542743909026800,0.67702685546875,9.650552749633789,-0.5548058152198792,-1.6520932912826538
1765542743919036700,0.68703662109375,9.650988578796387,-0.5471541285514832,-1.6520991325378418
1765542743949096400,0.717096435546875,9.650517463684082,-0.49573642015457153,-1.6709691286087036
1765542743959106300,0.727106201171875,9.6498384475708,-0.4899376332759857,-1.6765902042388916
1765542743969085400,0.73708544921875,9.647956848144531,-0.5012959241867065,-1.6840513944625854
1765542743979095300,0.74709521484375,9.647016525268555,-0.5067673325538635,-1.6877918243408203
1765542743989105000,0.75710498046875,9.646084785461426,-0.5042364597320557,-1.6938652992248535
1765542743999114800,0.76711474609375,9.64583683013916,-0.5010448098182678,-1.6962227821350098
1765542744009124600,0.77712451171875,9.644558906555176,-0.4964766800403595,-1.704808235168457
1765542744029113600,0.797113525390625,9.641206741333008,-0.505805253982544,-1.7209527492523193
1765542744049133000,0.817133056640625,9.63806438446045,-0.49878832697868347,-1.7404922246932983
1765542744069061000,0.83706103515625,9.637636184692383,-0.476535826921463,-1.7490779161453247
1765542744079101400,0.847101318359375,9.637271881103516,-0.47073450684547424,-1.7526527643203735
1765542744089141500,0.8571416015625,9.6367769241333,-0.46632280945777893,-1.7565476894378662
1765542744099151400,0.8671513671875,9.636014938354492,-0.47244641184806824,-1.7590913772583008
1765542744109161200,0.8771611328125,9.635183334350586,-0.4745512902736664,-1.7630773782730103
1765542744119170800,0.8871708984375,9.635390281677246,-0.4719158411026001,-1.762649416923523
1765542744129180700,0.8971806640625,9.635988235473633,-0.4697902202606201,-1.7599488496780396
1765542744159179500,0.927179443359375,9.634505271911621,-0.45401713252067566,-1.7721612453460693
1765542744179199000,0.947198974609375,9.63257884979248,-0.44127875566482544,-1.7857986688613892
1765542744189208800,0.957208740234375,9.630304336547852,-0.4406386613845825,-1.7981829643249512
1765542744199218400,0.967218505859375,9.629563331604004,-0.44694721698760986,-1.8005934953689575
1765542744209228300,0.977228271484375,9.628212928771973,-0.4517490267753601,-1.806607723236084
1765542744219238100,0.987238037109375,9.62728214263916,-0.4559219777584076,-1.8105136156082153
1765542744229278500,0.997278564453125,9.626672744750977,-0.4547642469406128,-1.8140406608581543
1765542744239257600,1.007257568359375,9.625847816467285,-0.4525335431098938,-1.818969488143921
1765542744269317400,1.0373173828125,9.622330665588379,-0.4506533145904541,-1.8379502296447754
1765542744289336800,1.0573369140625,9.620052337646484,-0.44177815318107605,-1.8519777059555054
1765542744299346700,1.0673466796875,9.619681358337402,-0.4410109519958496,-1.8540834188461304
1765542744309356500,1.0773564453125,9.618916511535645,-0.44561368227005005,-1.8569492101669312
1765542744319396900,1.08739697265625,9.618247985839844,-0.44923797249794006,-1.8595376014709473
1765542744329437000,1.09743701171875,9.617700576782227,-0.45288771390914917,-1.8614839315414429
1765542744339446800,1.10744677734375,9.617230415344238,-0.4552774727344513,-1.8633300065994263
1765542744349456600,1.11745654296875,9.617166519165039,-0.4549654722213745,-1.8637343645095825
1765542744389526300,1.1575263671875,9.615803718566895,-0.4775385856628418,-1.8651177883148193
1765542744399535900,1.167535888671875,9.615753173828125,-0.48354512453079224,-1.8638306856155396
1765542744409545700,1.177545654296875,9.615957260131836,-0.4916580021381378,-1.8606525659561157
1765542744419586000,1.1875859375,9.615540504455566,-0.48908233642578125,-1.8634840250015259
1765542744429595600,1.197595703125,9.616494178771973,-0.4805121123790741,-1.860789179801941
1765542744439605500,1.20760546875,9.616642951965332,-0.4717211425304413,-1.8622721433639526
1765542744449615400,1.217615478515625,9.616891860961914,-0.46366754174232483,-1.8630058765411377
1765542744459625000,1.227625,9.617080688476562,-0.46102234721183777,-1.8626866340637207
1765542744479614000,1.247614013671875,9.617961883544922,-0.45066237449645996,-1.8606714010238647
1765542744489623800,1.257623779296875,9.61826229095459,-0.45065638422966003,-1.8591214418411255
1765542744499633700,1.267633544921875,9.617950439453125,-0.4522804319858551,-1.8603379726409912
1765542744509612800,1.27761279296875,9.61847972869873,-0.44885748624801636,-1.8584297895431519
1765542744519653000,1.287653076171875,9.61925220489502,-0.43863213062286377,-1.856871485710144
1765542744529663000,1.2976630859375,9.618831634521484,-0.43212634325027466,-1.8605735301971436
1765542744539672600,1.307672607421875,9.618696212768555,-0.4274134337902069,-1.8623605966567993
1765542744549682400,1.317682373046875,9.619318962097168,-0.4228346049785614,-1.8601882457733154
1765542744559692300,1.3276923828125,9.619495391845703,-0.42870253324508667,-1.857934594154358
1765542744589721300,1.357721435546875,9.623016357421875,-0.4394210875034332,-1.8370802402496338
1765542744599731200,1.367731201171875,9.624651908874512,-0.43652650713920593,-1.8291844129562378
1765542744609741000,1.377740966796875,9.625205993652344,-0.43984678387641907,-1.8254692554473877
1765542744619750700,1.387750732421875,9.625248908996582,-0.4508856236934662,-1.8225444555282593
1765542744629760500,1.397760498046875,9.625602722167969,-0.45795688033103943,-1.8189092874526978
1765542744639770400,1.407770263671875,9.627622604370117,-0.44867199659347534,-1.8105124235153198
1765542744649749500,1.41774951171875,9.629454612731934,-0.4383590519428253,-1.8032827377319336
1765542744659729000,1.42772900390625,9.630309104919434,-0.4363982081413269,-1.7991920709609985
1765542744669769000,1.43776904296875,9.631743431091309,-0.4367380440235138,-1.791415810585022
1765542744699767800,1.467767822265625,9.637858390808105,-0.4401909410953522,-1.7573580741882324
1765542744709777700,1.477777587890625,9.638537406921387,-0.45029309391975403,-1.7510658502578735
1765542744719756800,1.4877568359375,9.6390962600708,-0.45365676283836365,-1.7471117973327637
1765542744729797000,1.497797119140625,9.639485359191895,-0.4581877589225769,-1.7437785863876343
1765542744749816600,1.517816650390625,9.636849403381348,-0.4694719612598419,-1.7553120851516724
1765542744759796000,1.5277958984375,9.637075424194336,-0.47028830647468567,-1.7538478374481201
1765542744769805600,1.5378056640625,9.637236595153809,-0.47415781021118164,-1.7519221305847168
1765542744779785000,1.547784912109375,9.636771202087402,-0.4771617352962494,-1.7536678314208984
1765542744819854600,1.5878544921875,9.63534164428711,-0.4987487196922302,-1.7555121183395386
1765542744829864200,1.5978642578125,9.635435104370117,-0.4952832758426666,-1.755981206893921
1765542744839874000,1.6078740234375,9.63564395904541,-0.4862443208694458,-1.7573657035827637
1765542744849884000,1.6178837890625,9.636202812194824,-0.48425379395484924,-1.7548452615737915
1765542744859893500,1.6278935546875,9.63606071472168,-0.48002809286117554,-1.75678288936615
1765542744869903400,1.6379033203125,9.636250495910645,-0.47694122791290283,-1.7565815448760986
1765542744879913200,1.647913330078125,9.636125564575195,-0.47685354948043823,-1.757297396659851
1765542744909973000,1.677972900390625,9.63667106628418,-0.4753272831439972,-1.7547165155410767
1765542744919982600,1.687982666015625,9.637109756469727,-0.4714299142360687,-1.7533550262451172
1765542744940032800,1.70803271484375,9.637907028198242,-0.46158021688461304,-1.751591444015503
1765542744950042600,1.718042724609375,9.637526512145996,-0.45998504757881165,-1.7541033029556274
1765542744960052200,1.72805224609375,9.637253761291504,-0.4581308662891388,-1.756087303161621
1765542744970092500,1.738092529296875,9.636445999145508,-0.4602581560611725,-1.759962797164917
1765542744980102400,1.748102294921875,9.635086059570312,-0.45963841676712036,-1.767551064491272
1765542744990112000,1.758112060546875,9.633784294128418,-0.45931342244148254,-1.7747173309326172
1765542745020141300,1.788141357421875,9.632328033447266,-0.4689534306526184,-1.7800917625427246
1765542745030181600,1.798181640625,9.63290786743164,-0.47442689538002014,-1.7754944562911987
1765542745040161000,1.8081611328125,9.634254455566406,-0.48234865069389343,-1.7660322189331055
1765542745050201000,1.818201171875,9.634688377380371,-0.48844367265701294,-1.7619872093200684
1765542745060241400,1.828241455078125,9.635358810424805,-0.48673248291015625,-1.7587900161743164
1765542745070281700,1.83828173828125,9.636019706726074,-0.48573148250579834,-1.7554409503936768
1765542745080291600,1.84829150390625,9.63597583770752,-0.49078696966171265,-1.7542787790298462
1765542745090301200,1.85830126953125,9.63526725769043,-0.5010803937911987,-1.7552582025527954
1765542745100280600,1.868280517578125,9.635224342346191,-0.5026319622993469,-1.7550514936447144
1765542745130310000,1.898309814453125,9.635432243347168,-0.5013346076011658,-1.7542797327041626
1765542745140319500,1.908319580078125,9.635068893432617,-0.500657856464386,-1.7564681768417358
1765542745150329300,1.918329345703125,9.635014533996582,-0.499228835105896,-1.7571748495101929
1765542745160308700,1.928308837890625,9.633231163024902,-0.5011182427406311,-1.7663882970809937
1765542745180328200,1.948328125,9.631194114685059,-0.49933794140815735,-1.7779662609100342
1765542745190368500,1.958368408203125,9.630501747131348,-0.49761393666267395,-1.782191514968872
1765542745200378000,1.968378173828125,9.630047798156738,-0.4979729950428009,-1.7845431566238403
1765542745240417300,2.008417236328125,9.630399703979492,-0.48282328248023987,-1.786804437637329
1765542745250427100,2.01842724609375,9.630614280700684,-0.48273760080337524,-1.785670518875122
1765542745260436700,2.028436767578125,9.630267143249512,-0.48579514026641846,-1.7867145538330078
1765542745270416100,2.038416015625,9.629996299743652,-0.4855009913444519,-1.7882521152496338
1765542745280425700,2.04842578125,9.630302429199219,-0.47924095392227173,-1.7882885932922363
1765542745290435600,2.058435546875,9.630404472351074,-0.48152029514312744,-1.7871320247650146
1765542745300414700,2.068414794921875,9.629714965820312,-0.4883561432361603,-1.7889893054962158
1765542745320434400,2.088434326171875,9.630313873291016,-0.49537038803100586,-1.7838317155838013
1765542745350433000,2.11843310546875,9.634336471557617,-0.4860553741455078,-1.7645686864852905
1765542745360412400,2.128412353515625,9.634346008300781,-0.4931168556213379,-1.7625564336776733
1765542745370452700,2.13845263671875,9.635074615478516,-0.4967089891433716,-1.757556676864624
1765542745380493000,2.1484931640625,9.635571479797363,-0.4971913993358612,-1.7546931505203247
1765542745390502700,2.158502685546875,9.636137962341309,-0.49337607622146606,-1.752655267715454
1765542745400512500,2.168512451171875,9.637203216552734,-0.4840395152568817,-1.7494031190872192
1765542745410522400,2.1785224609375,9.638015747070312,-0.48088538646698,-1.7457876205444336
1765542745430480600,2.198480712890625,9.638442039489746,-0.4856967031955719,-1.7420995235443115
1765542745460510000,2.228510009765625,9.638558387756348,-0.49405965209007263,-1.7391029596328735
1765542745470519800,2.238519775390625,9.63912582397461,-0.499647855758667,-1.7343555688858032
1765542745480499000,2.2484990234375,9.639761924743652,-0.5010743141174316,-1.7304084300994873
1765542745490508800,2.2585087890625,9.640161514282227,-0.5014485716819763,-1.7280693054199219
1765542745500549000,2.268549072265625,9.640257835388184,-0.4972441494464874,-1.7287473678588867
1765542745510559000,2.27855908203125,9.640161514282227,-0.49233874678611755,-1.7306878566741943
1765542745520568600,2.288568603515625,9.64014720916748,-0.49302661418914795,-1.730569839477539
1765542745540618800,2.30861865234375,9.63936710357666,-0.49654069542884827,-1.7339067459106445
1765542745570678500,2.338678466796875,9.639632225036621,-0.4725055694580078,-1.7391395568847656
1765542745580657700,2.34865771484375,9.639591217041016,-0.46857181191444397,-1.740431547164917
1765542745590698000,2.358697998046875,9.639050483703613,-0.470798134803772,-1.742823600769043
1765542745600707800,2.368707763671875,9.638574600219727,-0.47103822231292725,-1.7453935146331787
1765542745610717400,2.378717529296875,9.638669967651367,-0.46780574321746826,-1.7457351684570312
1765542745620696800,2.38869677734375,9.638895988464355,-0.46251511573791504,-1.745895504951477
1765542745630706700,2.398706787109375,9.639086723327637,-0.4611150026321411,-1.745214819908142
1765542745660705300,2.428705322265625,9.639117240905762,-0.45794540643692017,-1.7458809614181519
1765542745670684700,2.4386845703125,9.638543128967285,-0.4581557512283325,-1.748993992805481
1765542745680725000,2.44872509765625,9.63852310180664,-0.45389682054519653,-1.750209927558899
1765542745690765000,2.45876513671875,9.635856628417969,-0.44434866309165955,-1.7672609090805054
1765542745700775000,2.46877490234375,9.633273124694824,-0.4441646337509155,-1.7813336849212646
1765542745710815200,2.478815185546875,9.63226318359375,-0.4461776912212372,-1.7862858772277832
1765542745720825000,2.4888251953125,9.631694793701172,-0.4493052661418915,-1.7885679006576538
1765542745730834700,2.498834716796875,9.631916999816895,-0.44682323932647705,-1.7879934310913086
1765542745760833500,2.52883349609375,9.633979797363281,-0.4667913317680359,-1.7717000246047974
1765542745770843400,2.538843505859375,9.634611129760742,-0.46720775961875916,-1.7681549787521362
1765542745780822500,2.548822509765625,9.635424613952637,-0.4580226540565491,-1.7661212682724
1765542745790801700,2.5588017578125,9.637602806091309,-0.44888055324554443,-1.7565633058547974
1765542745800811500,2.5688115234375,9.637539863586426,-0.4471086263656616,-1.7573587894439697
1765542745810821400,2.5788212890625,9.63700008392334,-0.45043855905532837,-1.7594656944274902
1765542745820831000,2.5888310546875,9.636467933654785,-0.4528570771217346,-1.7617589235305786
1765542745830840800,2.5988408203125,9.635181427001953,-0.4548676311969757,-1.768265962600708
1765542745840820200,2.6088203125,9.634977340698242,-0.45655128359794617,-1.768943428993225
1765542745860839700,2.628839599609375,9.634923934936523,-0.4557410180568695,-1.7694416046142578
1765542745890869000,2.658868896484375,9.636260986328125,-0.47323077917099,-1.7575325965881348
1765542745900909300,2.668909423828125,9.637218475341797,-0.4758176803588867,-1.7515711784362793
1765542745910919000,2.6789189453125,9.637734413146973,-0.47727686166763306,-1.7483352422714233
1765542745920928800,2.6889287109375,9.638134002685547,-0.47313472628593445,-1.747260570526123
1765542745930969000,2.698968994140625,9.638957023620605,-0.475860059261322,-1.7419638633728027
1765542745940978700,2.708978759765625,9.638487815856934,-0.4828086495399475,-1.742652416229248
1765542745950988500,2.718988525390625,9.638851165771484,-0.4931890368461609,-1.7377301454544067
1765542745980987400,2.7489873046875,9.641060829162598,-0.4963482618331909,-1.724519968032837
1765542745990997000,2.7589970703125,9.641969680786133,-0.49395278096199036,-1.7201179265975952
1765542746001006800,2.7690068359375,9.64224910736084,-0.49699631333351135,-1.7176786661148071
1765542746021057000,2.78905712890625,9.642691612243652,-0.4975142180919647,-1.7150444984436035
1765542746031066600,2.799066650390625,9.643356323242188,-0.4926955997943878,-1.7126928567886353
1765542746041046000,2.8090458984375,9.643645286560059,-0.4935908913612366,-1.7108103036880493
1765542746051086300,2.81908642578125,9.643230438232422,-0.4999922215938568,-1.7112871408462524
1765542746071105800,2.839105712890625,9.64343547821045,-0.503445029258728,-1.7091175317764282
1765542746081115400,2.849115478515625,9.642860412597656,-0.5044215321540833,-1.712070345878601
1765542746091125200,2.859125244140625,9.642822265625,-0.5044318437576294,-1.7122820615768433
1765542746101135000,2.869135009765625,9.642972946166992,-0.5042423605918884,-1.7114901542663574
1765542746121154600,2.889154541015625,9.642666816711426,-0.5090627074241638,-1.7117878198623657
1765542746131164400,2.899164306640625,9.642251968383789,-0.5115264058113098,-1.7133896350860596
1765542746141174000,2.909174072265625,9.642024993896484,-0.5102323889732361,-1.7150521278381348
1765542746151184000,2.919183837890625,9.642374038696289,-0.5038256645202637,-1.7149840593338013
1765542746161193700,2.92919384765625,9.642449378967285,-0.4970335364341736,-1.7165390253067017
1765542746181182700,2.9491826171875,9.640911102294922,-0.4983859062194824,-1.7247685194015503
1765542746191192300,2.9591923828125,9.64056396484375,-0.5024126172065735,-1.7255438566207886
1765542746201202200,2.9692021484375,9.64061450958252,-0.5029140710830688,-1.725113034248352
1765542746211212000,2.9792119140625,9.640950202941895,-0.5033885836601257,-1.723099946975708
1765542746221252400,2.98925244140625,9.64120864868164,-0.5016822814941406,-1.722149133682251
1765542746231262000,2.999261962890625,9.640737533569336,-0.5073034167289734,-1.7231422662734985
1765542746241241300,3.009241455078125,9.639974594116211,-0.5145801901817322,-1.7252470254898071
1765542746251281400,3.019281494140625,9.63931655883789,-0.5156511664390564,-1.7286030054092407
1765542746271270700,3.039270751953125,9.638946533203125,-0.5076553225517273,-1.7330281734466553
1765542746291290000,3.0592900390625,9.638309478759766,-0.5059762001037598,-1.7370555400848389
1765542746301299700,3.0692998046875,9.638242721557617,-0.5051648020744324,-1.7376625537872314
1765542746311309600,3.0793095703125,9.63762092590332,-0.5031387805938721,-1.741694688796997
1765542746321350000,3.089349853515625,9.636735916137695,-0.5090638995170593,-1.7448711395263672
1765542746331390200,3.09939013671875,9.636202812194824,-0.515533983707428,-1.7459123134613037
1765542746341399800,3.10939990234375,9.635884284973145,-0.5174057483673096,-1.747114658355713
1765542746351409700,3.11940966796875,9.63673210144043,-0.5164578557014465,-1.7427128553390503
1765542746361450000,3.129449951171875,9.636609077453613,-0.5135785937309265,-1.7442443370819092
1765542746371429000,3.13942919921875,9.636856079101562,-0.5156124830245972,-1.7422822713851929
1765542746381439000,3.14943896484375,9.637065887451172,-0.5153427720069885,-1.741196632385254
1765542746401458400,3.16945849609375,9.636956214904785,-0.5196335315704346,-1.7405271530151367
1765542746421478100,3.18947802734375,9.63770580291748,-0.518446147441864,-1.7367298603057861
1765542746441497600,3.20949755859375,9.637523651123047,-0.5219013690948486,-1.736703872680664
1765542746451476700,3.219476806640625,9.637412071228027,-0.5213555693626404,-1.7374919652938843
1765542746461517000,3.22951708984375,9.637554168701172,-0.5168536901473999,-1.738047480583191
1765542746471527000,3.23952685546875,9.63786792755127,-0.5151104927062988,-1.7368186712265015
1765542746481536800,3.249536865234375,9.637554168701172,-0.517528772354126,-1.7378445863723755
1765542746511535400,3.279535400390625,9.63877010345459,-0.536628782749176,-1.7252585887908936
1765542746521545200,3.289545166015625,9.639867782592773,-0.5403604507446289,-1.7179495096206665
1765542746531555000,3.29955517578125,9.640989303588867,-0.543347954750061,-1.7106932401657104
1765542746541564700,3.309564697265625,9.64152717590332,-0.5473870038986206,-1.7063716650009155
1765542746551605000,3.31960498046875,9.642765998840332,-0.5493523478507996,-1.6987228393554688
1765542746561614800,3.32961474609375,9.643922805786133,-0.55081707239151,-1.6916710138320923
1765542746571594000,3.339593994140625,9.645418167114258,-0.5557615160942078,-1.6814950704574585
1765542746581603800,3.349603759765625,9.6455659866333,-0.5540926456451416,-1.6811968088150024
1765542746601562400,3.369562255859375,9.646921157836914,-0.54989093542099,-1.6747868061065674
1765542746621551400,3.38955126953125,9.646512031555176,-0.5663080811500549,-1.6716758012771606
1765542746631561000,3.39956103515625,9.645702362060547,-0.5777375102043152,-1.6724365949630737
1765542746641570800,3.40957080078125,9.645647048950195,-0.5861312747001648,-1.6698296070098877
1765542746651611100,3.419611083984375,9.645918846130371,-0.5911333560943604,-1.6664912700653076
1765542746661621000,3.42962109375,9.646647453308105,-0.5954977869987488,-1.6607078313827515
1765542746671600000,3.43960009765625,9.64747142791748,-0.5999913811683655,-1.654294729232788
1765542746681610000,3.44960986328125,9.648112297058105,-0.5985851287841797,-1.6510658264160156
1765542746691619600,3.45961962890625,9.648953437805176,-0.6048455238342285,-1.6438477039337158
1765542746701629400,3.46962939453125,9.649523735046387,-0.6137507557868958,-1.6371897459030151
1765542746711608600,3.479608642578125,9.649639129638672,-0.6215619444847107,-1.6335558891296387
1765542746721618400,3.489618408203125,9.650129318237305,-0.6229420304298401,-1.630133867263794
1765542746731628300,3.499628173828125,9.65070629119873,-0.6234289407730103,-1.6265259981155396
1765542746741638000,3.509637939453125,9.651264190673828,-0.6237179040908813,-1.6231017112731934
1765542746751647700,3.519647705078125,9.651727676391602,-0.6231343150138855,-1.6205697059631348
1765542746761657600,3.52965771484375,9.651653289794922,-0.6264750361442566,-1.6197258234024048
1765542746771667200,3.539667236328125,9.651612281799316,-0.6318219900131226,-1.6178922653198242
1765542746781677000,3.549677001953125,9.651422500610352,-0.6340996623039246,-1.618133544921875
1765542746821746700,3.58974658203125,9.651847839355469,-0.6121608018875122,-1.6240289211273193
1765542746831756300,3.59975634765625,9.651487350463867,-0.6031267642974854,-1.6295421123504639
1765542746841735700,3.609735595703125,9.651779174804688,-0.5906830430030823,-1.6323716640472412
1765542746851776000,3.61977587890625,9.650619506835938,-0.5788784623146057,-1.6434252262115479
1765542746861755100,3.629755126953125,9.649820327758789,-0.571683943271637,-1.6506174802780151
1765542746871765000,3.639764892578125,9.648493766784668,-0.5792418122291565,-1.655729055404663
1765542746881774600,3.649774658203125,9.646774291992188,-0.5954307317733765,-1.6599959135055542
1765542746891784400,3.659784423828125,9.645172119140625,-0.5998443961143494,-1.6677035093307495
1765542746921813800,3.689813720703125,9.645859718322754,-0.6023628115653992,-1.6628119945526123
1765542746931854000,3.69985400390625,9.644905090332031,-0.6070883274078369,-1.666624903678894
1765542746951843000,3.719843017578125,9.644301414489746,-0.6022186875343323,-1.6718755960464478
1765542746961822200,3.729822265625,9.64365005493164,-0.5976560115814209,-1.6772642135620117
1765542746971862500,3.739862548828125,9.642942428588867,-0.5984306335449219,-1.6810506582260132
1765542746981842000,3.749842041015625,9.6419677734375,-0.6019465923309326,-1.6853810548782349
1765542746991851500,3.7598515625,9.641254425048828,-0.6039949059486389,-1.6887257099151611
1765542747001831000,3.769830810546875,9.641268730163574,-0.6042283177375793,-1.688555359840393
1765542747051818800,3.81981884765625,9.642295837402344,-0.6419854164123535,-1.668648600578308
1765542747061828400,3.829828369140625,9.642050743103027,-0.656786322593689,-1.66429603099823
1765542747071807700,3.839807861328125,9.641718864440918,-0.6577736139297485,-1.6658258438110352
1765542747081847800,3.849847900390625,9.641855239868164,-0.6985078454017639,-1.6483614444732666
1765542747091857700,3.859857666015625,9.640517234802246,-0.6984143853187561,-1.6562100648880005
1765542747101867500,3.869867431640625,9.6393461227417,-0.7745649218559265,-1.6289427280426025
1765542747131957800,3.899957763671875,9.628036499023438,-1.020750880241394,-1.5586434602737427
1765542747141937200,3.909937255859375,9.623815536499023,-1.0790863037109375,-1.5453569889068604
1765542747151946800,3.91994677734375,9.604823112487793,-1.310509443283081,-1.4833498001098633
1765542747161956600,3.92995654296875,9.588638305664062,-1.4273759126663208,-1.48020601272583
1765542747171966500,3.939966552734375,9.551981925964355,-1.7132991552352905,-1.4123167991638184
1765542747181976000,3.94997607421875,9.52245044708252,-1.906958818435669,-1.362655758857727
1765542747191986000,3.95998583984375,9.490854263305664,-2.0956270694732666,-1.3047683238983154
1765542747201995500,3.96999560546875,9.454954147338867,-2.2843587398529053,-1.2473719120025635
1765542747231994400,3.999994384765625,9.34903335571289,-2.747584581375122,-1.1030571460723877
1765542747242004200,4.010004150390625,9.262968063354492,-3.0561835765838623,-1.0136839151382446
1765542747252013800,4.020013916015625,9.178791046142578,-3.315261125564575,-0.9639620780944824
1765542747262023700,4.030023681640625,9.12964153289795,-3.454655408859253,-0.9409545063972473
1765542747272003000,4.040003173828125,9.017744064331055,-3.756978750228882,-0.8577879071235657
1765542747282043100,4.050043212890625,8.978455543518066,-3.8580431938171387,-0.8205030560493469
1765542747292083500,4.06008349609375,8.911861419677734,-4.030166149139404,-0.7119477987289429
1765542747302123800,4.070123779296875,8.891340255737305,-4.082261085510254,-0.6705197095870972
1765542747312164000,4.0801640625,8.853657722473145,-4.172296047210693,-0.6124337911605835
1765542747342224000,4.110223876953125,8.692986488342285,-4.5143280029296875,-0.47244396805763245
1765542747352203300,4.120203369140625,8.590985298156738,-4.709001541137695,-0.4366462528705597
1765542747372253200,4.140253173828125,8.305166244506836,-5.1993021965026855,-0.40232619643211365
1765542747382232600,4.150232666015625,8.250309944152832,-5.287535190582275,-0.38045960664749146
1765542747392242200,4.1602421875,8.235633850097656,-5.312779903411865,-0.345109760761261
1765542747402252000,4.170251953125,8.259786605834961,-5.277193546295166,-0.3123253285884857
1765542747412261600,4.18026171875,8.282515525817871,-5.242891311645508,-0.2870942950248718
1765542747442291000,4.210291015625,8.17717456817627,-5.407993316650391,-0.24044162034988403
1765542747452300800,4.22030078125,8.083358764648438,-5.54818058013916,-0.21767617762088776
1765542747462341000,4.230341064453125,7.9608073234558105,-5.723606109619141,-0.19044797122478485
1765542747472320300,4.2403203125,7.890045642852783,-5.821209907531738,-0.17634499073028564
1765542747482360600,4.250360595703125,7.628787040710449,-6.160796165466309,-0.12877404689788818
1765542747492340000,4.260340087890625,7.417672157287598,-6.413984298706055,-0.09660904854536057
1765542747502349600,4.270349609375,7.304023742675781,-6.543304920196533,-0.08244988322257996
1765542747512359400,4.280359375,7.093899250030518,-6.770839214324951,-0.05211684852838516
1765542747522369300,4.290369384765625,6.874341011047363,-6.993803977966309,-0.023076340556144714
1765542747542358300,4.310358154296875,6.1702775955200195,-7.622026443481445,0.052711453288793564
1765542747552367900,4.320367919921875,5.784850120544434,-7.91827917098999,0.0822993665933609
1765542747562347300,4.33034716796875,5.554854869842529,-8.081101417541504,0.09888911992311478
1765542747572356900,4.34035693359375,5.000998020172119,-8.43453598022461,0.13792145252227783
1765542747582397200,4.350397216796875,4.216676235198975,-8.852299690246582,0.16375891864299774
1765542747592407000,4.360406982421875,3.6724390983581543,-9.09124755859375,0.1810353398323059
1765542747602417000,4.3704169921875,3.4125375747680664,-9.19166088104248,0.1958373337984085
1765542747612426500,4.380426513671875,2.7437615394592285,-9.412378311157227,0.22204875946044922
1765542747652496100,4.42049609375,1.063454508781433,-9.7449312210083,0.27528613805770874
1765542747662506000,4.430506103515625,0.6879470348358154,-9.779007911682129,0.26110681891441345
1765542747672515600,4.440515625,0.507581353187561,-9.790189743041992,0.2548731863498688
1765542747682525400,4.450525390625,0.16759338974952698,-9.80249309539795,0.23118162155151367
1765542747692504600,4.460504638671875,-0.15153145790100098,-9.80321216583252,0.21094810962677002
1765542747702514400,4.470514404296875,-0.5713104009628296,-9.788311004638672,0.1815241575241089
1765542747722503400,4.49050341796875,-1.0402578115463257,-9.749971389770508,0.16227905452251434
1765542747752532700,4.52053271484375,-1.5844311714172363,-9.677023887634277,0.12332885712385178
1765542747782531600,4.550531494140625,-2.0710129737854004,-9.584754943847656,0.11721914261579514
1765542747792510700,4.5605107421875,-2.141442060470581,-9.569106101989746,0.12963731586933136
1765542747812530200,4.5805302734375,-2.208080291748047,-9.553377151489258,0.16672463715076447
1765542747822509600,4.590509521484375,-2.2009105682373047,-9.554577827453613,0.19104981422424316
1765542747862579200,4.6305791015625,-1.9575376510620117,-9.603517532348633,0.33303603529930115
1765542747872588800,4.6405888671875,-1.8989732265472412,-9.61385726928711,0.3715682923793793
1765542747882598700,4.6505986328125,-1.8355865478515625,-9.62419605255127,0.4193430244922638
1765542747892608500,4.6606083984375,-1.812563419342041,-9.627434730529785,0.4444257318973541
1765542747912597500,4.680597412109375,-1.72442626953125,-9.638628959655762,0.541837215423584
1765542747922607000,4.690607177734375,-1.686287522315979,-9.643586158752441,0.5727715492248535
1765542747932647400,4.7006474609375,-1.6689560413360596,-9.645476341247559,0.5914230346679688
1765542747962707200,4.730707275390625,-1.59493088722229,-9.653745651245117,0.6571098566055298
1765542747972717000,4.740717041015625,-1.5972062349319458,-9.651103973388672,0.6895727515220642
1765542747982727000,4.750726806640625,-1.6120307445526123,-9.647257804870605,0.7086381316184998
1765542747992736500,4.760736572265625,-1.5955547094345093,-9.646973609924316,0.7486919164657593
1765542748002746400,4.770746337890625,-1.593583345413208,-9.646748542785645,0.7557128667831421
1765542748012725500,4.7807255859375,-1.5568104982376099,-9.65073299407959,0.7810919284820557
1765542748022735400,4.7907353515625,-1.546829104423523,-9.651926040649414,0.7861720323562622
1765542748032745200,4.8007451171875,-1.5176703929901123,-9.654034614562988,0.8165037631988525
1765542748042724400,4.810724365234375,-1.5086572170257568,-9.654242515563965,0.8306535482406616
1765542748112823300,4.8808232421875,-1.6911747455596924,-9.61894416809082,0.8867086172103882
1765542748122833200,4.890833251953125,-1.716658592224121,-9.614103317260742,0.8902274370193481
1765542748132842800,4.9008427734375,-1.7488837242126465,-9.607891082763672,0.894533634185791
1765542748142822100,4.910822265625,-1.7671889066696167,-9.604490280151367,0.8950979709625244
1765542748152862200,4.9208623046875,-1.8082292079925537,-9.596641540527344,0.8973241448402405
1765542748172882000,4.9408818359375,-1.9045895338058472,-9.57937240600586,0.8823726177215576
1765542748182891500,4.9508916015625,-1.959627628326416,-9.569467544555664,0.8692170977592468
1765542748192901400,4.9609013671875,-2.0180575847625732,-9.55854320526123,0.8556447625160217
1765542748202911200,4.9709111328125,-2.0804715156555176,-9.54656982421875,0.8396756649017334
1765542748212951600,4.98095166015625,-2.1787946224212646,-9.52733039855957,0.8082271814346313
1765542748222991600,4.99099169921875,-2.2193191051483154,-9.519343376159668,0.7919175624847412
1765542748233001500,5.00100146484375,-2.3232409954071045,-9.499340057373047,0.7317621111869812
1765542748243011300,5.01101123046875,-2.3526108264923096,-9.493711471557617,0.7106736898422241
1765542748253051600,5.0210517578125,-2.422358512878418,-9.478866577148438,0.6735439896583557
1765542748283081000,5.0510810546875,-2.542175054550171,-9.455448150634766,0.5497609376907349
1765542748293060000,5.06106005859375,-2.560136318206787,-9.451504707336426,0.5339934825897217
1765542748303039200,5.071039306640625,-2.598363161087036,-9.442814826965332,0.5021381974220276
1765542748313049000,5.081049072265625,-2.64391827583313,-9.432685852050781,0.45227789878845215
1765542748323059000,5.091058837890625,-2.66752290725708,-9.42756175994873,0.4192752242088318
1765542760226517200,16.994517333984376,9.682005882263184,0.19131740927696228,-1.5467880964279175
1765542760246106000,17.014106201171874,9.68386459350586,0.23043477535247803,-1.5297236442565918
1765542760265964500,17.033964599609376,9.686134338378906,0.19819767773151398,-1.5198371410369873
1765542760295993900,17.063993896484376,9.686866760253906,0.20019471645355225,-1.5149030685424805
1765542760306034200,17.0740341796875,9.687162399291992,0.1991800218820572,-1.51314115524292
1765542760316044000,17.0840439453125,9.688094139099121,0.19713078439235687,-1.5074315071105957
1765542760406009900,17.174009765625,9.693131446838379,0.1441393494606018,-1.4808188676834106
1765542760416019500,17.18401953125,9.692726135253906,0.14462320506572723,-1.4834215641021729
1765542760446048800,17.214048828125,9.69128704071045,0.14605140686035156,-1.4926488399505615
1765542760475925500,17.243925537109376,9.689826011657715,0.12535671889781952,-1.5039788484573364
1765542760485935400,17.253935302734376,9.689446449279785,0.1142151951789856,-1.5073050260543823
1765542760495914500,17.26391455078125,9.689066886901855,0.11080317944288254,-1.5099976062774658
1765542760505954800,17.273954833984376,9.688881874084473,0.10880595445632935,-1.5113286972045898
1765542760515903500,17.283903564453126,9.687944412231445,0.10783176124095917,-1.5173977613449097
1765542760535923200,17.303923095703126,9.686954498291016,0.1090698167681694,-1.52361261844635
1765542760545932800,17.313932861328126,9.686638832092285,0.10602878034114838,-1.525835633277893
1765542760555942700,17.323942626953126,9.686491966247559,0.09788861125707626,-1.5273115634918213
1765542760565952500,17.333952392578126,9.686502456665039,0.08713965117931366,-1.5278958082199097
1765542760575962000,17.343962158203126,9.686840057373047,0.07558095455169678,-1.5263707637786865
1765542760586002400,17.35400244140625,9.688212394714355,0.05479123815894127,-1.518528699874878
1765542760605991400,17.373991455078126,9.690918922424316,0.012975429184734821,-1.502103328704834
1765542760616001300,17.384001220703126,9.691787719726562,-0.0017335800221189857,-1.49654221534729
1765542760625980400,17.39398046875,9.69433879852295,-0.03234787657856941,-1.4795708656311035
1765542760655888000,17.423887939453124,9.69811725616455,-0.06136637553572655,-1.4536625146865845
1765542760665928000,17.433927978515626,9.698803901672363,-0.07263882458209991,-1.4485557079315186
1765542760675937800,17.443937744140626,9.699207305908203,-0.08065726608037949,-1.4454253911972046
1765542760685947600,17.45394775390625,9.69957447052002,-0.10181213170289993,-1.4416218996047974
1765542760695896300,17.463896240234376,9.69929027557373,-0.135300874710083,-1.440780520439148
1765542760705906200,17.47390625,9.699358940124512,-0.14635732769966125,-1.4392341375350952
1765542760715915800,17.483915771484376,9.698326110839844,-0.15617328882217407,-1.4451491832733154
1765542760725895200,17.493895263671874,9.698190689086914,-0.15781910717487335,-1.4458791017532349
1765542760765903600,17.533903564453126,9.692317962646484,-0.17678363621234894,-1.482606291770935
1765542760775913500,17.54391357421875,9.690967559814453,-0.18194307386875153,-1.4907798767089844
1765542760785953500,17.55395361328125,9.68973445892334,-0.18128332495689392,-1.498860239982605
1765542760795933000,17.563932861328126,9.688348770141602,-0.17487706243991852,-1.5085431337356567
1765542760805942800,17.57394287109375,9.688169479370117,-0.1739213466644287,-1.5098057985305786
1765542760815952400,17.583952392578126,9.687307357788086,-0.17359717190265656,-1.515362024307251
1765542760825962200,17.593962158203126,9.687410354614258,-0.17452950775623322,-1.514594316482544
1765542760835972000,17.60397216796875,9.687536239624023,-0.16707754135131836,-1.514634132385254
1765542760905979400,17.6739794921875,9.691875457763672,-0.17331181466579437,-1.4858958721160889
1765542760915989000,17.683989013671876,9.692224502563477,-0.17597119510173798,-1.483315110206604
1765542760925998800,17.693998779296876,9.691691398620605,-0.18070900440216064,-1.4862194061279297
1765542760935978000,17.70397802734375,9.69150161743164,-0.18486423790454865,-1.4869426488876343
1765542760946018300,17.714018310546876,9.691076278686523,-0.1918931007385254,-1.4888231754302979
1765542760966007300,17.73400732421875,9.690164566040039,-0.1922711730003357,-1.4947015047073364
1765542760985996300,17.753996337890626,9.688908576965332,-0.18114647269248962,-1.5042040348052979
1765542760995945200,17.7639453125,9.688167572021484,-0.1790168434381485,-1.5092219114303589
1765542761005985300,17.7739853515625,9.687131881713867,-0.17936982214450836,-1.515813946723938
1765542761015995100,17.7839951171875,9.686755180358887,-0.18089446425437927,-1.5180367231369019
1765542761025974500,17.793974609375,9.686052322387695,-0.18125732243061066,-1.5224695205688477
1765542761035953700,17.80395361328125,9.685274124145508,-0.18001769483089447,-1.5275636911392212
1765542761045963500,17.813963623046874,9.684556007385254,-0.1788080781698227,-1.5322456359863281
1765542761075962000,17.843962158203126,9.683274269104004,-0.16632339358329773,-1.5417269468307495
1765542761085941500,17.85394140625,9.682960510253906,-0.1615578681230545,-1.544204831123352
1765542761095951000,17.863951171875,9.6827974319458,-0.15737831592559814,-1.5456565618515015
1765542761105961000,17.8739609375,9.682208061218262,-0.14782501757144928,-1.5502815246582031
1765542761115940400,17.8839404296875,9.681594848632812,-0.14275281131267548,-1.5545846223831177
1765542761125919500,17.89391943359375,9.681114196777344,-0.13825348019599915,-1.5579808950424194
1765542761135898600,17.903898681640626,9.680720329284668,-0.13410606980323792,-1.560790777206421
1765542761145908500,17.913908447265626,9.680438041687012,-0.1374768614768982,-1.5622433423995972
1765542761155826700,17.92382666015625,9.680212020874023,-0.14346958696842194,-1.5631041526794434
1765542761185795000,17.953795166015624,9.680327415466309,-0.1259719431400299,-1.5638984441757202
1765542761195774200,17.963774169921876,9.680323600769043,-0.12302078306674957,-1.5641543865203857
1765542761205753300,17.97375341796875,9.680100440979004,-0.12438398599624634,-1.565433144569397
1765542761215763200,17.98376318359375,9.679630279541016,-0.12660695612430573,-1.5681558847427368
1765542761225742600,17.99374267578125,9.67880630493164,-0.12793301045894623,-1.5731325149536133
1765542761235721700,18.0037216796875,9.678207397460938,-0.1318792998790741,-1.5764833688735962
1765542761245731600,18.013731689453124,9.677831649780273,-0.13879378139972687,-1.5781923532485962
1765542761255710700,18.023710693359376,9.677106857299805,-0.14383549988269806,-1.5821789503097534
1765542761265690000,18.033690185546874,9.676467895507812,-0.1452004313468933,-1.58595871925354
1765542761295688700,18.063688720703126,9.676446914672852,-0.13952411711215973,-1.58659827709198
1765542761315739000,18.08373876953125,9.675874710083008,-0.14681734144687653,-1.589430809020996
1765542761325748500,18.09374853515625,9.675538063049316,-0.14972878992557526,-1.5912069082260132
1765542761335758300,18.10375830078125,9.675406455993652,-0.15564072132110596,-1.5914335250854492
1765542761345737500,18.113737548828126,9.675521850585938,-0.16004161536693573,-1.590295672416687
1765542761355747300,18.123747314453126,9.67556095123291,-0.16206152737140656,-1.5898526906967163
1765542761365757200,18.133757080078126,9.675712585449219,-0.16089700162410736,-1.5890529155731201
1765542761385746200,18.15374609375,9.675954818725586,-0.15909917652606964,-1.5877562761306763
1765542761395725300,18.163725341796876,9.675841331481934,-0.15979279577732086,-1.5883808135986328
1765542761405765600,18.173765625,9.6756591796875,-0.17064498364925385,-1.5883588790893555
1765542761415714300,18.18371435546875,9.675600051879883,-0.17853958904743195,-1.587853193283081
1765542761425724200,18.19372412109375,9.675586700439453,-0.18047252297401428,-1.587715983390808
1765542761435703300,18.203703369140626,9.675918579101562,-0.17513805627822876,-1.5862889289855957
1765542761445682700,18.2136826171875,9.676822662353516,-0.168925479054451,-1.5814422369003296
1765542761455692500,18.223692626953124,9.677262306213379,-0.17123134434223175,-1.5784997940063477
1765542761465702100,18.2337021484375,9.677541732788086,-0.18111224472522736,-1.575678825378418
1765542761475650800,18.24365087890625,9.67788028717041,-0.18781787157058716,-1.572817087173462
1765542761505710800,18.2737109375,9.679462432861328,-0.211360901594162,-1.5600392818450928
1765542761515659500,18.283659423828126,9.679889678955078,-0.22215843200683594,-1.5558817386627197
1765542761525699800,18.293699951171874,9.680286407470703,-0.23718218505382538,-1.5511853694915771
1765542761535709400,18.30370947265625,9.680757522583008,-0.2523971498012543,-1.5458391904830933
1765542761555729200,18.323729248046874,9.682565689086914,-0.2810817062854767,-1.5294718742370605
1765542761565708300,18.333708251953126,9.683701515197754,-0.30199021100997925,-1.5182632207870483
1765542761575718100,18.34371826171875,9.684853553771973,-0.3360320031642914,-1.503684163093567
1765542761585727700,18.353727783203126,9.685684204101562,-0.3818647265434265,-1.4873054027557373
1765542761605747500,18.37374755859375,9.685290336608887,-0.4964721202850342,-1.455698013305664
1765542761615726600,18.3837265625,9.685235977172852,-0.5806339383125305,-1.4245890378952026
1765542761625706000,18.3937060546875,9.684367179870605,-0.7380740642547607,-1.3559759855270386
1765542761635685000,18.40368505859375,9.682929039001465,-0.7921911478042603,-1.3355541229248047
1765542761655674000,18.423674072265626,9.670221328735352,-1.1341404914855957,-1.1708730459213257
1765542761665684000,18.43368408203125,9.6585693359375,-1.299345850944519,-1.0927598476409912
1765542761675663000,18.4436630859375,9.650815963745117,-1.3859738111495972,-1.054141640663147
1765542761685673000,18.4536728515625,9.614081382751465,-1.7020193338394165,-0.9181181192398071
1765542761715641000,18.48364111328125,9.495467185974121,-2.3541738986968994,-0.6814396381378174
1765542761725681400,18.493681396484376,9.373932838439941,-2.8317670822143555,-0.5299779772758484
1765542761735660800,18.503660888671874,9.269214630126953,-3.1731510162353516,-0.4279627203941345
1765542761745670400,18.51367041015625,9.140357971191406,-3.5382120609283447,-0.32451099157333374
1765542761755649800,18.52364990234375,9.065972328186035,-3.728759527206421,-0.2736711800098419
1765542761765629000,18.53362890625,8.896381378173828,-4.122371196746826,-0.1755925863981247
1765542761775638800,18.543638671875,8.708199501037598,-4.508931636810303,-0.08484441041946411
1765542761785679000,18.55367919921875,8.507041931152344,-4.87858772277832,0.0011488046729937196
1765542761795658200,18.563658203125,8.298727035522461,-5.224448204040527,0.08167999237775803
1765542761815677700,18.583677734375,7.740670204162598,-6.015561103820801,0.25582024455070496
1765542761825718000,18.593718017578126,7.614253044128418,-6.173434257507324,0.28679734468460083
1765542761835697400,18.603697509765624,7.197934150695801,-6.650236129760742,0.3667277991771698
1765542761845707000,18.61370703125,6.883909225463867,-6.972341537475586,0.41066139936447144
1765542761855716900,18.623716796875,6.701201438903809,-7.146808624267578,0.4329184591770172
1765542761865696000,18.633696044921876,6.339818000793457,-7.467216968536377,0.46666446328163147
1765542761875705900,18.643705810546876,5.978355407714844,-7.758018970489502,0.4927451014518738
1765542761885715700,18.6537158203125,5.463724136352539,-8.126696586608887,0.5243409872055054
1765542761895694800,18.66369482421875,5.289834976196289,-8.24030590057373,0.5342375040054321
1765542761905735200,18.673735107421876,4.8385210037231445,-8.511575698852539,0.5587373375892639
1765542761935734000,18.703734130859374,3.8905856609344482,-8.981921195983887,0.5990323424339294
1765542761945743600,18.71374365234375,3.56984543800354,-9.114689826965332,0.5907688140869141
1765542761955753500,18.72375341796875,3.247467279434204,-9.235393524169922,0.5760664939880371
1765542761965793800,18.733793701171876,3.0836663246154785,-9.291882514953613,0.5677328109741211
1765542761975803400,18.743803466796876,2.780339241027832,-9.388120651245117,0.5507251620292664
1765542761985782800,18.75378271484375,2.5097014904022217,-9.46509838104248,0.5326492190361023
1765542761995762000,18.763761962890626,2.2752044200897217,-9.525182723999023,0.514518678188324
1765542762005741300,18.7737412109375,2.0659520626068115,-9.573624610900879,0.4979470372200012
1765542762035770600,18.8037705078125,1.416441559791565,-9.693307876586914,0.4515218436717987
1765542762045780200,18.8137802734375,1.3206623792648315,-9.706998825073242,0.447704017162323
1765542762065800000,18.833800048828124,0.9517300128936768,-9.751455307006836,0.41682374477386475
1765542762075809500,18.8438095703125,0.7731607556343079,-9.768058776855469,0.39704760909080505
1765542762085819400,18.8538193359375,0.5272716283798218,-9.785562515258789,0.36765170097351074
1765542762095798500,18.863798583984376,0.37142282724380493,-9.793310165405273,0.3514139950275421
1765542762105778000,18.87377783203125,0.22154900431632996,-9.798362731933594,0.3367725908756256
1765542762115787500,18.88378759765625,0.14546674489974976,-9.800012588500977,0.33014965057373047
1765542762145878000,18.9138779296875,-0.25438210368156433,-9.798851013183594,0.2970271408557892
1765542762205906200,18.97390625,-0.954451322555542,-9.757274627685547,0.23462212085723877
1765542762225925600,18.993925537109376,-1.1221517324447632,-9.739859580993652,0.21511341631412506
1765542762235904800,19.00390478515625,-1.2183794975280762,-9.728524208068848,0.20440876483917236
1765542762245914600,19.01391455078125,-1.340532898902893,-9.71275520324707,0.18914280831813812
1765542762255924500,19.023924560546874,-1.3870506286621094,-9.706181526184082,0.19109775125980377
1765542762265934000,19.03393408203125,-1.4993809461593628,-9.689828872680664,0.1716933697462082
1765542762275913500,19.04391357421875,-1.57548987865448,-9.67795467376709,0.15932400524616241
1765542762285923000,19.053923095703126,-1.614993929862976,-9.671526908874512,0.15408961474895477
1765542762295933000,19.063932861328126,-1.684734582901001,-9.659825325012207,0.14088702201843262
1765542762305942800,19.07394287109375,-1.7439792156219482,-9.649466514587402,0.12924130260944366
1765542762315922000,19.083921875,-1.7878813743591309,-9.64155101776123,0.11998042464256287
1765542762325931800,19.093931884765624,-1.799255132675171,-9.639555931091309,0.10970950126647949
1765542762335941400,19.10394140625,-1.7654662132263184,-9.645825386047363,0.1074851006269455
1765542762365940200,19.133940185546876,-1.4966367483139038,-9.690759658813477,0.14022183418273926
1765542762415897600,19.183897705078124,-0.9946128129959106,-9.754379272460938,0.18235856294631958
1765542762435917000,19.2039169921875,-0.6721155643463135,-9.781453132629395,0.20456483960151672
1765542762445957400,19.213957275390626,-0.48701056838035583,-9.792093276977539,0.2193976640701294
1765542762465976800,19.233976806640626,-0.13709215819835663,-9.802844047546387,0.23629969358444214
1765542762505954800,19.273954833984376,0.3300677537918091,-9.797284126281738,0.2733128070831299
1765542762525974500,19.293974609375,0.39410513639450073,-9.794499397277832,0.28787410259246826
1765542762535984000,19.303984130859376,0.41318100690841675,-9.79361629486084,0.29116731882095337
1765542762556003600,19.324003662109376,0.47088930010795593,-9.790674209594727,0.3022165298461914
1765542762566013400,19.334013427734376,0.49524641036987305,-9.789252281188965,0.3092801868915558
1765542762586002400,19.35400244140625,0.527287483215332,-9.787214279174805,0.32067281007766724
1765542762615970800,19.383970703125,0.5880911350250244,-9.784238815307617,0.3053586184978485
1765542762625950000,19.393949951171876,0.6047437191009521,-9.783232688903809,0.30505263805389404
1765542762635929300,19.403929443359374,0.6070747375488281,-9.783038139343262,0.30662938952445984
1765542762665989000,19.433989013671876,0.5863776803016663,-9.784235954284668,0.3086266815662384
1765542762685978000,19.45397802734375,0.5766258239746094,-9.784692764282227,0.3125564157962799
1765542762695988000,19.463988037109374,0.574391782283783,-9.78475284576416,0.31480273604393005
1765542762705997600,19.47399755859375,0.5672907829284668,-9.785041809082031,0.318696528673172
1765542762716007400,19.48400732421875,0.5603728890419006,-9.785408973693848,0.31960663199424744
1765542762726017000,19.49401708984375,0.5491074919700623,-9.786005020141602,0.32089871168136597
1765542762736027000,19.50402685546875,0.5349411368370056,-9.786705017089844,0.32344987988471985
1765542762836063500,19.6040634765625,0.46747130155563354,-9.7894287109375,0.344906210899353
1765542762936100000,19.70410009765625,0.6258490085601807,-9.78018569946289,0.35593467950820923
1765543008384515000,265.15251513671876,9.52579116821289,2.1001229286193848,-1.0095384120941162
1765543008394325000,265.16232495117185,9.524277687072754,2.1113858222961426,-1.0002820491790771
1765543008414144500,265.18214453125,9.527751922607422,2.103990316390991,-0.982623815536499
1765543008434164000,265.2021640625,9.531980514526367,2.085874080657959,-0.9802324175834656
1765543008444173800,265.212173828125,9.532498359680176,2.083380937576294,-0.9805071949958801
1765543008454153000,265.2221530761719,9.53280258178711,2.081653356552124,-0.9812100529670715
1765543008464193300,265.232193359375,9.53280258178711,2.0814435482025146,-0.9816539883613586
1765543008474142000,265.24214184570315,9.532554626464844,2.081350803375244,-0.9842533469200134
1765543008554067500,265.3220673828125,9.534479141235352,2.0570228099823,-1.0162451267242432
1765543008584066300,265.35206640625,9.53377628326416,2.0584893226623535,-1.0198594331741333
1765543008594076200,265.362076171875,9.53359603881836,2.059096097946167,-1.0203226804733276
1765543008684072400,265.4520725097656,9.537452697753906,2.020256996154785,-1.0611063241958618
1765543008734152000,265.50215185546875,9.536375999450684,2.030170202255249,-1.0518240928649902
1765543008744161500,265.51216162109375,9.536811828613281,2.0294487476348877,-1.0492559671401978
1765543008754171400,265.52217138671875,9.537841796875,2.027113914489746,-1.0444021224975586
1765543008764150500,265.5321506347656,9.54065227508545,2.014662981033325,-1.0428205728530884
1765543008774130000,265.5421298828125,9.541921615600586,2.0084095001220703,-1.0432647466659546
1765543008784170200,265.5521701660156,9.54669189453125,1.9808950424194336,-1.0521970987319946
1765543008794149400,265.5621494140625,9.549376487731934,1.9639407396316528,-1.0595886707305908
1765543008834127400,265.60212744140625,9.56051254272461,1.8989700078964233,-1.0774515867233276
1765543008844137200,265.61213720703125,9.561685562133789,1.8939589262008667,-1.0758614540100098
1765543008854116400,265.6221164550781,9.56203842163086,1.8930543661117554,-1.0743149518966675
1765543008864156700,265.63215673828125,9.563777923583984,1.887059211730957,-1.069362998008728
1765543008884176100,265.65217602539065,9.565656661987305,1.88149094581604,-1.0623501539230347
1765543008894125000,265.662125,9.566821098327637,1.8777623176574707,-1.0584588050842285
1765543008904134700,265.672134765625,9.56801986694336,1.873893141746521,-1.0544700622558594
1765543008914144500,265.68214453125,9.569648742675781,1.8672130107879639,-1.0515373945236206
1765543008964132400,265.73213232421875,9.570941925048828,1.8629870414733887,-1.0472538471221924
1765543009014120200,265.7821201171875,9.569427490234375,1.8769618272781372,-1.0360829830169678
1765543009084219000,265.8522189941406,9.572546005249023,1.8570224046707153,-1.0431760549545288
1765543009094198300,265.8621982421875,9.572563171386719,1.855115532875061,-1.0464081764221191
1765543009104238600,265.8722385253906,9.571805953979492,1.8564369678497314,-1.050981044769287
1765543009114217700,265.8822177734375,9.570819854736328,1.8603222370147705,-1.0530897378921509
1765543009124227600,265.8922275390625,9.570247650146484,1.8634291887283325,-1.0528017282485962
1765543009134237200,265.9022373046875,9.569140434265137,1.868293046951294,-1.0542391538619995
1765543009144216600,265.9122165527344,9.569060325622559,1.8689539432525635,-1.0537933111190796
1765543009154226200,265.92222607421877,9.569175720214844,1.8681584596633911,-1.0541595220565796
1765543009174215200,265.94221508789065,9.570389747619629,1.8618344068527222,-1.0543276071548462
1765543009184255500,265.95225537109377,9.571207046508789,1.8580799102783203,-1.0535306930541992
1765543009194265300,265.9622653808594,9.571976661682129,1.8544907569885254,-1.0528618097305298
1765543009204244500,265.97224438476565,9.57223129272461,1.8532726764678955,-1.052685022354126
1765543009214224000,265.9822238769531,9.5728178024292,1.8508363962173462,-1.0516390800476074
1765543009224203000,265.992203125,9.573110580444336,1.849043846130371,-1.0521317720413208
1765543009234243300,266.0022434082031,9.573861122131348,1.8446862697601318,-1.0529481172561646
1765543009244222700,266.01222265625,9.575366020202637,1.8353461027145386,-1.0555832386016846
1765543009254171400,266.02217138671875,9.575883865356445,1.8323523998260498,-1.0560858249664307
1765543009274190800,266.04219091796875,9.57708740234375,1.8267507553100586,-1.054875373840332
1765543009284200700,266.05220068359375,9.577374458312988,1.8259485960006714,-1.0536631345748901
1765543009294179800,266.0621799316406,9.57729721069336,1.8273375034332275,-1.0519509315490723
1765543009304159200,266.0721591796875,9.578125953674316,1.823395013809204,-1.051254153251648
1765543009314138400,266.0821384277344,9.578047752380371,1.8245553970336914,-1.0499436855316162
1765543009324178700,266.0921787109375,9.578551292419434,1.822607398033142,-1.0487322807312012
1765543009334157800,266.10215771484377,9.580239295959473,1.8133984804153442,-1.0492753982543945
1765543009344167700,266.1121677246094,9.580528259277344,1.8112019300460815,-1.0504374504089355
1765543009354146800,266.12214672851565,9.582084655761719,1.799669623374939,-1.0560458898544312
1765543009364156700,266.13215673828125,9.584187507629395,1.7858879566192627,-1.0603512525558472
1765543009394155500,266.1621555175781,9.595296859741211,1.7206720113754272,-1.0676907300949097
1765543009404165000,266.1721650390625,9.601632118225098,1.6846903562545776,-1.0681172609329224
1765543009414144500,266.18214453125,9.615762710571289,1.5980497598648071,-1.074121117591858
1765543009424123600,266.19212353515627,9.628844261169434,1.5154696702957153,-1.0766150951385498
1765543009434133500,266.2021335449219,9.645179748535156,1.4050043821334839,-1.0802146196365356
1765543009444112600,266.21211254882815,9.663918495178223,1.2654494047164917,-1.0852187871932983
1765543009464102000,266.2321018066406,9.701679229736328,0.9179887175559998,-1.0977782011032104
1765543009474111500,266.2421115722656,9.717679023742676,0.7213384509086609,-1.1030770540237427
1765543009484121300,266.2521213378906,9.72873306274414,0.5361742377281189,-1.1111540794372559
1765543009494100500,266.2621005859375,9.732336044311523,0.45125675201416016,-1.1173104047775269
1765543009504140800,266.2721408691406,9.737003326416016,0.25596100091934204,-1.1382577419281006
1765543009514120200,266.2821201171875,9.737447738647461,0.1992398053407669,-1.1457725763320923
1765543009524099300,266.2920993652344,9.740143775939941,0.04897208511829376,-1.13911771774292
1765543009534078500,266.30207836914065,9.741029739379883,-0.06208791583776474,-1.1308691501617432
1765543009544088300,266.31208837890625,9.740768432617188,-0.12214724719524384,-1.1282249689102173
1765543009554037000,266.322037109375,9.734424591064453,-0.3604068160057068,-1.1320252418518066
1765543009564077300,266.3320773925781,9.724329948425293,-0.553243100643158,-1.140932559967041
1765543009574056700,266.342056640625,9.717229843139648,-0.6555047631263733,-1.1472300291061401
1765543009594076200,266.362076171875,9.658002853393555,-1.209993600845337,-1.1955260038375854
1765543009604055300,266.37205517578127,9.641112327575684,-1.3267837762832642,-1.2078853845596313
1765543009614004200,266.3820041503906,9.575032234191895,-1.7115572690963745,-1.2488871812820435
1765543009624013800,266.3920139160156,9.54902172088623,-1.839943766593933,-1.265377402305603
1765543009634023700,266.4020236816406,9.431827545166016,-2.3382623195648193,-1.320435881614685
1765543009644064000,266.41206396484375,9.375216484069824,-2.5436575412750244,-1.3436912298202515
1765543009654073600,266.42207348632815,9.248296737670898,-2.9472908973693848,-1.3974556922912598
1765543009664114000,266.4321140136719,9.065089225769043,-3.4407808780670166,-1.4681857824325562
1765543009674093300,266.44209326171875,8.734627723693848,-4.161173343658447,-1.6004078388214111
1765543009704061400,266.4720615234375,7.875344753265381,-5.496374130249023,-1.9847424030303955
1765543009714071300,266.4820712890625,7.535801887512207,-5.8984761238098145,-2.1424410343170166
1765543009724081000,266.4920808105469,7.169703483581543,-6.274096965789795,-2.3241024017333984
1765543009734029800,266.50202978515625,6.947988033294678,-6.470850467681885,-2.4543726444244385
1765543009744070100,266.5120700683594,6.384169101715088,-6.906225681304932,-2.777919292449951
1765543009754079700,266.5220798339844,6.017115116119385,-7.131409168243408,-3.017897605895996
1765543009764059100,266.53205908203125,5.830864429473877,-7.2276611328125,-3.1515603065490723
1765543009774038300,266.5420383300781,5.335132598876953,-7.425948143005371,-3.544295310974121
1765543009784048000,266.5520480957031,5.166867256164551,-7.474782943725586,-3.688018798828125
1765543009814077400,266.5820773925781,4.199904441833496,-7.588744163513184,-4.576258182525635
1765543009834127400,266.60212744140625,3.4179816246032715,-7.480340480804443,-5.341562271118164
1765543009844137200,266.61213720703125,3.1271393299102783,-7.381641387939453,-5.648253917694092
1765543009854146800,266.62214672851565,2.8522555828094482,-7.252437114715576,-5.952913761138916
1765543009864126200,266.6321262207031,2.589724540710449,-7.098788738250732,-6.250673770904541
1765543009874105300,266.6421052246094,2.3324337005615234,-6.9253764152526855,-6.539826393127441
1765543009884115200,266.652115234375,2.0785748958587646,-6.734978675842285,-6.818357467651367
1765543009894094300,266.66209423828127,1.953679084777832,-6.63339900970459,-6.953530311584473
1765543009934041900,266.7020417480469,1.0609207153320312,-5.547691345214844,-8.016730308532715
1765543009964040700,266.7320407714844,0.6568395495414734,-4.73166561126709,-8.56447696685791
1765543009974050600,266.7420505371094,0.6038403511047363,-4.595123291015625,-8.642373085021973
1765543009984060200,266.75206005859377,0.4750099778175354,-4.198447227478027,-8.84973430633545
1765543009994100500,266.7621005859375,0.4028022289276123,-3.9478044509887695,-8.967887878417969
1765543010024099300,266.7920993652344,0.25743862986564636,-3.400944232940674,-9.194439888000488
1765543010094137000,266.86213720703125,-0.10570143163204193,-2.5589447021484375,-9.466309547424316
1765543010104116500,266.8721164550781,-0.12364917993545532,-2.5441787242889404,-9.470071792602539
1765543010114126000,266.8821259765625,-0.18430501222610474,-2.4933624267578125,-9.482595443725586
1765543010124136000,266.8921359863281,-0.21663258969783783,-2.47542405128479,-9.486611366271973
1765543010194235000,266.96223486328125,-0.24777533113956451,-2.5337252616882324,-9.470439910888672
1765543010204214000,266.9722141113281,-0.2233995944261551,-2.5644121170043945,-9.462783813476562
1765543010224233500,266.9922333984375,-0.1301315277814865,-2.664867401123047,-9.43673324584961
1765543010254262800,267.0222626953125,0.041480597108602524,-2.852057933807373,-9.382665634155273
1765543010264272600,267.0322727050781,0.0762958899140358,-2.8927981853485107,-9.369966506958008
1765543010274282500,267.0422824707031,0.1441115289926529,-2.9696004390716553,-9.345109939575195
1765543010284292000,267.0522919921875,0.21418753266334534,-3.0515143871307373,-9.317338943481445
1765543010294271500,267.062271484375,0.31837737560272217,-3.174161434173584,-9.273280143737793
1765543010314291000,267.082291015625,0.4633861780166626,-3.3585383892059326,-9.20195198059082
1765543010354330000,267.122330078125,0.7167565226554871,-3.72346568107605,-9.043919563293457
1765543010374349600,267.142349609375,0.8924047946929932,-4.013542652130127,-8.903116226196289
1765543010384328700,267.15232861328127,0.9592150449752808,-4.135855197906494,-8.839967727661133
1765543010394338600,267.1623386230469,0.990265429019928,-4.198665142059326,-8.806872367858887
1765543010404348400,267.1723483886719,1.0872732400894165,-4.3882927894592285,-8.702363014221191
1765543010414327600,267.18232763671875,1.1158499717712402,-4.450737476348877,-8.666961669921875
1765543010434377700,267.2023776855469,1.233082890510559,-4.703890323638916,-8.516061782836914
1765543010454427600,267.222427734375,1.3412445783615112,-4.948858261108398,-8.359442710876465
1765543010464437500,267.2324375,1.4211293458938599,-5.126894950866699,-8.238064765930176
1765543010474447000,267.2424470214844,1.4672919511795044,-5.234635829925537,-8.161865234375
1765543010484457000,267.25245703125,1.5110844373703003,-5.336258888244629,-8.087729454040527
1765543010494436400,267.2624362792969,1.5229893922805786,-5.3751540184021,-8.059691429138184
1765543010504446000,267.2724460449219,1.5853335857391357,-5.507759094238281,-7.957492828369141
1765543010514455800,267.2824558105469,1.6155928373336792,-5.573226451873779,-7.905656337738037
1765543010524465400,267.29246533203127,1.6097873449325562,-5.576868534088135,-7.904272079467773
1765543521431282700,778.1992827148438,7.60929012298584,2.121061325073242,5.811212062835693
1765543521441262000,778.2092619628907,7.61668586730957,2.075488328933716,5.817975044250488
1765543521450972000,778.2189719238281,7.6022138595581055,2.0583388805389404,5.842942714691162
1765543521460581600,778.2285815429688,7.594380855560303,2.020679235458374,5.866227149963379
1765543521480231700,778.2482316894532,7.548101425170898,1.9926302433013916,5.935148239135742
1765543521500251100,778.2682512207032,7.4997477531433105,2.0019569396972656,5.9930243492126465
1765543521510230300,778.2782302246094,7.4800028800964355,1.9876348972320557,6.022397518157959
1765543521520240000,778.288240234375,7.477310657501221,1.9777517318725586,6.028989315032959
1765543521570258400,778.3382585449219,7.462226390838623,2.071774482727051,6.016087055206299
1765543521580268300,778.3482683105469,7.455491542816162,2.1054329872131348,6.012752532958984
1765543521590278000,778.3582778320313,7.451568126678467,2.115260601043701,6.014166355133057
1765543521600287700,778.3682878417969,7.44462776184082,2.1197381019592285,6.021181583404541
1765543521610267000,778.3782668457031,7.430359840393066,2.1304636001586914,6.035003185272217
1765543521620276700,778.3882768554688,7.409929275512695,2.143791675567627,6.055369853973389
1765543521660285200,778.42828515625,7.348808288574219,2.1778206825256348,6.117393493652344
1765543521700324400,778.4683244628907,7.288563251495361,2.1719651222229004,6.191106796264648
1765543521730353700,778.4983537597657,7.268274784088135,2.02382755279541,6.264718055725098
1765543521800422100,778.5684221191407,7.197988510131836,2.056565761566162,6.334814548492432
1765543521820441600,778.5884416503907,7.12912130355835,2.116412401199341,6.392714977264404
1765543521830451200,778.598451171875,7.1009440422058105,2.143584966659546,6.414984703063965
1765543521850440400,778.6184404296876,7.059707164764404,2.153606414794922,6.457004547119141
1765543521860450000,778.6284499511719,7.017111301422119,2.1589934825897217,6.501482963562012
1765543521870460000,778.6384599609376,6.990250587463379,2.163731575012207,6.5287861824035645
1765543521880469800,778.6484697265626,6.948972225189209,2.2000350952148438,6.560642242431641
1765543521890479400,778.6584792480469,6.913343906402588,2.224414825439453,6.589995384216309
1765543521900489200,778.6684892578126,6.891039848327637,2.233884811401367,6.6101226806640625
1765543521910498800,778.6784987792969,6.86508321762085,2.2659835815429688,6.626186370849609
1765543521920508700,778.6885087890626,6.839822769165039,2.2818992137908936,6.646815299987793
1765543521930518500,778.6985185546876,6.809664726257324,2.296828269958496,6.6725873947143555
1765543521960486700,778.7284865722656,6.725900173187256,2.354681968688965,6.737071990966797
1765543521970466000,778.7384660644532,6.699055194854736,2.377927541732788,6.755627632141113
1765543521980445200,778.7484450683594,6.680659770965576,2.387282371520996,6.7705278396606445
1765543521990424600,778.7584245605469,6.651956081390381,2.394744396209717,6.79610538482666
1765543522000464600,778.7684645996094,6.609416484832764,2.3995885848999023,6.835786819458008
1765543522010444000,778.7784440917969,6.574589729309082,2.395714044570923,6.870642185211182
1765543522030494000,778.7984938964844,6.5088324546813965,2.3472933769226074,6.94951057434082
1765543522040534300,778.8085341796875,6.471725940704346,2.3009469509124756,6.999485015869141
1765543522060492800,778.8284929199219,6.389169216156006,2.200449228286743,7.106822967529297
1765543522160468500,778.9284685058594,6.011337757110596,1.843868613243103,7.525581359863281
1765543522200507400,778.9685073242188,5.975789546966553,1.8521101474761963,7.551821231842041
1765543522220496400,778.9884963378906,5.948612689971924,1.9066405296325684,7.559704303741455
1765543522230506200,778.9985063476563,5.931055068969727,1.9316552877426147,7.567145824432373
1765543522250525700,779.0185256347656,5.887115001678467,2.101651906967163,7.5561442375183105
1765543522260505000,779.0285051269532,5.866453647613525,2.1735739707946777,7.551866054534912
1765543522270514700,779.0385146484375,5.85085391998291,2.2399582862854004,7.544568061828613
1765543522280555000,779.0485549316406,5.844322204589844,2.273289918899536,7.539658069610596
1765543522330542800,779.09854296875,5.778021812438965,2.28389048576355,7.587404727935791
1765543522340522200,779.1085222167969,5.75593900680542,2.259819746017456,7.611359119415283
1765543522350501400,779.1185014648438,5.72994327545166,2.233950138092041,7.638560771942139
1765543522360541700,779.1285417480469,5.70822811126709,2.214433431625366,7.660470485687256
1765543522370551300,779.1385512695313,5.6674909591674805,2.161414623260498,7.7057271003723145
1765543522380561200,779.1485610351563,5.628891944885254,2.1322782039642334,7.742051124572754
1765543522400550100,779.1685500488281,5.5435872077941895,2.087804079055786,7.815375328063965
1765543522410590500,779.1785905761719,5.501222133636475,2.070730686187744,7.849778175354004
1765543522420600300,779.1886003417969,5.462540626525879,2.055006265640259,7.880862236022949
1765543522430610000,779.1986098632813,5.431044101715088,2.040717840194702,7.906303405761719
1765543522440619800,779.2086198730469,5.398843765258789,2.0314650535583496,7.930700778961182
1765543522450599000,779.2185988769531,5.370171070098877,2.0253632068634033,7.951700210571289
1765543522460608800,779.2286088867188,5.322159767150879,2.019810914993286,7.985322952270508
1765543522470618600,779.2386186523438,5.281949043273926,2.0171451568603516,8.012648582458496
1765543522480597800,779.24859765625,5.2403130531311035,2.0046863555908203,8.043055534362793
1765543522510627000,779.278626953125,5.134042739868164,1.9823777675628662,8.116783142089844
1765543522530646500,779.298646484375,5.047098636627197,1.9411495923995972,8.181022644042969
1765543522540656400,779.3086564941407,5.011912822723389,1.935822606086731,8.203885078430176
1765543522550666200,779.3186662597657,4.989694118499756,1.9240117073059082,8.220190048217773
1765543522560706600,779.3287065429688,4.975148677825928,1.9215956926345825,8.22956657409668
1765543522570716200,779.3387160644531,4.938422203063965,1.9039576053619385,8.255743980407715
1765543522580726000,779.3487260742188,4.925345420837402,1.8976489305496216,8.265003204345703
1765543522590736000,779.3587358398438,4.8950581550598145,1.8772501945495605,8.287625312805176
1765543522630774800,779.3987749023438,4.723033905029297,1.793544054031372,8.405150413513184
1765543522640815000,779.4088151855469,4.679241180419922,1.7751878499984741,8.433492660522461
1765543522650825000,779.4188249511719,4.610996723175049,1.7703593969345093,8.47200870513916
1765543522660865000,779.4288649902344,4.561494827270508,1.7735238075256348,8.498104095458984
1765543522670875000,779.438875,4.516440391540527,1.7609573602676392,8.524740219116211
1765543522680884700,779.448884765625,4.468573570251465,1.7444968223571777,8.553301811218262
1765543522690894300,779.4588942871094,4.420490741729736,1.7251951694488525,8.582152366638184
1765543522700904200,779.468904296875,4.395772457122803,1.714276671409607,8.597024917602539
1765543522730903000,779.4989030761719,4.350642204284668,1.7167656421661377,8.619457244873047
1765543522740912600,779.5089125976563,4.341276168823242,1.7207523584365845,8.623381614685059
1765543522750922500,779.5189226074219,4.330350399017334,1.7234532833099365,8.628335952758789
1765543522760932400,779.5289323730469,4.321009159088135,1.727368712425232,8.632233619689941
1765543522770942000,779.5389418945313,4.3105268478393555,1.730117917060852,8.636922836303711
1765543522780951800,779.5489519042969,4.2703537940979,1.7344542741775513,8.655988693237305
1765543522790961700,779.5589616699219,4.247743606567383,1.7445952892303467,8.665071487426758
1765543522800971300,779.5689711914063,4.227058410644531,1.74994957447052,8.674102783203125
1765543522820991000,779.5889909667969,4.172052383422852,1.746778964996338,8.701329231262207
1765543522831000600,779.5990004882813,4.155315399169922,1.7357940673828125,8.711530685424805
1765543522841041000,779.609041015625,4.13829231262207,1.7280691862106323,8.72116470336914
1765543522851020300,779.6190202636719,4.11948299407959,1.7132540941238403,8.732983589172363
1765543522871039700,779.6390397949219,4.075442790985107,1.7015594244003296,8.755903244018555
1765543522881049300,779.6490493164063,4.019031524658203,1.6896007061004639,8.784249305725098
1765543522891059200,779.6590590820313,3.9919047355651855,1.6773719787597656,8.7989501953125
1765543522901069000,779.6690690917969,3.967327833175659,1.6643638610839844,8.812524795532227
1765543522911078700,779.6790786132813,3.942922353744507,1.6560626029968262,8.825033187866211
1765543522941047000,779.7090471191407,3.8896327018737793,1.6219472885131836,8.85496711730957
1765543522951057000,779.7190568847657,3.865450859069824,1.6124473810195923,8.86728286743164
1765543522961066500,779.72906640625,3.851813554763794,1.6034574508666992,8.87484359741211
1765543522971046000,779.7390458984376,3.8394618034362793,1.600590467453003,8.88071060180664
1765543522981025000,779.7490249023438,3.8210225105285645,1.6026757955551147,8.888284683227539
1765543522991065300,779.7590654296876,3.809143304824829,1.6019216775894165,8.893518447875977
1765543523001105700,779.7691057128907,3.7970168590545654,1.6021733283996582,8.89865779876709
1765543523011084800,779.7790847167969,3.784649610519409,1.5993300676345825,8.904435157775879
1765543523051062800,779.8190627441406,3.718479871749878,1.6053386926651,8.931191444396973
1765543523061072600,779.8290727539063,3.7112107276916504,1.6084940433502197,8.933648109436035
1765543523071052000,779.8390520019532,3.703542470932007,1.6092666387557983,8.936689376831055
1765543523081061600,779.8490615234375,3.69429349899292,1.608235478401184,8.940703392028809
1765543523091071500,779.8590715332032,3.6752212047576904,1.6022790670394897,8.949627876281738
1765543523101081000,779.8690810546875,3.6618082523345947,1.5989208221435547,8.95572566986084
1765543523111091000,779.8790910644532,3.6378884315490723,1.6002812385559082,8.965225219726562
1765543523121100800,779.8891008300782,3.6211600303649902,1.6045435667037964,8.971234321594238
1765543523151130000,779.9191301269532,3.55419659614563,1.5816174745559692,9.002031326293945
1765543523161109200,779.9291091308594,3.5281145572662354,1.5715340375900269,9.01404857635498
1765543523171088600,779.9390886230469,3.519545555114746,1.5720083713531494,9.017314910888672
1765543523181067800,779.9490678710938,3.5093653202056885,1.5745494365692139,9.02083969116211
1765543523191047000,779.959046875,3.495147466659546,1.575751781463623,9.026147842407227
1765543523201087200,779.9690871582031,3.4850096702575684,1.5761497020721436,9.029996871948242
1765543523211066600,779.9790666503907,3.4648067951202393,1.5782958269119263,9.037394523620605
1765543523221045800,779.9890456542969,3.4549996852874756,1.5891978740692139,9.039238929748535
1765543523261085000,780.0290849609376,3.4300153255462646,1.6084905862808228,9.045337677001953
1765543523271125200,780.0391252441407,3.4181807041168213,1.6033748388290405,9.050725936889648
1765543523281134800,780.049134765625,3.4029619693756104,1.601385235786438,9.056808471679688
1765543523291114200,780.0591142578126,3.393122673034668,1.6032437086105347,9.060173034667969
1765543523301123800,780.0691237792969,3.3837902545928955,1.6046624183654785,9.063409805297852
1765543523311133700,780.0791337890626,3.3698816299438477,1.6050714254379272,9.06851863861084
1765543523321174000,780.0891740722657,3.3488359451293945,1.6054514646530151,9.076244354248047
1765543523331153200,780.0991530761719,3.3277485370635986,1.6020442247390747,9.084598541259766
1765543523341163000,780.1091630859376,3.3135826587677,1.5985080003738403,9.090397834777832
1765543523371131100,780.1391311035156,3.269087076187134,1.6046772003173828,9.105408668518066
1765543523381141000,780.1491411132813,3.2544777393341064,1.6074059009552002,9.110159873962402
1765543523391150800,780.1591508789063,3.2417075634002686,1.6075316667556763,9.114689826965332
1765543523401160400,780.1691604003906,3.225257396697998,1.6061022281646729,9.12077522277832
1765543523411170300,780.1791704101563,3.205808639526367,1.6010810136795044,9.128512382507324
1765543523421180200,780.1891801757813,3.187185764312744,1.5968999862670898,9.135761260986328
1765543523431189800,780.1991896972656,3.1731672286987305,1.5995368957519531,9.140179634094238
1765543523441169200,780.2091691894532,3.161808729171753,1.6040408611297607,9.143326759338379
1765543523451178800,780.2191787109375,3.14497971534729,1.6073949337005615,9.148540496826172
1765543523471168000,780.23916796875,3.1156139373779297,1.6085731983184814,9.158374786376953
1765543523481208000,780.2492080078125,3.104121685028076,1.6120295524597168,9.161667823791504
1765543523491218000,780.2592180175782,3.0945050716400146,1.6182680130004883,9.163822174072266
1765543523501227800,780.2692277832032,3.087286949157715,1.6244566440582275,9.1651611328125
1765543523511237400,780.2792373046875,3.0788445472717285,1.638491153717041,9.16550350189209
1765543523521216800,780.289216796875,3.0739598274230957,1.6418486833572388,9.16654109954834
1765543523531226400,780.2992263183594,3.0701253414154053,1.6328425407409668,9.169435501098633
1765543523541236200,780.309236328125,3.0726242065429688,1.6326831579208374,9.16862678527832
1765543523551215400,780.3192153320313,3.07065486907959,1.6318325996398926,9.169438362121582
1765543523571204600,780.3392045898438,3.0584423542022705,1.6528730392456055,9.169751167297363
1765543523581214200,780.3492141113281,3.0528788566589355,1.660104751586914,9.170299530029297
1765543523591224000,780.3592241210938,3.0449564456939697,1.6626431941986084,9.172472953796387
1765543523601234000,780.3692338867188,3.041398286819458,1.664217472076416,9.173368453979492
1765543523611213000,780.3792131347657,3.0273687839508057,1.66452157497406,9.177952766418457
1765543523621223000,780.3892229003907,3.0195891857147217,1.6773571968078613,9.178176879882812
1765543523631202000,780.3992021484376,3.0083868503570557,1.6883950233459473,9.17983341217041
1765543523641212000,780.4092119140626,3.0048253536224365,1.6959456205368042,9.179607391357422
1765543523651191000,780.4191909179688,3.0004076957702637,1.697279453277588,9.180805206298828
1765543523671180000,780.4391799316406,2.9921517372131348,1.6993194818496704,9.183121681213379
1765543523691169000,780.4591689453125,2.9553029537200928,1.6966111660003662,9.195545196533203
1765543523701179000,780.4691789550782,2.9506723880767822,1.7001171112060547,9.196386337280273
1765543523711188700,780.4791887207032,2.9439427852630615,1.7134997844696045,9.196060180664062
1765543523721198300,780.4891982421875,2.933854579925537,1.72129225730896,9.19782829284668
1765543523731208200,780.4992082519532,2.9209136962890625,1.723219633102417,9.201584815979004
1765543523741218000,780.5092180175782,2.8834524154663086,1.7212493419647217,9.213762283325195
1765543523751227600,780.5192275390625,2.866692304611206,1.7175246477127075,9.219684600830078
1765543523761207000,780.52920703125,2.8523173332214355,1.7166186571121216,9.224310874938965
1765543523791205600,780.5592055664063,2.814135789871216,1.7261499166488647,9.2342529296875
1765543523801246000,780.5692458496094,2.8057162761688232,1.726758360862732,9.236701965332031
1765543523811225300,780.5792253417969,2.7901830673217773,1.7257648706436157,9.241591453552246
1765543523831214300,780.5992143554688,2.7629199028015137,1.7277590036392212,9.249405860900879
1765543523841224000,780.6092238769531,2.7502455711364746,1.7265921831130981,9.253400802612305
1765543523851233800,780.6192338867188,2.7430367469787598,1.7263197898864746,9.255590438842773
1765543523861243600,780.6292436523438,2.7375872135162354,1.7258169651031494,9.25729751586914
1765543523871253200,780.6392531738281,2.735851287841797,1.7291395664215088,9.257190704345703
1765543523881232600,780.6492326660157,2.7250258922576904,1.746384859085083,9.257144927978516
1765543523891211800,780.6592116699219,2.710960626602173,1.7608007192611694,9.258544921875
1765543523901221600,780.6692216796876,2.708803176879883,1.7800793647766113,9.255489349365234
1765543523911200800,780.6792006835938,2.71429705619812,1.7885814905166626,9.252241134643555
1765543523921241000,780.6892409667969,2.7241227626800537,1.7861130237579346,9.24983024597168
1765543523931251000,780.6992509765626,2.7389047145843506,1.7830203771591187,9.24605941772461
1765543523941260500,780.7092604980469,2.7672488689422607,1.7815417051315308,9.237902641296387
1765543523951270400,780.7192705078126,2.77774977684021,1.773467779159546,9.236303329467773
1765543523961280300,780.7292802734376,2.7696821689605713,1.7448152303695679,9.244180679321289
1765543523991278800,780.7592788085938,2.73496675491333,1.6883220672607422,9.264983177185059
1765543524011268000,780.7792680664063,2.7168684005737305,1.6449521780014038,9.27810001373291
1765543524021308200,780.7893081054688,2.7153561115264893,1.6415951251983643,9.27913761138916
1765543524031318000,780.7993181152344,2.7124552726745605,1.6406116485595703,9.280160903930664
1765543524041327900,780.8093278808594,2.7074007987976074,1.6407676935195923,9.281608581542969
1765543524051307000,780.8193071289063,2.702484369277954,1.639939308166504,9.283186912536621
1765543524061316900,780.8293168945313,2.70090913772583,1.6384445428848267,9.28390884399414
1765543524081336300,780.8493364257813,2.694841146469116,1.6374841928482056,9.285841941833496
1765543524091346200,780.8593461914063,2.6884405612945557,1.6395665407180786,9.287330627441406
1765543524101355800,780.8693557128906,2.68225359916687,1.6455992460250854,9.288052558898926
1765543524111335200,780.8793352050782,2.678034543991089,1.6519482135772705,9.288142204284668
1765543524131354600,780.8993547363282,2.6736843585968018,1.6560546159744263,9.288662910461426
1765543524141334000,780.909333984375,2.6710574626922607,1.6534734964370728,9.28987979888916
1765543524151374000,780.9193740234375,2.663832902908325,1.647200584411621,9.293068885803223
1765543524161353500,780.929353515625,2.656670093536377,1.6410820484161377,9.2962007522583
1765543524171393800,780.9393937988282,2.6508867740631104,1.635790228843689,9.298784255981445
1765543524201423000,780.9694230957032,2.624246835708618,1.6311899423599243,9.307146072387695
1765543524211432700,780.9794326171875,2.6176247596740723,1.6285032033920288,9.309480667114258
1765543524221442600,780.9894426269532,2.6150405406951904,1.6206464767456055,9.311577796936035
1765543524231421700,780.9994216308594,2.613095283508301,1.612189531326294,9.313591003417969
1765543524241401000,781.0094011230469,2.608607769012451,1.606768250465393,9.31578540802002
1765543524251441400,781.01944140625,2.6056792736053467,1.603108286857605,9.317234992980957
1765543524261420500,781.0294206542969,2.602447032928467,1.6028382778167725,9.318185806274414
1765543524271460900,781.0394609375,2.6034629344940186,1.6019995212554932,9.318045616149902
1765543524291449900,781.0594499511719,2.598482847213745,1.598618984222412,9.320015907287598
1765543524301459700,781.0694597167969,2.594883918762207,1.5982409715652466,9.321084022521973
1765543524311469300,781.0794692382813,2.592271566390991,1.598851203918457,9.32170581817627
1765543524321479200,781.0894792480469,2.5901668071746826,1.5995965003967285,9.322162628173828
1765543524331489000,781.0994890136719,2.58895206451416,1.5971835851669312,9.32291316986084
1765543524341498600,781.1094985351563,2.584845781326294,1.5946780443191528,9.324481964111328
1765543524351508500,781.1195085449219,2.581611156463623,1.596449375152588,9.325075149536133
1765543524361518300,781.1295183105469,2.5806238651275635,1.5974839925765991,9.32517147064209
1765543524371528000,781.1395278320313,2.578317880630493,1.59817373752594,9.325690269470215
1765543524381537800,781.1495378417969,2.5741801261901855,1.5994794368743896,9.32660961151123
1765543524401557200,781.1695571289063,2.5695114135742188,1.5930914878845215,9.328990936279297
1765543524411567000,781.1795671386719,2.567438840866089,1.589394450187683,9.330191612243652
1765543524421576700,781.1895766601563,2.561763048171997,1.5824127197265625,9.33293628692627
1765543524431586600,781.1995866699219,2.55641770362854,1.577497959136963,9.335235595703125
1765543524441627000,781.209626953125,2.5513575077056885,1.5746192932128906,9.337105751037598
1765543524451606000,781.2196059570313,2.5464725494384766,1.5696269273757935,9.339280128479004
1765543524461585400,781.2295854492188,2.5434138774871826,1.5685631036758423,9.340291976928711
1765543524471625700,781.2396257324219,2.53695011138916,1.5620479583740234,9.343141555786133
1765543524481635300,781.2496352539063,2.531933069229126,1.5543644428253174,9.345784187316895
1765543524511634200,781.2796342773438,2.5239551067352295,1.542661428451538,9.34988021850586
1765543524521613300,781.28961328125,2.521106719970703,1.5379643440246582,9.351422309875488
1765543524531653600,781.2996535644531,2.5189614295959473,1.536139726638794,9.352298736572266
1765543524541663500,781.3096635742188,2.518369436264038,1.5314240455627441,9.353230476379395
1765543524551673300,781.3196733398438,2.515789270401001,1.5288118124008179,9.354351997375488
1765543524561652500,781.3296525878907,2.514807939529419,1.529837727546692,9.354449272155762
1765543524571662300,781.3396623535157,2.5126123428344727,1.5312398672103882,9.354811668395996
1765543524581672000,781.349671875,2.5122036933898926,1.5312910079956055,9.354910850524902
1765543524591681800,781.3596818847657,2.5133955478668213,1.5288865566253662,9.354986190795898
1765543524611670800,781.3796708984376,2.5171115398406982,1.5236600637435913,9.354838371276855
1765543524621650200,781.3896501464844,2.5186147689819336,1.5236055850982666,9.354442596435547
1765543524631629300,781.3996293945313,2.5194151401519775,1.5250126123428345,9.353997230529785
1765543524641639200,781.4096391601563,2.5178613662719727,1.5273723602294922,9.354031562805176
1765543524651618300,781.4196184082032,2.5207536220550537,1.5272365808486938,9.35327434539795
1765543524661628200,781.4296281738282,2.521000385284424,1.5270447731018066,9.353238105773926
1765543524671637800,781.4396376953125,2.517961263656616,1.5266306400299072,9.354124069213867
1765543524681617200,781.4496171875,2.5170536041259766,1.5254932641983032,9.3545560836792
1765543524691626800,781.4596267089844,2.5182273387908936,1.5238959789276123,9.354500770568848
1765543524721656000,781.4896560058594,2.5193302631378174,1.5194720029830933,9.3549222946167
1765543524731635500,781.4996354980469,2.5170857906341553,1.5204912424087524,9.355361938476562
1765543524741614600,781.5096145019531,2.5168676376342773,1.518054723739624,9.355814933776855
1765543524751655000,781.5196550292969,2.5159406661987305,1.5167906284332275,9.356268882751465
1765543524761664800,781.5296647949219,2.5162808895111084,1.5117127895355225,9.356999397277832
1765543524771674400,781.5396743164063,2.5172171592712402,1.5080212354660034,9.357343673706055
1765543524781653800,781.5496538085938,2.5176632404327393,1.5053741931915283,9.357649803161621
1765543524791663400,781.5596633300781,2.515397548675537,1.5046030282974243,9.358384132385254
1765543524801642800,781.5696428222657,2.512491464614868,1.504776954650879,9.359136581420898
1765543524841651200,781.6096511230469,2.5083816051483154,1.4978660345077515,9.361348152160645
1765543524851661000,781.6196611328126,2.5064918994903564,1.4968185424804688,9.362020492553711
1765543524861671000,781.6296708984376,2.504704475402832,1.4935169219970703,9.36302661895752
1765543524871650000,781.6396501464844,2.5030057430267334,1.491502046585083,9.363801002502441
1765543524881629200,781.6496291503906,2.50184965133667,1.4879945516586304,9.364667892456055
1765543524891669500,781.6596694335938,2.5007734298706055,1.4861215353012085,9.365251541137695
1765543524901679400,781.6696794433594,2.4979536533355713,1.4850854873657227,9.366168022155762
1765543524941687800,781.7096877441406,2.501065254211426,1.477442979812622,9.366547584533691
1765543524951697700,781.7196977539063,2.501119613647461,1.4747328758239746,9.366959571838379
1765543524961738000,781.7297380371094,2.499793767929077,1.4719550609588623,9.367751121520996
1765543524971717000,781.7397170410156,2.4986283779144287,1.470372200012207,9.36830997467041
1765543524981696500,781.7496965332032,2.4971861839294434,1.4702163934707642,9.368720054626465
1765543524991736800,781.7597368164063,2.496596574783325,1.4673281908035278,9.369329452514648
1765543525001716000,781.7697160644532,2.496687173843384,1.4645133018493652,9.369746208190918
1765543525011725800,781.7797258300782,2.493886709213257,1.4623416662216187,9.370829582214355
1765543525031775700,781.7997756347656,2.494706630706787,1.4622304439544678,9.370630264282227
1765543525041755100,781.8097551269532,2.4958653450012207,1.4599283933639526,9.370680809020996
1765543525051734300,781.819734375,2.4940052032470703,1.4578063488006592,9.371506690979004
1765543525061805000,781.8298051757813,2.4952754974365234,1.4567101001739502,9.371338844299316
1765543525071815000,781.8398149414063,2.503690719604492,1.453666090965271,9.369565963745117
1765543525081855200,781.8498552246094,2.5164883136749268,1.4497311115264893,9.366747856140137
1765543525091834400,781.8598344726563,2.5293970108032227,1.4468743801116943,9.3637113571167
1765543525101844200,781.8698442382813,2.539066791534424,1.4481689929962158,9.360893249511719
1765543525111823400,781.8798232421875,2.541792392730713,1.4501252174377441,9.359851837158203
1765543525121833200,781.8898332519532,2.5440123081207275,1.4415773153305054,9.36056900024414
1765543525161902800,781.9299028320313,2.5581109523773193,1.4294856786727905,9.358580589294434
1765543525171912400,781.9399123535156,2.570348024368286,1.4334288835525513,9.35462474822998
1765543525181922300,781.9499223632813,2.5882408618927,1.4463626146316528,9.347695350646973
1765543525191932200,781.9599321289063,2.6171464920043945,1.4577252864837646,9.337879180908203
1765543525201941800,781.9699416503906,2.661389112472534,1.4685828685760498,9.323661804199219
1765543525211890400,781.9798903808594,2.6830391883850098,1.4741677045822144,9.316572189331055
1765543525221900300,781.989900390625,2.76216983795166,1.5041791200637817,9.288607597351074
1765543525241919700,782.0099196777344,2.855015277862549,1.5729408264160156,9.24906063079834
1765543525251929600,782.0199296875,2.892421245574951,1.607373595237732,9.231502532958984
1765543525261939500,782.029939453125,2.931258201599121,1.6326661109924316,9.214798927307129
1765543525271918600,782.0399187011719,2.966270923614502,1.6418125629425049,9.201959609985352
1765543525281959000,782.049958984375,2.9805068969726562,1.6392912864685059,9.197809219360352
1765543525291938000,782.0599379882813,3.0170974731445312,1.6553544998168945,9.182991027832031
1765543525301948000,782.0699479980469,3.0342860221862793,1.664307713508606,9.17570686340332
1765543525311957800,782.0799577636719,3.0439352989196777,1.6516060829162598,9.174806594848633
1765543525321967400,782.0899672851563,3.0463593006134033,1.6405502557754517,9.175984382629395
1765543525331946800,782.0999467773438,3.038135051727295,1.5960400104522705,9.186554908752441
1765543525361945300,782.1299453125,2.9694559574127197,1.527381420135498,9.220619201660156
1765543525371955200,782.139955078125,2.962862014770508,1.5068011283874512,9.22612476348877
1765543525381965000,782.1499650878907,2.9604811668395996,1.48627769947052,9.230218887329102
1765543525391974700,782.159974609375,2.960834264755249,1.4674338102340698,9.233119010925293
1765543525402015000,782.1700148925781,2.9606244564056396,1.458936095237732,9.234533309936523
1765543525411994400,782.1799943847657,2.958613634109497,1.4507547616958618,9.236466407775879
1765543525422004000,782.19000390625,2.9567134380340576,1.4520155191421509,9.236876487731934
1765543525432013800,782.2000139160157,2.9462084770202637,1.442137360572815,9.241781234741211
1765543525462073600,782.2300734863281,2.9199540615081787,1.4288585186004639,9.252168655395508
1765543525472083500,782.2400834960938,2.912250518798828,1.4300661087036133,9.254408836364746
1765543525492103000,782.2601030273438,2.8948278427124023,1.4348849058151245,9.259129524230957
1765543525502112800,782.2701127929688,2.8908472061157227,1.436847448348999,9.260068893432617
1765543525512122400,782.2801223144531,2.866687059402466,1.448512077331543,9.265761375427246
1765543525522132200,782.2901323242188,2.8568572998046875,1.460218906402588,9.266959190368652
1765543525532081000,782.3000808105469,2.8276796340942383,1.4794787168502808,9.27285099029541
1765543525552100600,782.3201005859376,2.7816922664642334,1.5178121328353882,9.280563354492188
1765543525562110200,782.3301101074219,2.7657904624938965,1.528874158859253,9.283498764038086
1765543525572120000,782.3401201171876,2.759209394454956,1.556541919708252,9.28085994720459
1765543525582129700,782.3501296386719,2.7613024711608887,1.5788503885269165,9.276466369628906
1765543525592139500,782.3601394042969,2.7626919746398926,1.602268099784851,9.272035598754883
1765543525612159000,782.3801589355469,2.7729299068450928,1.6223949193954468,9.265480041503906
1765543525622168800,782.3901689453126,2.7876737117767334,1.6050935983657837,9.264066696166992
1765543525632209200,782.4002092285157,2.8004963397979736,1.5912816524505615,9.262582778930664
1765543525662208000,782.4302080078126,2.8464527130126953,1.5805987119674683,9.250394821166992
1765543525672217600,782.4402175292969,2.8586061000823975,1.5855523347854614,9.245798110961914
1765543525682227500,782.4502275390626,2.884218215942383,1.5689377784729004,9.240676879882812
1765543525692237300,782.4602373046876,2.8868279457092285,1.5567245483398438,9.241927146911621
1765543525702247000,782.4702468261719,2.913187026977539,1.5306074619293213,9.238018989562988
1765543525712256800,782.4802568359376,2.9211790561676025,1.5131871700286865,9.238364219665527
1765543525722297000,782.4902971191407,2.9561049938201904,1.5049893856048584,9.228588104248047
1765543525732306700,782.500306640625,2.9764351844787598,1.4993315935134888,9.222973823547363
1765543525742286000,782.5102861328126,2.9935126304626465,1.4950056076049805,9.218146324157715
1765543525772315400,782.5403154296876,3.076077461242676,1.4366469383239746,9.200227737426758
1765543525782294500,782.5502944335938,3.1470303535461426,1.4467147588729858,9.174616813659668
1765543525792334800,782.5603349609376,3.2150137424468994,1.4594155550003052,9.14900016784668
1765543525802344700,782.5703447265626,3.275871753692627,1.4694896936416626,9.125767707824707
1765543525812323800,782.5803237304688,3.355412244796753,1.4368666410446167,9.102034568786621
1765543525822333700,782.5903337402344,3.402348756790161,1.4075506925582886,9.089180946350098
1765543525832343300,782.6003432617188,3.425747871398926,1.3996541500091553,9.081608772277832
1765543525842353200,782.6103532714844,3.4663007259368896,1.379431962966919,9.069306373596191
1765543525872382500,782.6403825683594,3.505164384841919,1.2789461612701416,9.069095611572266
1765543525882392300,782.6503923339844,3.5076282024383545,1.247052788734436,9.072585105895996
1765543525892371500,782.6603713378906,3.501746892929077,1.1802459955215454,9.083786964416504
1765543525902411800,782.6704118652344,3.495051622390747,1.1377668380737305,9.091781616210938
1765543525912421600,782.6804216308594,3.4933712482452393,1.1047672033309937,9.09649658203125
