time,seconds_elapsed,z,y,x
1765542740075812600,-3.1561875,0.40462008118629456,-0.15322890877723694,-0.3016694188117981
1765542740095801600,-3.136198486328125,0.18914192914962769,0.24899697303771973,-0.13407529890537262
1765542740105842000,-3.126157958984375,0.08379705995321274,0,-0.1173158809542656
1765542740125831000,-3.106169189453125,0.17238251864910126,0.019153613597154617,-0.1149216815829277
1765542740135810000,-3.09618994140625,0.1628057211637497,0.08858546614646912,-0.011971008032560349
1765542740145850400,-3.086149658203125,0.09816227108240128,0.0454898327589035,-0.07422025501728058
1765542740155860200,-3.076139892578125,0.06224924325942993,-0.2082955539226532,-0.08379705995321274
1765542740165869800,-3.066130126953125,0.07422025501728058,-0.090979665517807,-0.07661445438861847
1765542740175879700,-3.056120361328125,0.07900865375995636,0.033518824726343155,0.014365210197865963
1765542740185920000,-3.046080078125,0.08379705995321274,-0.08140286058187485,0.07661445438861847
1765542740215949300,-3.01605078125,0.1867477297782898,-0.304063618183136,0.004788403399288654
1765542740235938300,-2.996061767578125,0.2753331959247589,-0.011971008032560349,0.047884032130241394
1765542740245978600,-2.986021484375,0.24181437492370605,0.014365210197865963,0.11252748221158981
1765542740255988200,-2.97601171875,0.2968810200691223,-0.009576806798577309,0.031124621629714966
1765542740266028500,-2.965971435546875,0.2944868206977844,-0.0454898327589035,-0.021547814831137657
1765542740276008000,-2.955991943359375,0.33518823981285095,-0.0694318488240242,-0.023942016065120697
1765542740286017500,-2.945982421875,0.3734954595565796,0.019153613597154617,0.023942016065120697
1765542740296027400,-2.93597265625,0.4189853072166443,0.10773907601833344,0.026336219161748886
1765542740335975000,-2.896025146484375,0.16519992053508759,-0.026336219161748886,-0.043095629662275314
1765542740346045700,-2.885954345703125,0.05985504388809204,0.11252748221158981,-0.12210428714752197
1765542740356024800,-2.87597509765625,0.13407529890537262,-0.009576806798577309,-0.0454898327589035
1765542740366065200,-2.865934814453125,0.15801730751991272,0.1364694982767105,-0.0071826050989329815
1765542740386084900,-2.8459150390625,0.06703764945268631,0.08858546614646912,-0.028730420395731926
1765542740396094500,-2.835905517578125,0.014365210197865963,0.028730420395731926,-0.0454898327589035
1765542740416114000,-2.815885986328125,-0.035913024097681046,0.1173158809542656,-0.035913024097681046
1765542740426123800,-2.805876220703125,-0.05027823522686958,-0.17238251864910126,-0.011971008032560349
1765542740436103200,-2.795896728515625,0,-0.1604115068912506,-0.016759412363171577
1765542740446143200,-2.785856689453125,0.090979665517807,-0.15322890877723694,0.028730420395731926
1765542740456153000,-2.775846923828125,0.17238251864910126,-0.0454898327589035,0.08140286058187485
1765542740476142000,-2.75585791015625,0.17956513166427612,0.002394201699644327,0.07182604819536209
1765542740486121500,-2.74587841796875,0.08140286058187485,-0.08379705995321274,-0.023942016065120697
1765542740496100600,-2.7358994140625,0.047884032130241394,0.07182604819536209,0.05027823522686958
1765542740506110500,-2.7258896484375,0.10055647045373917,-0.028730420395731926,0.05506663769483566
1765542740536109000,-2.695890869140625,0.07900865375995636,-0.2585737705230713,-0.14604631066322327
1765542740546088400,-2.68591162109375,0.17238251864910126,-0.06464344263076782,-0.0694318488240242
1765542740556067600,-2.675932373046875,0.17956513166427612,-0.07661445438861847,-0.0071826050989329815
1765542740566108000,-2.66589208984375,0.2801215946674347,0.05746084079146385,-0.08379705995321274
1765542740576117800,-2.65588232421875,0.3663128614425659,0.15562310814857483,-0.026336219161748886
1765542740586127400,-2.64587255859375,0.3687070608139038,0.15562310814857483,-0.05027823522686958
1765542740596106800,-2.635893310546875,0.35434186458587646,0.19871874153614044,-0.12928688526153564
1765542740606086000,-2.6259140625,0.2801215946674347,0.031124621629714966,-0.1364694982767105
1765542740616065300,-2.615934814453125,0.19871874153614044,-0.1364694982767105,0.019153613597154617
1765542740646063900,-2.58593603515625,0.181959331035614,-0.040701430290937424,0.08140286058187485
1765542740656073700,-2.57592626953125,0.20111294090747833,0.031124621629714966,0.07900865375995636
1765542740666053000,-2.56594677734375,0.16759411990642548,0.031124621629714966,0.15801730751991272
1765542740676062700,-2.555937255859375,0.16759411990642548,-0.023942016065120697,0.07422025501728058
1765542740686042000,-2.5459580078125,0.1604115068912506,-0.29209262132644653,0.004788403399288654
1765542740696051700,-2.5359482421875,0.2082955539226532,-0.023942016065120697,0.1867477297782898
1765542740706031000,-2.525968994140625,0.20350714027881622,0,0.021547814831137657
1765542740716010200,-2.51598974609375,0.13407529890537262,0.021547814831137657,-0.016759412363171577
1765542740726050600,-2.505949462890625,0.33518823981285095,0.023942016065120697,0
1765542740756019000,-2.47598095703125,0.2968810200691223,-0.2585737705230713,-0.11971008777618408
1765542740766028500,-2.465971435546875,0.31603461503982544,-0.016759412363171577,-0.10534487664699554
1765542740776038400,-2.455961669921875,0.33279404044151306,0.06703764945268631,-0.05985504388809204
1765542740786017500,-2.445982421875,0.3447650372982025,0.08140286058187485,-0.19632454216480255
1765542740795997000,-2.436003173828125,0.22744916379451752,0.0454898327589035,-0.181959331035614
1765542740806006500,-2.425993408203125,0.22266076505184174,0.08858546614646912,-0.12449848651885986
1765542740816016400,-2.415983642578125,0.21547815203666687,0.026336219161748886,-0.22266076505184174
1765542740856024800,-2.37597509765625,0.043095629662275314,0.11013327538967133,-0.033518824726343155
1765542740866034700,-2.36596533203125,0.07900865375995636,-0.1604115068912506,-0.031124621629714966
1765542740876044500,-2.35595556640625,0.019153613597154617,-0.1149216815829277,-0.06464344263076782
1765542740886054100,-2.34594580078125,0.035913024097681046,-0.0694318488240242,0.10055647045373917
1765542740896064000,-2.33593603515625,0.06703764945268631,-0.07900865375995636,0.08140286058187485
1765542740906073900,-2.325926025390625,0.06224924325942993,-0.07900865375995636,-0.040701430290937424
1765542740916053000,-2.315947021484375,0.11971008777618408,0.019153613597154617,0.002394201699644327
1765542740926093300,-2.30590673828125,0.16759411990642548,-0.033518824726343155,0.05506663769483566
1765542740976111600,-2.255888427734375,0.08619125932455063,-0.07422025501728058,0.002394201699644327
1765542740986121500,-2.24587841796875,0.10055647045373917,-0.05506663769483566,-0.004788403399288654
1765542740996131000,-2.235868896484375,0.23702596127986908,0.004788403399288654,0.08379705995321274
1765542741006141000,-2.225859130859375,0.2849099934101105,-0.06224924325942993,0.08619125932455063
1765542741016150800,-2.21584912109375,0.3519476354122162,-0.026336219161748886,0.009576806798577309
1765542741026160400,-2.205839599609375,0.1412578970193863,0.11252748221158981,0.08858546614646912
1765542741036170200,-2.195829833984375,0.1364694982767105,0.0933738648891449,0.19632454216480255
1765542741066199600,-2.165800537109375,0.2968810200691223,-0.08858546614646912,0.043095629662275314
1765542741076209200,-2.155790771484375,0.33279404044151306,-0.27054479718208313,0.019153613597154617
1765542741086188500,-2.1458115234375,0.2561795711517334,-0.12928688526153564,0.047884032130241394
1765542741096198100,-2.1358017578125,0.30885201692581177,0.002394201699644327,-0.08619125932455063
1765542741106208000,-2.1257919921875,0.33279404044151306,-0.009576806798577309,-0.002394201699644327
1765542741116217900,-2.1157822265625,0.3519476354122162,-0.004788403399288654,-0.12210428714752197
1765542741126197000,-2.105802978515625,0.33758243918418884,0.11013327538967133,-0.11013327538967133
1765542741136206800,-2.095793212890625,0.2992752194404602,-0.05506663769483566,-0.09816227108240128
1765542741146216700,-2.085783203125,0.2537853717803955,0.009576806798577309,-0.06464344263076782
1765542741196296000,-2.0357041015625,0.15562310814857483,0.08140286058187485,0.004788403399288654
1765542741206336300,-2.025663818359375,0.10295066982507706,0.17477671802043915,0.0071826050989329815
1765542741216345900,-2.015654052734375,0.19393034279346466,0.1412578970193863,0.004788403399288654
1765542741226325200,-2.0056748046875,0.15562310814857483,0.05506663769483566,-0.10055647045373917
1765542741236304400,-1.995695556640625,0.1388636976480484,0.05506663769483566,-0.14844051003456116
1765542741246344700,-1.9856552734375,0.15083470940589905,-0.090979665517807,-0.0933738648891449
1765542741256324000,-1.975676025390625,0.10295066982507706,-0.27054479718208313,-0.08140286058187485
1765542741286322700,-1.94567724609375,0.15322890877723694,-0.1364694982767105,0.06224924325942993
1765542741296302000,-1.935697998046875,0.19153612852096558,-0.1867477297782898,-0.043095629662275314
1765542741306311700,-1.925688232421875,0.2561795711517334,0.011971008032560349,-0.09816227108240128
1765542741316321500,-1.915678466796875,0.2322375625371933,0.1628057211637497,-0.043095629662275314
1765542741336310500,-1.895689453125,0.1628057211637497,0.15801730751991272,-0.0071826050989329815
1765542741346320400,-1.8856796875,0.12210428714752197,-0.10534487664699554,-0.07661445438861847
1765542741356299500,-1.875700439453125,0.19393034279346466,-0.24660277366638184,-0.15562310814857483
1765542741366339800,-1.86566015625,0.2298433631658554,-0.05746084079146385,-0.17238251864910126
1765542741386328800,-1.845671142578125,0.21787235140800476,0.06464344263076782,-0.05506663769483566
1765542741396338700,-1.835661376953125,0.20350714027881622,-0.014365210197865963,-0.10295066982507706
1765542741406348500,-1.8256513671875,0.17238251864910126,0.0071826050989329815,-0.023942016065120697
1765542741416358100,-1.815641845703125,0.15083470940589905,-0.08858546614646912,-0.031124621629714966
1765542741426368000,-1.805632080078125,0.17717093229293823,0.009576806798577309,-0.043095629662275314
1765542741436347100,-1.79565283203125,0.17717093229293823,0.0454898327589035,0.028730420395731926
1765542741446357000,-1.78564306640625,0.17956513166427612,-0.033518824726343155,-0.08379705995321274
1765542741456366800,-1.775633056640625,0.2298433631658554,0.026336219161748886,-0.047884032130241394
1765542741466407000,-1.765593017578125,0.17238251864910126,-0.033518824726343155,0.07422025501728058
1765542741516394800,-1.715605224609375,0.14604631066322327,0.10055647045373917,-0.08140286058187485
1765542741526404600,-1.705595458984375,0.16759411990642548,-0.016759412363171577,0.035913024097681046
1765542741536414500,-1.69558544921875,0.13407529890537262,-0.1628057211637497,0.002394201699644327
1765542741546424000,-1.685575927734375,0.12928688526153564,0.08858546614646912,0.019153613597154617
1765542741556434000,-1.675566162109375,0.22744916379451752,0.0071826050989329815,0.06224924325942993
1765542741566443500,-1.665556396484375,0.3232172429561615,-0.035913024097681046,-0.05746084079146385
1765542741576392400,-1.655607666015625,0.3447650372982025,0.002394201699644327,-0.06224924325942993
1765542741606421800,-1.625578125,0.1628057211637497,-0.11252748221158981,-0.10534487664699554
1765542741616431400,-1.615568603515625,0.2298433631658554,0.11252748221158981,0.0071826050989329815
1765542741626441200,-1.605558837890625,0.24181437492370605,-0.040701430290937424,0.002394201699644327
1765542741636420400,-1.59557958984375,0.3256114423274994,-0.2059013396501541,-0.18914192914962769
1765542741646430200,-1.58556982421875,0.36152446269989014,0.0694318488240242,-0.0933738648891449
1765542741656409300,-1.575590576171875,0.35673606395721436,0.17717093229293823,0.016759412363171577
1765542741666388700,-1.565611328125,0.2561795711517334,0.08379705995321274,-0.05985504388809204
1765542741676398600,-1.555601318359375,0.15562310814857483,0.06224924325942993,-0.05985504388809204
1765542741726417000,-1.5055830078125,0.1364694982767105,-0.07422025501728058,0.0454898327589035
1765542741736426500,-1.495573486328125,0.12210428714752197,-0.016759412363171577,0.05267243832349777
1765542741746436400,-1.485563720703125,0.07182604819536209,0.06224924325942993,-0.0454898327589035
1765542741756446000,-1.475553955078125,0.1149216815829277,-0.031124621629714966,-0.028730420395731926
1765542741766455800,-1.465544189453125,0.19153612852096558,-0.1364694982767105,-0.011971008032560349
1765542741776465700,-1.455534423828125,0.19871874153614044,-0.17717093229293823,0.002394201699644327
1765542741786444800,-1.44555517578125,0.14604631066322327,-0.06464344263076782,-0.05267243832349777
1765542741796454700,-1.43554541015625,0.1412578970193863,0.05985504388809204,-0.05985504388809204
1765542741826453500,-1.40554638671875,0.15801730751991272,-0.028730420395731926,0.0071826050989329815
1765542741836371700,-1.395628173828125,0.10295066982507706,0.035913024097681046,0
1765542741856421600,-1.375578369140625,0.24420857429504395,0.20350714027881622,-0.05506663769483566
1765542741866401000,-1.365598876953125,0.21547815203666687,0.15083470940589905,-0.1149216815829277
1765542741876349700,-1.355650390625,0.2298433631658554,0.07661445438861847,-0.014365210197865963
1765542741886359300,-1.345640625,0.19632454216480255,-0.031124621629714966,0
1765542741916388600,-1.315611328125,0.12689268589019775,0.028730420395731926,-0.10295066982507706
1765542741926368000,-1.305632080078125,0.0694318488240242,0.004788403399288654,-0.0454898327589035
1765542741936377600,-1.295622314453125,0.17477671802043915,-0.06224924325942993,-0.0071826050989329815
1765542741946357000,-1.28564306640625,0.14844051003456116,-0.016759412363171577,0.011971008032560349
1765542741956336000,-1.275663818359375,0.2992752194404602,-0.035913024097681046,-0.043095629662275314
1765542741966346000,-1.265654052734375,0.3519476354122162,0.090979665517807,-0.11971008777618408
1765542741976355800,-1.25564404296875,0.35434186458587646,0.22266076505184174,-0.06224924325942993
1765542741986396000,-1.24560400390625,0.29209262132644653,0.1173158809542656,-0.004788403399288654
1765542742006415600,-1.22558447265625,0.31842881441116333,0.035913024097681046,-0.011971008032560349
1765542742016394800,-1.215605224609375,0.28730419278144836,0.2298433631658554,0.06464344263076782
1765542742026404600,-1.205595458984375,0.28730419278144836,0.1149216815829277,0.08619125932455063
1765542742036414500,-1.19558544921875,0.3016694188117981,0.028730420395731926,0.002394201699644327
1765542742046424000,-1.185575927734375,0.24181437492370605,-0.06224924325942993,-0.06224924325942993
1765542742056403500,-1.175596435546875,0.23942017555236816,-0.19393034279346466,-0.019153613597154617
1765542742066413000,-1.1655869140625,0.22744916379451752,-0.2059013396501541,-0.07900865375995636
1765542742076392400,-1.155607666015625,0.19871874153614044,-0.2513911724090576,-0.10773907601833344
1765542742086432800,-1.145567138671875,0.20350714027881622,-0.06703764945268631,-0.07182604819536209
1765542742096442400,-1.1355576171875,0.2322375625371933,-0.035913024097681046,-0.031124621629714966
1765542742116431400,-1.115568603515625,0.181959331035614,0.1388636976480484,0.002394201699644327
1765542742126410800,-1.10558935546875,0.1412578970193863,0.19393034279346466,-0.0694318488240242
1765542742136420400,-1.09557958984375,0.12449848651885986,0.1149216815829277,-0.009576806798577309
1765542742146460700,-1.085539306640625,0.0694318488240242,-0.12928688526153564,-0.06703764945268631
1765542742156470500,-1.075529541015625,0.05985504388809204,-0.19393034279346466,-0.13168109953403473
1765542742166510800,-1.0654892578125,0.090979665517807,-0.21787235140800476,0.021547814831137657
1765542742176520400,-1.0554794921875,0.15322890877723694,-0.09576806426048279,-0.035913024097681046
1765542742186530300,-1.0454697265625,0.181959331035614,-0.05506663769483566,0.019153613597154617
1765542742196509400,-1.035490478515625,0.2537853717803955,0.047884032130241394,0.011971008032560349
1765542742226569500,-1.005430419921875,0.2059013396501541,-0.07900865375995636,-0.07661445438861847
1765542742296576800,-0.93542333984375,0.17717093229293823,-0.08140286058187485,-0.06703764945268631
1765542742307586600,-0.924413330078125,0.23942017555236816,-0.22266076505184174,0.014365210197865963
1765542742317596200,-0.91440380859375,0.2298433631658554,-0.16759411990642548,0.0071826050989329815
1765542742347656000,-0.884343994140625,0.1867477297782898,0.1364694982767105,0.038307227194309235
1765542742357696300,-0.8743037109375,0.20350714027881622,0.031124621629714966,-0.05985504388809204
1765542742367706000,-0.8642939453125,0.17238251864910126,0.038307227194309235,-0.026336219161748886
1765542742377777000,-0.85422314453125,0.19393034279346466,0.05267243832349777,0.0071826050989329815
1765542742387786800,-0.844213134765625,0.021547814831137657,-0.038307227194309235,0.0933738648891449
1765542742397796400,-0.83420361328125,0.019153613597154617,-0.031124621629714966,0.07900865375995636
1765542742407806200,-0.82419384765625,0.016759412363171577,-0.11971008777618408,0.026336219161748886
1765542742417785300,-0.814214599609375,0.021547814831137657,-0.06224924325942993,0
1765542742437805000,-0.79419482421875,0.14844051003456116,-0.1843535304069519,-0.0933738648891449
1765542742447814700,-0.784185302734375,0.272938996553421,0.040701430290937424,-0.10295066982507706
1765542742457794000,-0.7742060546875,0.24660277366638184,0.2777273952960968,-0.1604115068912506
1765542742467803600,-0.7641962890625,0.15562310814857483,0.31364041566848755,-0.014365210197865963
1765542742477813500,-0.7541865234375,0.08619125932455063,0.1388636976480484,0.040701430290937424
1765542742487823400,-0.7441767578125,0.043095629662275314,-0.15322890877723694,0.016759412363171577
1765542742497863700,-0.73413623046875,0.09816227108240128,-0.1843535304069519,0.1364694982767105
1765542742507873300,-0.724126708984375,0.08379705995321274,-0.016759412363171577,0.21787235140800476
1765542742517883100,-0.714116943359375,0.17956513166427612,0.05746084079146385,0.09576806426048279
1765542742527892700,-0.704107177734375,0.19871874153614044,0.011971008032560349,0.05027823522686958
1765542742557891600,-0.6741083984375,0.19871874153614044,-0.023942016065120697,-0.05985504388809204
1765542742567901400,-0.6640986328125,0.21547815203666687,-0.019153613597154617,-0.047884032130241394
1765542742577850000,-0.65414990234375,0.19153612852096558,-0.011971008032560349,0.016759412363171577
1765542742587860000,-0.64414013671875,0.12689268589019775,-0.06464344263076782,0.033518824726343155
1765542742597839000,-0.634160888671875,0.090979665517807,-0.09816227108240128,0.035913024097681046
1765542742607849000,-0.624151123046875,0.07661445438861847,-0.18914192914962769,0.06464344263076782
1765542742617858600,-0.614141357421875,0.08379705995321274,-0.16759411990642548,0.040701430290937424
1765542742627868400,-0.604131591796875,0.19153612852096558,-0.014365210197865963,0.07182604819536209
1765542742667907600,-0.564092529296875,0.19632454216480255,0.0694318488240242,-0.026336219161748886
1765542742677917200,-0.554082763671875,0.1843535304069519,0.2082955539226532,-0.11971008777618408
1765542742687927000,-0.544072998046875,0.17956513166427612,0.22266076505184174,-0.10773907601833344
1765542742697937000,-0.53406298828125,0.22026655077934265,0.05506663769483566,-0.21308395266532898
1765542742707946500,-0.524053466796875,0.12449848651885986,0,-0.1388636976480484
1765542742717956400,-0.514043701171875,0.14844051003456116,-0.08619125932455063,-0.16998831927776337
1765542742727966200,-0.50403369140625,0.17956513166427612,-0.21308395266532898,-0.1604115068912506
1765542742737975800,-0.494024169921875,0.10534487664699554,-0.06464344263076782,-0.24660277366638184
1765542742757995300,-0.474004638671875,0.0454898327589035,0.19632454216480255,-0.27054479718208313
1765542742768005000,-0.463994873046875,-0.07661445438861847,0.31364041566848755,-0.44771572947502136
1765542742778015000,-0.453985107421875,-0.11013327538967133,0.4620809257030487,-0.5793967843055725
1765542742788024600,-0.443975341796875,-0.026336219161748886,0.2801215946674347,-0.6536170840263367
1765542742798034400,-0.433965576171875,-0.038307227194309235,0.5482721924781799,-0.5482721924781799
1765542742808074800,-0.42392529296875,0.047884032130241394,0.28730419278144836,-0.17477671802043915
1765542742818115000,-0.413885009765625,0.033518824726343155,-0.06224924325942993,-0.0071826050989329815
1765542742828124700,-0.403875244140625,0.0933738648891449,-0.13407529890537262,-0.15083470940589905
1765542742848144400,-0.383855712890625,0.26815059781074524,-0.2082955539226532,-0.16998831927776337
1765542742868163800,-0.363836181640625,0.21787235140800476,-0.42377370595932007,-0.2346317619085312
1765542742878173700,-0.353826416015625,0.21308395266532898,-0.40462008118629456,-0.2513911724090576
1765542742888183300,-0.343816650390625,0.08140286058187485,-0.2561795711517334,-0.14365209639072418
1765542742898132200,-0.33386767578125,0.12449848651885986,-0.16998831927776337,0.26336219906806946
1765542742908141800,-0.323858154296875,0.038307227194309235,-0.038307227194309235,0.38067805767059326
1765542742918151700,-0.313848388671875,0.090979665517807,-0.3016694188117981,0.38546648621559143
1765542742928192000,-0.30380810546875,0.21547815203666687,-0.43095630407333374,0.2825157940387726
1765542742938201600,-0.29379833984375,0.18914192914962769,-0.4118026793003082,0.24420857429504395
1765542742948181000,-0.283819091796875,0.2059013396501541,-0.14844051003456116,0.363918662071228
1765542742998229800,-0.233770263671875,-0.15083470940589905,-0.3974374830722809,0.2801215946674347
1765542743018280000,-0.213719970703125,-0.019153613597154617,-0.19393034279346466,0.40701428055763245
1765542743028289500,-0.20371044921875,0.24660277366638184,-0.2801215946674347,0.4165911078453064
1765542743038269000,-0.19373095703125,0.3998316824436188,-0.090979665517807,0.3734954595565796
1765542743048278500,-0.183721435546875,0.4908113479614258,0.05746084079146385,0.1628057211637497
1765542743058288400,-0.173711669921875,0.5051765441894531,0.09816227108240128,-0.031124621629714966
1765542743068328700,-0.16367138671875,0.6751648783683777,0.22744916379451752,0.035913024097681046
1765542743078338300,-0.15366162109375,0.6727706789970398,0.2346317619085312,0.026336219161748886
1765542743098358000,-0.13364208984375,0.7254431247711182,0.047884032130241394,-0.021547814831137657
1765542743108398300,-0.1236015625,0.6943184733390808,-0.20350714027881622,-0.016759412363171577
1765542743118408000,-0.113592041015625,0.7661445140838623,-0.3064578175544739,0.002394201699644327
1765542743128448300,-0.1035517578125,0.7613561153411865,-0.2849099934101105,0.06464344263076782
1765542743138458000,-0.0935419921875,0.727837324142456,-0.2298433631658554,0.1867477297782898
1765542743148467700,-0.0835322265625,0.5506663918495178,0.019153613597154617,0.23702596127986908
1765542743158477600,-0.0735224609375,0.4572925269603729,-0.31603461503982544,0.31842881441116333
1765542743168487400,-0.0635126953125,0.2777273952960968,-0.3758896589279175,0.1843535304069519
1765542743178497000,-0.0535029296875,0.05027823522686958,-0.18914192914962769,0.38067805767059326
1765542743208526300,-0.0234736328125,-0.1628057211637497,-0.45250412821769714,0.4812345504760742
1765542743218536200,-0.0134638671875,-0.16998831927776337,-0.5482721924781799,0.47165772318840027
1765542743228546000,-0.003453857421875,-0.08619125932455063,-0.33997663855552673,0.4118026793003082
1765542743238555600,0.0065556640625,0.08140286058187485,-0.2346317619085312,0.21308395266532898
1765542743248565500,0.0165654296875,0.07661445438861847,-0.13168109953403473,-0.019153613597154617
1765542743258575000,0.0265751953125,0.05267243832349777,-0.031124621629714966,-0.09816227108240128
1765542743268615400,0.036615478515625,0.047884032130241394,-0.1149216815829277,0.05506663769483566
1765542743278594800,0.0465947265625,0.08619125932455063,-0.30885201692581177,-0.16998831927776337
1765542743288604400,0.0566044921875,0.10055647045373917,-0.15801730751991272,-0.3519476354122162
1765542743308624100,0.0766240234375,0.22744916379451752,0.3902548849582672,-0.3256114423274994
1765542743318603300,0.086603271484375,0.2801215946674347,0.12210428714752197,-0.4620809257030487
1765542743328613000,0.096613037109375,0.21308395266532898,-0.021547814831137657,-0.6320692300796509
1765542743338592300,0.10659228515625,0.2944868206977844,0.19153612852096558,-0.6751648783683777
1765542743348571600,0.116571533203125,0.35913026332855225,0.49559974670410156,-0.6200982332229614
1765542743358612000,0.126612060546875,0.2753331959247589,0.6775590777397156,-0.6009446382522583
1765542743368621600,0.13662158203125,0.10773907601833344,0.31364041566848755,-0.5410895943641663
1765542743378631400,0.14663134765625,-0.07422025501728058,0.19153612852096558,-0.4620809257030487
1765542743388641000,0.15664111328125,-0.08619125932455063,0.026336219161748886,-0.45250412821769714
1765542743438690000,0.20668994140625,-0.004788403399288654,-0.1604115068912506,-0.4405331015586853
1765542743448730400,0.21673046875,0.06464344263076782,-0.12449848651885986,-0.4596867263317108
1765542743468719400,0.23671923828125,0.12689268589019775,-0.0694318488240242,-0.22505496442317963
1765542743478759400,0.246759521484375,0.16759411990642548,0.004788403399288654,-0.16519992053508759
1765542743488769300,0.256769287109375,0.2801215946674347,0.22026655077934265,-0.3208230137825012
1765542743498718000,0.266718017578125,0.31364041566848755,0.3447650372982025,-0.17956513166427612
1765542743528778000,0.296778076171875,0.5291185975074768,-0.026336219161748886,-0.08858546614646912
1765542743538757000,0.306757080078125,0.6320692300796509,0.15562310814857483,0.07661445438861847
1765542743548767000,0.31676708984375,0.6009446382522583,0.10295066982507706,0.17956513166427612
1765542743558807000,0.32680712890625,0.646434485912323,0.002394201699644327,0.2537853717803955
1765542743568786400,0.336786376953125,0.5291185975074768,-0.12449848651885986,0.3447650372982025
1765542743578765600,0.346765625,0.3734954595565796,-0.08858546614646912,0.2777273952960968
1765542743588806000,0.356805908203125,0.2561795711517334,-0.1628057211637497,0.38546648621559143
1765542743598815700,0.366815673828125,0.26815059781074524,-0.2801215946674347,0.304063618183136
1765542743628814600,0.396814697265625,0.23942017555236816,-0.17477671802043915,0.4118026793003082
1765542743638824200,0.40682421875,0.19393034279346466,-0.31603461503982544,0.3926490843296051
1765542743648803600,0.416803466796875,0.16759411990642548,-0.17717093229293823,0.5410895943641663
1765542743658813200,0.426813232421875,0.21787235140800476,-0.08140286058187485,0.6153098344802856
1765542743668823000,0.436822998046875,0.20111294090747833,-0.08140286058187485,0.5530605912208557
1765542743678833000,0.4468330078125,0.2777273952960968,0.047884032130241394,0.2849099934101105
1765542743688842500,0.456842529296875,0.2059013396501541,0.16519992053508759,0.19153612852096558
1765542743698852400,0.466852294921875,0.1149216815829277,0.004788403399288654,0.22266076505184174
1765542743708862200,0.4768623046875,0.14365209639072418,0.014365210197865963,-0.009576806798577309
1765542743738830300,0.506830322265625,0.2944868206977844,-0.13168109953403473,0.17717093229293823
1765542743748870700,0.51687060546875,0.2585737705230713,-0.047884032130241394,0.08379705995321274
1765542743758880500,0.526880615234375,0.22505496442317963,-0.016759412363171577,0.05985504388809204
1765542743768890000,0.53689013671875,0.22266076505184174,-0.016759412363171577,0.05027823522686958
1765542743778900000,0.54689990234375,0.2298433631658554,-0.05027823522686958,0.016759412363171577
1765542743788909800,0.556909912109375,0.1843535304069519,-0.07661445438861847,-0.043095629662275314
1765542743808959700,0.576959716796875,0.22505496442317963,0.16759411990642548,-0.043095629662275314
1765542743818969600,0.586969482421875,0.1412578970193863,0.023942016065120697,-0.07422025501728058
1765542743848937700,0.616937744140625,0.08140286058187485,0.15083470940589905,0.05267243832349777
1765542743858917000,0.626917236328125,0.08619125932455063,0.004788403399288654,-0.09816227108240128
1765542743878936600,0.6469365234375,0.19871874153614044,-0.009576806798577309,-0.18914192914962769
1765542743888977000,0.656976806640625,0.2106897532939911,-0.14604631066322327,-0.21787235140800476
1765542743898986500,0.666986572265625,0.1604115068912506,0.11252748221158981,-0.2322375625371933
1765542743909026800,0.67702685546875,0.10055647045373917,0.26336219906806946,-0.043095629662275314
1765542743919036700,0.68703662109375,0.09576806426048279,0.12689268589019775,-0.0694318488240242
1765542743949096400,0.717096435546875,0.047884032130241394,0.3878606855869293,-0.1388636976480484
1765542743959106300,0.727106201171875,-0.05506663769483566,0.3878606855869293,-0.33518823981285095
1765542743969085400,0.73708544921875,0.009576806798577309,0.090979665517807,-0.1388636976480484
1765542743979095300,0.74709521484375,0.023942016065120697,-0.3471592366695404,-0.19153612852096558
1765542743989105000,0.75710498046875,0.18914192914962769,-0.24420857429504395,-0.16519992053508759
1765542743999114800,0.76711474609375,0.2537853717803955,0.026336219161748886,-0.08379705995321274
1765542744009124600,0.77712451171875,0.2106897532939911,0.05027823522686958,-0.07900865375995636
1765542744029113600,0.797113525390625,0.0071826050989329815,-0.0694318488240242,-0.047884032130241394
1765542744049133000,0.817133056640625,0.19153612852096558,-0.26336219906806946,-0.304063618183136
1765542744069061000,0.83706103515625,0.4381389021873474,0.181959331035614,-0.023942016065120697
1765542744079101400,0.847101318359375,0.43335050344467163,0.22505496442317963,-0.20350714027881622
1765542744089141500,0.8571416015625,0.3711012601852417,0.13407529890537262,-0.17956513166427612
1765542744099151400,0.8671513671875,0.2513911724090576,0.019153613597154617,-0.08858546614646912
1765542744109161200,0.8771611328125,0.1388636976480484,-0.2537853717803955,-0.10534487664699554
1765542744119170800,0.8871708984375,0.21787235140800476,-0.17238251864910126,-0.15083470940589905
1765542744129180700,0.8971806640625,0.19632454216480255,-0.0071826050989329815,-0.011971008032560349
1765542744159179500,0.927179443359375,-0.05506663769483566,0.05506663769483566,-0.09816227108240128
1765542744179199000,0.947198974609375,0.028730420395731926,0.16998831927776337,-0.15562310814857483
1765542744189208800,0.957208740234375,0.1173158809542656,0.05506663769483566,-0.2346317619085312
1765542744199218400,0.967218505859375,0.019153613597154617,-0.026336219161748886,-0.2585737705230713
1765542744209228300,0.977228271484375,0.07661445438861847,-0.2082955539226532,-0.05746084079146385
1765542744219238100,0.987238037109375,0.12449848651885986,-0.2082955539226532,-0.16519992053508759
1765542744229278500,0.997278564453125,0.2106897532939911,-0.24181437492370605,-0.08140286058187485
1765542744239257600,1.007257568359375,0.2825157940387726,-0.033518824726343155,-0.06703764945268631
1765542744269317400,1.0373173828125,0.2537853717803955,0.016759412363171577,-0.17238251864910126
1765542744289336800,1.0573369140625,0.23942017555236816,0.10295066982507706,-0.19632454216480255
1765542744299346700,1.0673466796875,0.2561795711517334,0.1173158809542656,-0.10773907601833344
1765542744309356500,1.0773564453125,0.2968810200691223,0.016759412363171577,-0.07422025501728058
1765542744319396900,1.08739697265625,0.20111294090747833,-0.1173158809542656,-0.004788403399288654
1765542744329437000,1.09743701171875,0.26815059781074524,-0.13168109953403473,-0.1173158809542656
1765542744339446800,1.10744677734375,0.2513911724090576,-0.12449848651885986,-0.028730420395731926
1765542744349456600,1.11745654296875,0.2561795711517334,-0.16519992053508759,-0.035913024097681046
1765542744389526300,1.1575263671875,0.0071826050989329815,-0.28969839215278625,0.023942016065120697
1765542744399535900,1.167535888671875,0.12689268589019775,-0.33997663855552673,0.05027823522686958
1765542744409545700,1.177545654296875,0.272938996553421,-0.3016694188117981,0.20350714027881622
1765542744419586000,1.1875859375,0.1843535304069519,-0.33518823981285095,0.16759411990642548
1765542744429595600,1.197595703125,0.2322375625371933,-0.043095629662275314,0.08379705995321274
1765542744439605500,1.20760546875,0.1149216815829277,0.16759411990642548,0.1604115068912506
1765542744449615400,1.217615478515625,0.3208230137825012,0.26096799969673157,0.019153613597154617
1765542744459625000,1.227625,0.3208230137825012,0.2585737705230713,0.016759412363171577
1765542744479614000,1.247614013671875,0.45489832758903503,0.06224924325942993,0.021547814831137657
1765542744489623800,1.257623779296875,0.42377370595932007,0.19153612852096558,0
1765542744499633700,1.267633544921875,0.3663128614425659,-0.05267243832349777,-0.040701430290937424
1765542744509612800,1.27761279296875,0.24899697303771973,-0.12449848651885986,-0.21787235140800476
1765542744519653000,1.287653076171875,0.19632454216480255,0.14604631066322327,-0.10534487664699554
1765542744529663000,1.2976630859375,0.2753331959247589,0.3711012601852417,-0.14365209639072418
1765542744539672600,1.307672607421875,0.1364694982767105,0.1388636976480484,-0.3232172429561615
1765542744549682400,1.317682373046875,0.07661445438861847,0.12210428714752197,-0.15083470940589905
1765542744559692300,1.3276923828125,0.14844051003456116,0.05746084079146385,-0.14604631066322327
1765542744569732400,1.337732421875,0.17477671802043915,-0.26096799969673157,-0.11252748221158981
1765542744599731200,1.367731201171875,0.3758896589279175,0.0933738648891449,0.06224924325942993
1765542744609741000,1.377740966796875,0.2777273952960968,0.031124621629714966,0.10055647045373917
1765542744619750700,1.387750732421875,0.26096799969673157,-0.15562310814857483,0.016759412363171577
1765542744629760500,1.397760498046875,0.13168109953403473,-0.272938996553421,-0.0454898327589035
1765542744639770400,1.407770263671875,0.08619125932455063,-0.08858546614646912,0
1765542744649749500,1.41774951171875,0.07182604819536209,0.26815059781074524,0.1173158809542656
1765542744659729000,1.42772900390625,-0.028730420395731926,0.28730419278144836,0.07182604819536209
1765542744669769000,1.43776904296875,-0.047884032130241394,0.08619125932455063,0.07661445438861847
1765542744699767800,1.467767822265625,0.10534487664699554,0.05985504388809204,0.22744916379451752
1765542744709777700,1.477777587890625,0.014365210197865963,-0.08619125932455063,0.20350714027881622
1765542744719756800,1.4877568359375,0.047884032130241394,-0.2346317619085312,0.1364694982767105
1765542744729797000,1.497797119140625,0.002394201699644327,-0.05746084079146385,0.06224924325942993
1765542744749816600,1.517816650390625,-0.002394201699644327,-0.27054479718208313,-0.1843535304069519
1765542744759796000,1.5277958984375,0.1173158809542656,-0.10055647045373917,-0.2082955539226532
1765542744769805600,1.5378056640625,0.21308395266532898,-0.047884032130241394,0.028730420395731926
1765542744779785000,1.547784912109375,0.17956513166427612,-0.11971008777618408,0.014365210197865963
1765542744819854600,1.5878544921875,0.30885201692581177,-0.12210428714752197,-0.08379705995321274
1765542744829864200,1.5978642578125,0.24420857429504395,-0.0454898327589035,-0.033518824726343155
1765542744839874000,1.6078740234375,0.3998316824436188,0.1388636976480484,-0.16759411990642548
1765542744849884000,1.6178837890625,0.21787235140800476,0.35673606395721436,-0.12210428714752197
1765542744859893500,1.6278935546875,0.3016694188117981,0.1149216815829277,0.002394201699644327
1765542744869903400,1.6379033203125,0.586579442024231,0.2585737705230713,-0.2825157940387726
1765542744879913200,1.647913330078125,0.5410895943641663,0.1412578970193863,-0.14844051003456116
1765542744909973000,1.677972900390625,0.21308395266532898,0.07182604819536209,-0.13407529890537262
1765542744919982600,1.687982666015625,0.31364041566848755,0.15083470940589905,0.0071826050989329815
1765542744940032800,1.70803271484375,0.21547815203666687,0.16519992053508759,-0.019153613597154617
1765542744950042600,1.718042724609375,0.24181437492370605,0.026336219161748886,0.016759412363171577
1765542744960052200,1.72805224609375,0.22266076505184174,-0.028730420395731926,-0.10055647045373917
1765542744970092500,1.738092529296875,0.16998831927776337,-0.004788403399288654,-0.05027823522686958
1765542744980102400,1.748102294921875,0.21547815203666687,-0.1364694982767105,-0.17238251864910126
1765542744990112000,1.758112060546875,0.19153612852096558,-0.0454898327589035,-0.2753331959247589
1765542745020141300,1.788141357421875,-0.06703764945268631,-0.0071826050989329815,-0.12689268589019775
1765542745030181600,1.798181640625,-0.014365210197865963,-0.12449848651885986,0.033518824726343155
1765542745040161000,1.8081611328125,-0.009576806798577309,-0.11013327538967133,0.10295066982507706
1765542745050201000,1.818201171875,0.09576806426048279,-0.1628057211637497,0.22744916379451752
1765542745060241400,1.828241455078125,0.1604115068912506,-0.13168109953403473,0.12210428714752197
1765542745070281700,1.83828173828125,0.14844051003456116,0.07182604819536209,0.12449848651885986
1765542745080291600,1.84829150390625,0.09816227108240128,0.023942016065120697,0.1173158809542656
1765542745090301200,1.85830126953125,0.07661445438861847,-0.12689268589019775,0.06703764945268631
1765542745100280600,1.868280517578125,0.040701430290937424,-0.2059013396501541,0.038307227194309235
1765542745130310000,1.898309814453125,0.24660277366638184,0.002394201699644327,0.07661445438861847
1765542745140319500,1.908319580078125,0.2322375625371933,0.1364694982767105,0.05267243832349777
1765542745150329300,1.918329345703125,0.1843535304069519,0.0694318488240242,0.014365210197865963
1765542745160308700,1.928308837890625,0.1843535304069519,0.07182604819536209,0.014365210197865963
1765542745170318300,1.938318359375,0.23942017555236816,-0.014365210197865963,-0.22026655077934265
1765542745180328200,1.948328125,0.2082955539226532,0.05985504388809204,-0.13168109953403473
1765542745190368500,1.958368408203125,0.24899697303771973,0.026336219161748886,-0.19153612852096558
1765542745200378000,1.968378173828125,0.2801215946674347,0.035913024097681046,-0.17238251864910126
1765542745240417300,2.008417236328125,0.15801730751991272,0.1364694982767105,-0.023942016065120697
1765542745250427100,2.01842724609375,0.15801730751991272,0.12449848651885986,-0.08140286058187485
1765542745260436700,2.028436767578125,0.26575639843940735,-0.07661445438861847,-0.033518824726343155
1765542745270416100,2.038416015625,0.21547815203666687,-0.15801730751991272,-0.10295066982507706
1765542745280425700,2.04842578125,0.2561795711517334,-0.07182604819536209,-0.14604631066322327
1765542745290435600,2.058435546875,0.20111294090747833,0.06464344263076782,-0.11013327538967133
1765542745300414700,2.068414794921875,0.17956513166427612,-0.1843535304069519,-0.05506663769483566
1765542745320434400,2.088434326171875,0.13168109953403473,-0.1628057211637497,0.002394201699644327
1765542745350433000,2.11843310546875,0.22266076505184174,0.17238251864910126,0.16519992053508759
1765542745360412400,2.128412353515625,0.13168109953403473,0.031124621629714966,0.1628057211637497
1765542745370452700,2.13845263671875,0.014365210197865963,-0.11971008777618408,0.033518824726343155
1765542745380493000,2.1484931640625,0.05027823522686958,-0.043095629662275314,0.10295066982507706
1765542745390502700,2.158502685546875,0.08619125932455063,-0.031124621629714966,0.06464344263076782
1765542745400512500,2.168512451171875,0.1364694982767105,0.0454898327589035,0.033518824726343155
1765542745410522400,2.1785224609375,0.08858546614646912,0.1867477297782898,0.07661445438861847
1765542745440490500,2.208490478515625,0.24420857429504395,-0.021547814831137657,0.004788403399288654
1765542745460510000,2.228510009765625,0.22026655077934265,-0.08619125932455063,-0.05027823522686958
1765542745470519800,2.238519775390625,0.14365209639072418,-0.11971008777618408,0.08140286058187485
1765542745480499000,2.2484990234375,0.11971008777618408,-0.15562310814857483,0.11971008777618408
1765542745490508800,2.2585087890625,0.19871874153614044,-0.05506663769483566,0.1173158809542656
1765542745500549000,2.268549072265625,0.2059013396501541,-0.05746084079146385,0.06464344263076782
1765542745510559000,2.27855908203125,0.22505496442317963,0.12449848651885986,-0.031124621629714966
1765542745520568600,2.288568603515625,0.3016694188117981,0.181959331035614,-0.090979665517807
1765542745540618800,2.30861865234375,0.3256114423274994,-0.16759411990642548,-0.11252748221158981
1765542745570678500,2.338678466796875,0.3711012601852417,0.272938996553421,-0.12689268589019775
1765542745580657700,2.34865771484375,0.33997663855552673,0.4692635238170624,-0.22026655077934265
1765542745590698000,2.358697998046875,0.22026655077934265,0.1412578970193863,-0.12689268589019775
1765542745600707800,2.368707763671875,0.07182604819536209,0.035913024097681046,-0.12449848651885986
1765542745610717400,2.378717529296875,0.14365209639072418,0.05267243832349777,-0.14365209639072418
1765542745620696800,2.38869677734375,0.16759411990642548,0.11252748221158981,-0.06464344263076782
1765542745630706700,2.398706787109375,0.17717093229293823,0.16759411990642548,-0.047884032130241394
1765542745660705300,2.428705322265625,0.2968810200691223,0.0694318488240242,-0.05027823522686958
1765542745670684700,2.4386845703125,0.26096799969673157,-0.07182604819536209,-0.009576806798577309
1765542745680725000,2.44872509765625,0.16519992053508759,-0.05506663769483566,-0.11252748221158981
1765542745690765000,2.45876513671875,-0.10055647045373917,0.07661445438861847,0.033518824726343155
1765542745700775000,2.46877490234375,0.021547814831137657,0.21547815203666687,-0.47644615173339844
1765542745710815200,2.478815185546875,0.11013327538967133,-0.10295066982507706,-0.3495534360408783
1765542745720825000,2.4888251953125,0.26575639843940735,-0.10534487664699554,-0.2059013396501541
1765542745730834700,2.498834716796875,0.3878606855869293,-0.038307227194309235,-0.06224924325942993
1765542745760833500,2.52883349609375,0.028730420395731926,-0.20350714027881622,0.11971008777618408
1765542745770843400,2.538843505859375,-0.038307227194309235,-0.21547815203666687,0.14844051003456116
1765542745780822500,2.548822509765625,-0.031124621629714966,-0.05267243832349777,0.1604115068912506
1765542745790801700,2.5588017578125,-0.05027823522686958,0.181959331035614,0.181959331035614
1765542745800811500,2.5688115234375,0.033518824726343155,0.15562310814857483,0.29209262132644653
1765542745810821400,2.5788212890625,0.09576806426048279,-0.05506663769483566,0.16519992053508759
1765542745820831000,2.5888310546875,0.12449848651885986,-0.1364694982767105,0.08619125932455063
1765542745830840800,2.5988408203125,0.22744916379451752,-0.12449848651885986,-0.021547814831137657
1765542745840820200,2.6088203125,0.22744916379451752,-0.12210428714752197,-0.023942016065120697
1765542745850860300,2.6188603515625,0.3064578175544739,-0.12689268589019775,0.07900865375995636
1765542745860839700,2.628839599609375,0.33039984107017517,-0.033518824726343155,-0.002394201699644327
1765542745890869000,2.658868896484375,0.272938996553421,-0.1412578970193863,0.0454898327589035
1765542745900909300,2.668909423828125,0.1628057211637497,-0.22505496442317963,0.05985504388809204
1765542745910919000,2.6789189453125,0.1843535304069519,-0.06464344263076782,0.12210428714752197
1765542745920928800,2.6889287109375,0.26575639843940735,-0.009576806798577309,-0.12210428714752197
1765542745930969000,2.698968994140625,0.19393034279346466,0.15801730751991272,-0.06703764945268631
1765542745940978700,2.708978759765625,0.22266076505184174,-0.05027823522686958,-0.05746084079146385
1765542745950988500,2.718988525390625,0.10773907601833344,-0.2082955539226532,-0.13168109953403473
1765542745980987400,2.7489873046875,0.20350714027881622,0.1149216815829277,-0.016759412363171577
1765542745990997000,2.7589970703125,0.22266076505184174,0.07661445438861847,0.05506663769483566
1765542746001006800,2.7690068359375,0.22266076505184174,0.1843535304069519,-0.004788403399288654
1765542746021057000,2.78905712890625,0.21787235140800476,-0.05027823522686958,-0.016759412363171577
1765542746031066600,2.799066650390625,0.2944868206977844,0.15322890877723694,-0.08619125932455063
1765542746041046000,2.8090458984375,0.22505496442317963,0.19153612852096558,-0.009576806798577309
1765542746051086300,2.81908642578125,0.19153612852096558,-0.07422025501728058,-0.07900865375995636
1765542746071105800,2.839105712890625,0.19393034279346466,-0.06703764945268631,-0.040701430290937424
1765542746081115400,2.849115478515625,0.19153612852096558,-0.10295066982507706,-0.11252748221158981
1765542746091125200,2.859125244140625,0.2346317619085312,-0.0933738648891449,-0.22266076505184174
1765542746101135000,2.869135009765625,0.28969839215278625,-0.038307227194309235,-0.11252748221158981
1765542746121154600,2.889154541015625,0.20111294090747833,-0.002394201699644327,-0.1388636976480484
1765542746131164400,2.899164306640625,0.11013327538967133,-0.07422025501728058,-0.08140286058187485
1765542746141174000,2.909174072265625,0.17477671802043915,-0.07182604819536209,-0.12928688526153564
1765542746151184000,2.919183837890625,0.21308395266532898,0.040701430290937424,-0.12449848651885986
1765542746161193700,2.92919384765625,0.26096799969673157,0.2082955539226532,-0.043095629662275314
1765542746181182700,2.9491826171875,0.26815059781074524,0.05985504388809204,-0.1843535304069519
1765542746191192300,2.9591923828125,0.181959331035614,-0.16519992053508759,-0.15322890877723694
1765542746201202200,2.9692021484375,0.1843535304069519,-0.1412578970193863,-0.0454898327589035
1765542746211212000,2.9792119140625,0.11971008777618408,-0.028730420395731926,0.043095629662275314
1765542746221252400,2.98925244140625,0.181959331035614,-0.090979665517807,0.08379705995321274
1765542746231262000,2.999261962890625,0.08619125932455063,-0.028730420395731926,0.038307227194309235
1765542746241241300,3.009241455078125,0.07182604819536209,-0.2106897532939911,-0.002394201699644327
1765542746251281400,3.019281494140625,0.16519992053508759,-0.26815059781074524,-0.0071826050989329815
1765542746271270700,3.039270751953125,0.2106897532939911,0.07900865375995636,-0.047884032130241394
1765542746281280300,3.0492802734375,0.22026655077934265,0.12449848651885986,-0.07182604819536209
1765542746301299700,3.0692998046875,0.22026655077934265,-0.026336219161748886,-0.019153613597154617
1765542746311309600,3.0793095703125,0.12210428714752197,0.040701430290937424,-0.021547814831137657
1765542746321350000,3.089349853515625,0.009576806798577309,0.05985504388809204,-0.06224924325942993
1765542746331390200,3.09939013671875,0.035913024097681046,-0.1604115068912506,-0.05506663769483566
1765542746341399800,3.10939990234375,0.09576806426048279,-0.21308395266532898,-0.002394201699644327
1765542746351409700,3.11940966796875,0.09816227108240128,-0.06464344263076782,-0.002394201699644327
1765542746361450000,3.129449951171875,0.08379705995321274,0.002394201699644327,0.13407529890537262
1765542746371429000,3.13942919921875,0.10055647045373917,0.05746084079146385,-0.035913024097681046
1765542746381439000,3.14943896484375,0.09576806426048279,0.011971008032560349,0.090979665517807
1765542746401458400,3.16945849609375,0.26336219906806946,-0.035913024097681046,0.021547814831137657
1765542746421478100,3.18947802734375,0.2322375625371933,0.10055647045373917,0.06464344263076782
1765542746441497600,3.20949755859375,0.06464344263076782,0.05267243832349777,-0.002394201699644327
1765542746451476700,3.219476806640625,0.16998831927776337,0,-0.09816227108240128
1765542746461517000,3.22951708984375,0.12210428714752197,0.10773907601833344,-0.10534487664699554
1765542746471527000,3.23952685546875,0.14365209639072418,0.1867477297782898,-0.07661445438861847
1765542746481536800,3.249536865234375,0.2298433631658554,0.11971008777618408,-0.11013327538967133
1765542746511535400,3.279535400390625,0.36152446269989014,-0.23942017555236816,-0.038307227194309235
1765542746521545200,3.289545166015625,0.3208230137825012,-0.33039984107017517,0.031124621629714966
1765542746531555000,3.29955517578125,0.3902548849582672,-0.13168109953403473,-0.004788403399288654
1765542746541564700,3.309564697265625,0.3902548849582672,-0.12928688526153564,-0.011971008032560349
1765542746551605000,3.31960498046875,0.3519476354122162,-0.2059013396501541,0
1765542746561614800,3.32961474609375,0.3687070608139038,-0.12210428714752197,-0.0071826050989329815
1765542746571594000,3.339593994140625,0.33758243918418884,-0.014365210197865963,-0.014365210197865963
1765542746581603800,3.349603759765625,0.20350714027881622,-0.07661445438861847,-0.021547814831137657
1765542746601562400,3.369562255859375,0.12449848651885986,0.16998831927776337,-0.22026655077934265
1765542746621551400,3.38955126953125,0.09816227108240128,-0.1604115068912506,-0.15801730751991272
1765542746631561000,3.39956103515625,0.07661445438861847,-0.2082955539226532,-0.1412578970193863
1765542746641570800,3.40957080078125,0.035913024097681046,-0.20111294090747833,-0.22266076505184174
1765542746651611100,3.419611083984375,0.028730420395731926,-0.15322890877723694,-0.040701430290937424
1765542746661621000,3.42962109375,-0.06224924325942993,-0.1173158809542656,0.05506663769483566
1765542746671600000,3.43960009765625,-0.033518824726343155,-0.06224924325942993,0.06464344263076782
1765542746681610000,3.44960986328125,-0.395043283700943,0.004788403399288654,0.16759411990642548
1765542746691619600,3.45961962890625,0.24660277366638184,0.14604631066322327,0
1765542746701629400,3.46962939453125,-0.021547814831137657,-0.08140286058187485,0.15562310814857483
1765542746711608600,3.479608642578125,0.2322375625371933,-0.3016694188117981,0.21547815203666687
1765542746721618400,3.489618408203125,0.5506663918495178,-0.17956513166427612,0.004788403399288654
1765542746731628300,3.499628173828125,0.49799394607543945,-0.08858546614646912,0.09816227108240128
1765542746741638000,3.509637939453125,0.31842881441116333,-0.1364694982767105,0.038307227194309235
1765542746751647700,3.519647705078125,0.181959331035614,-0.05506663769483566,0.016759412363171577
1765542746761657600,3.52965771484375,0.08858546614646912,-0.014365210197865963,-0.021547814831137657
1765542746771667200,3.539667236328125,0.07422025501728058,-0.11013327538967133,-0.002394201699644327
1765542746781677000,3.549677001953125,0.20350714027881622,-0.24660277366638184,-0.033518824726343155
1765542746791687000,3.55968701171875,0.2849099934101105,-0.14604631066322327,-0.10295066982507706
1765542746821746700,3.58974658203125,0.33518823981285095,0.22266076505184174,-0.09816227108240128
1765542746831756300,3.59975634765625,0.26575639843940735,0.2106897532939911,-0.2106897532939911
1765542746841735700,3.609735595703125,0.21547815203666687,0.35673606395721436,-0.1388636976480484
1765542746851776000,3.61977587890625,0.033518824726343155,0.2849099934101105,-0.040701430290937424
1765542746861755100,3.629755126953125,-0.035913024097681046,0.2777273952960968,-0.20111294090747833
1765542746871765000,3.639764892578125,-0.05027823522686958,0.19393034279346466,-0.1173158809542656
1765542746881774600,3.649774658203125,0.002394201699644327,-0.1412578970193863,-0.019153613597154617
1765542746891784400,3.659784423828125,-0.014365210197865963,-0.35673606395721436,-0.05746084079146385
1765542746911804000,3.679803955078125,0.10055647045373917,0.12689268589019775,0.06464344263076782
1765542746921813800,3.689813720703125,-0.011971008032560349,-0.08858546614646912,0.12449848651885986
1765542746931854000,3.69985400390625,0.0071826050989329815,-0.17477671802043915,0.16998831927776337
1765542746951843000,3.719843017578125,0.10295066982507706,-0.06464344263076782,0.08379705995321274
1765542746961822200,3.729822265625,0.20350714027881622,0.08858546614646912,0.0694318488240242
1765542746971862500,3.739862548828125,0.2082955539226532,0.10295066982507706,-0.038307227194309235
1765542746981842000,3.749842041015625,0.181959331035614,-0.028730420395731926,0.009576806798577309
1765542746991851500,3.7598515625,0.33039984107017517,-0.07182604819536209,-0.09816227108240128
1765542747001831000,3.769830810546875,0.3663128614425659,0.08858546614646912,-0.14844051003456116
1765542747011840500,3.779840576171875,0.3902548849582672,0.26336219906806946,-0.0933738648891449
1765542747061828400,3.829828369140625,0.27054479718208313,0.26096799969673157,-0.5770025849342346
1765542747071807700,3.839807861328125,0.17477671802043915,0.5937620401382446,-0.6105214357376099
1765542747081847800,3.849847900390625,0.31124621629714966,0.6655880808830261,-0.6368576288223267
1765542747091857700,3.859857666015625,0.009576806798577309,0.5889736413955688,-0.6344634294509888
1765542747101867500,3.869867431640625,0.016759412363171577,0.6177040338516235,-0.6560112833976746
1765542747131957800,3.899957763671875,-0.10773907601833344,0.021547814831137657,-0.4165911078453064
1765542747141937200,3.909937255859375,-0.31364041566848755,-0.1628057211637497,-0.1843535304069519
1765542747151946800,3.91994677734375,-0.272938996553421,-0.5410895943641663,-0.07182604819536209
1765542747161956600,3.92995654296875,-0.22266076505184174,-1.1899182796478271,-0.07661445438861847
1765542747171966500,3.939966552734375,-0.30885201692581177,-1.7286136150360107,-0.0454898327589035
1765542747181976000,3.94997607421875,-0.4141969084739685,-1.8483237028121948,-0.06703764945268631
1765542747191986000,3.95998583984375,-0.4644751250743866,-1.7477672100067139,0.11971008777618408
1765542747201995500,3.96999560546875,-0.48602294921875,-1.5753847360610962,0.33518823981285095
1765542747231994400,3.999994384765625,-0.9074024558067322,-0.9289502501487732,0.2346317619085312
1765542747242004200,4.010004150390625,-1.036689281463623,-0.9552865028381348,0.2298433631658554
1765542747262023700,4.030023681640625,-0.8930372595787048,-2.161964178085327,0.38067805767059326
1765542747272003000,4.040003173828125,-0.7326257228851318,-2.7988216876983643,0.29209262132644653
1765542747282043100,4.050043212890625,-0.5003881454467773,-2.5761611461639404,0.7158663272857666
1765542747292083500,4.06008349609375,-0.19632454216480255,-1.742978811264038,1.192312479019165
1765542747302123800,4.070123779296875,-0.16759411990642548,-0.9864110946655273,1.3838485479354858
1765542747312164000,4.0801640625,-0.3687070608139038,-0.2106897532939911,1.3335703611373901
1765542747342224000,4.110223876953125,-0.9265560507774353,-0.15801730751991272,1.015141487121582
1765542747352203300,4.120203369140625,-1.4484920501708984,-1.1180921792984009,0.8643068075180054
1765542747372253200,4.140253173828125,-2.03507137298584,-2.741360902786255,0.17956513166427612
1765542747382232600,4.150232666015625,-1.6400281190872192,-2.248155355453491,0.10534487664699554
1765542747392242200,4.1602421875,-0.8475474119186401,-0.8259995579719543,0.3064578175544739
1765542747402252000,4.170251953125,-0.023942016065120697,0.395043283700943,0.5027823448181152
1765542747412261600,4.18026171875,0.4596867263317108,1.094150185585022,0.6536170840263367
1765542747442291000,4.210291015625,-0.05506663769483566,0.7110779285430908,-0.07422025501728058
1765542747452300800,4.22030078125,-0.5770025849342346,0.5817909836769104,-0.181959331035614
1765542747462341000,4.230341064453125,-1.0869675874710083,0.5434837937355042,-0.10773907601833344
1765542747472320300,4.2403203125,-1.6974890232086182,0.16998831927776337,0.038307227194309235
1765542747482360600,4.250360595703125,-2.3558945655822754,-0.2346317619085312,0.12449848651885986
1765542747492340000,4.260340087890625,-2.6024973392486572,-1.1228805780410767,0.15083470940589905
1765542747502349600,4.270349609375,-2.4875755310058594,-1.6304513216018677,0.090979665517807
1765542747512359400,4.280359375,-2.056619167327881,-1.0989385843276978,-0.035913024097681046
1765542747542358300,4.310358154296875,-2.0446481704711914,0.6655880808830261,0.5171475410461426
1765542747552367900,4.320367919921875,-2.655169725418091,0.42377370595932007,0.6631938815116882
1765542747562347300,4.33034716796875,-3.1962592601776123,-0.3232172429561615,0.6727706789970398
1765542747572356900,4.34035693359375,-3.3925838470458984,-0.8643068075180054,0.5195417404174805
1765542747582397200,4.350397216796875,-3.60566782951355,-1.45806884765625,0.524330198764801
1765542747592407000,4.360406982421875,-3.2752678394317627,-1.45806884765625,0.3734954595565796
1765542747602417000,4.3704169921875,-3.0861260890960693,-0.9983820915222168,0.40701428055763245
1765542747612426500,4.380426513671875,-2.5043349266052246,-0.5626373887062073,0.6344634294509888
1765542747622466800,4.390466796875,-2.2218191623687744,-0.5123591423034668,0.8020575642585754
1765542747652496100,4.42049609375,-1.1420341730117798,-1.680729627609253,1.2952631711959839
1765542747662506000,4.430506103515625,-0.6512228846549988,-1.4532804489135742,1.0773907899856567
1765542747672515600,4.440515625,-0.5841852426528931,-1.7597382068634033,0.9983820915222168
1765542747682525400,4.450525390625,-0.5722141861915588,-2.207453966140747,1.01753568649292
1765542747692504600,4.460504638671875,-0.6320692300796509,-2.647987127304077,1.335964560508728
1765542747702514400,4.470514404296875,-0.8523358106613159,-2.5234885215759277,1.6112977266311646
1765542747722503400,4.49050341796875,-0.42377370595932007,-1.235408067703247,1.647210717201233
1765542747752532700,4.52053271484375,0.4118026793003082,-2.762908697128296,1.3479355573654175
1765542747782531600,4.550531494140625,1.2521674633026123,-2.10210919380188,1.1755530834197998
1765542747792510700,4.5605107421875,1.1109095811843872,-1.8171991109848022,1.0678139925003052
1765542747812530200,4.5805302734375,0.9097966551780701,-1.9297266006469727,0.8475474119186401
1765542747822509600,4.590509521484375,1.0223240852355957,-1.699883222579956,0.8259995579719543
1765542747872588800,4.6405888671875,0.1149216815829277,0.10534487664699554,0.21308395266532898
1765542747882598700,4.6505986328125,-0.4118026793003082,0.2059013396501541,0.0454898327589035
1765542747892608500,4.6606083984375,-0.8858546018600464,-0.06703764945268631,0
1765542747912597500,4.680597412109375,-1.2856862545013428,-0.09576806426048279,0.0933738648891449
1765542747922607000,4.690607177734375,-1.2066776752471924,0.21308395266532898,0
1765542747932647400,4.7006474609375,-1.0055646896362305,0.272938996553421,-0.19871874153614044
1765542747962707200,4.730707275390625,-0.6416460275650024,0.22744916379451752,-0.31603461503982544
1765542747972717000,4.740717041015625,-0.8307880163192749,-0.17956513166427612,-0.3016694188117981
1765542747982727000,4.750726806640625,-1.0127472877502441,-0.0933738648891449,-0.2322375625371933
1765542747992736500,4.760736572265625,-1.0869675874710083,-0.040701430290937424,0.028730420395731926
1765542748002746400,4.770746337890625,-1.015141487121582,0.4213795065879822,-0.019153613597154617
1765542748012725500,4.7807255859375,-0.7350199222564697,0.45250412821769714,-0.40222588181495667
1765542748022735400,4.7907353515625,-0.3998316824436188,0.33997663855552673,-0.5770025849342346
1765542748032745200,4.8007451171875,-0.11252748221158981,0.4620809257030487,-0.5003881454467773
1765542748042724400,4.810724365234375,0.08140286058187485,0.5817909836769104,-0.3064578175544739
1765542748112823300,4.8808232421875,0.2753331959247589,0.4429273009300232,-0.3687070608139038
1765542748122833200,4.890833251953125,0.4381389021873474,0.3878606855869293,-0.28969839215278625
1765542748132842800,4.9008427734375,0.5554547905921936,0.48602294921875,-0.28969839215278625
1765542748142822100,4.910822265625,0.35913026332855225,0.667982280254364,-0.12449848651885986
1765542748152862200,4.9208623046875,0.24181437492370605,0.9050082564353943,-0.11013327538967133
1765542748172882000,4.9408818359375,0.3519476354122162,0.6344634294509888,-0.181959331035614
1765542748182891500,4.9508916015625,0.44771572947502136,0.42616790533065796,-0.19632454216480255
1765542748192901400,4.9609013671875,0.43095630407333374,0.4165911078453064,-0.12449848651885986
1765542748202911200,4.9709111328125,0.4429273009300232,0.6272808313369751,-0.05985504388809204
1765542748212951600,4.98095166015625,0.1628057211637497,0.9600749015808105,0.016759412363171577
1765542748222991600,4.99099169921875,-0.2585737705230713,1.036689281463623,0.16998831927776337
1765542748233001500,5.00100146484375,-0.3064578175544739,0.5434837937355042,0.028730420395731926
1765542748243011300,5.01101123046875,0.14844051003456116,-0.17956513166427612,-0.14604631066322327
1765542748253051600,5.0210517578125,0.507570743560791,-1.0247182846069336,-0.090979665517807
1765542748283081000,5.0510810546875,0.47405192255973816,-0.5051765441894531,0.11252748221158981
1765542748293060000,5.06106005859375,-0.035913024097681046,-0.47165772318840027,0.21547815203666687
1765542748303039200,5.071039306640625,-0.8068459630012512,-0.6392518281936646,0.2944868206977844
1765542748313049000,5.081049072265625,-1.0893617868423462,-0.6536170840263367,0.3926490843296051
1765542760206567200,16.974567138671876,0.3423708379268646,-0.9576807022094727,0.2801215946674347
1765542760216576800,16.98457666015625,12.131420135498047,10.096348762512207,-2.0901381969451904
1765542760236296400,17.00429638671875,0.2992752194404602,-0.33758243918418884,0.12928688526153564
1765542760246106000,17.014106201171874,0.16759411990642548,-0.4812345504760742,0.06464344263076782
1765542760265964500,17.033964599609376,0.3998316824436188,-0.4884171485900879,0.2298433631658554
1765542760295993900,17.063993896484376,0.3208230137825012,-0.3208230137825012,0.07900865375995636
1765542760306034200,17.0740341796875,0.1149216815829277,-0.20350714027881622,-0.11252748221158981
1765542760386051300,17.15405126953125,-0.17717093229293823,-0.29209262132644653,0.181959331035614
1765542760406009900,17.174009765625,-0.08619125932455063,-0.5770025849342346,0.272938996553421
1765542760416019500,17.18401953125,0.05506663769483566,-0.3064578175544739,0.18914192914962769
1765542760446048800,17.214048828125,0.31124621629714966,0.0454898327589035,0.16519992053508759
1765542760475925500,17.243925537109376,0.2801215946674347,0.047884032130241394,0.05506663769483566
1765542760485935400,17.253935302734376,0.07182604819536209,-0.002394201699644327,0.17238251864910126
1765542760495914500,17.26391455078125,0.014365210197865963,0.031124621629714966,0.17477671802043915
1765542760505954800,17.273954833984376,-0.004788403399288654,0.1149216815829277,0.0454898327589035
1765542760515903500,17.283903564453126,0.07422025501728058,-0.0454898327589035,-0.031124621629714966
1765542760545932800,17.313932861328126,0.2968810200691223,0.5099649429321289,-0.13168109953403473
1765542760555942700,17.323942626953126,0.3256114423274994,0.18914192914962769,-0.090979665517807
1765542760565952500,17.333952392578126,0.3926490843296051,0.0933738648891449,-0.31364041566848755
1765542760575962000,17.343962158203126,0.45250412821769714,0.38307225704193115,-0.42377370595932007
1765542760586002400,17.35400244140625,0.272938996553421,0.38067805767059326,-0.35913026332855225
1765542760605991400,17.373991455078126,-0.20350714027881622,0.3064578175544739,-0.4908113479614258
1765542760616001300,17.384001220703126,-0.6727706789970398,-0.49320554733276367,-0.30885201692581177
1765542760625980400,17.39398046875,-0.8523358106613159,-1.0869675874710083,-0.11252748221158981
1765542760655888000,17.423887939453124,-0.023942016065120697,-0.38067805767059326,0.2513911724090576
1765542760665928000,17.433927978515626,0.33518823981285095,-0.22505496442317963,0.4357447028160095
1765542760675937800,17.443937744140626,0.5410895943641663,-0.0933738648891449,0.45250412821769714
1765542760685947600,17.45394775390625,0.5267243981361389,-0.2753331959247589,0.43335050344467163
1765542760695896300,17.463896240234376,0.3734954595565796,-0.5123591423034668,0.45010992884635925
1765542760705906200,17.47390625,0.2322375625371933,-0.6200982332229614,0.40222588181495667
1765542760715915800,17.483915771484376,0.33279404044151306,-0.31842881441116333,0.42377370595932007
1765542760725895200,17.493895263671874,0.4644751250743866,0.12210428714752197,0.40701428055763245
1765542760755863300,17.52386328125,0.6416460275650024,0.13407529890537262,-0.004788403399288654
1765542760775913500,17.54391357421875,0.524330198764801,-0.07182604819536209,0.08858546614646912
1765542760785953500,17.55395361328125,0.5315127968788147,-0.004788403399288654,0.09576806426048279
1765542760795933000,17.563932861328126,0.6440402865409851,0.4620809257030487,0.033518824726343155
1765542760805942800,17.57394287109375,0.6368576288223267,0.13407529890537262,0.12210428714752197
1765542760815952400,17.583952392578126,0.4692635238170624,-0.1364694982767105,0.06703764945268631
1765542760825962200,17.593962158203126,0.4213795065879822,-0.35913026332855225,0.10534487664699554
1765542760835972000,17.60397216796875,0.43095630407333374,-0.19393034279346466,0.17717093229293823
1765542760905979400,17.6739794921875,-0.014365210197865963,0.06464344263076782,0
1765542760915989000,17.683989013671876,0.05746084079146385,0.19393034279346466,-0.05746084079146385
1765542760925998800,17.693998779296876,0.014365210197865963,0.014365210197865963,-0.11252748221158981
1765542760935978000,17.70397802734375,0.10534487664699554,-0.002394201699644327,-0.24899697303771973
1765542760946018300,17.714018310546876,0.0454898327589035,-0.05027823522686958,-0.2753331959247589
1765542760956028200,17.724028076171876,0.08140286058187485,-0.24181437492370605,-0.2298433631658554
1765542760975986700,17.743986572265626,0.3064578175544739,0.1604115068912506,-0.1867477297782898
1765542760985996300,17.753996337890626,0.4836287498474121,0.19871874153614044,-0.2537853717803955
1765542760995945200,17.7639453125,0.38307225704193115,0.019153613597154617,-0.3519476354122162
1765542761005985300,17.7739853515625,0.26336219906806946,0.06703764945268631,-0.3447650372982025
1765542761015995100,17.7839951171875,0.26575639843940735,0.05027823522686958,-0.3208230137825012
1765542761025974500,17.793974609375,0.28969839215278625,-0.047884032130241394,-0.3447650372982025
1765542761035953700,17.80395361328125,0.38546648621559143,-0.12449848651885986,-0.37828385829925537
1765542761045963500,17.813963623046874,0.40462008118629456,-0.026336219161748886,-0.4357447028160095
1765542761075962000,17.843962158203126,0.2298433631658554,0.05985504388809204,-0.181959331035614
1765542761085941500,17.85394140625,0.2537853717803955,0.0071826050989329815,-0.23942017555236816
1765542761095951000,17.863951171875,0.15562310814857483,0.14365209639072418,-0.17717093229293823
1765542761105961000,17.8739609375,0.1867477297782898,0.3208230137825012,-0.19153612852096558
1765542761115940400,17.8839404296875,0.1412578970193863,0.304063618183136,-0.24660277366638184
1765542761125919500,17.89391943359375,0.0933738648891449,0.2298433631658554,-0.28730419278144836
1765542761135898600,17.903898681640626,0.09576806426048279,0.3519476354122162,-0.2944868206977844
1765542761145908500,17.913908447265626,-0.019153613597154617,0.18914192914962769,-0.12689268589019775
1765542761155826700,17.92382666015625,-0.13168109953403473,-0.2849099934101105,-0.08858546614646912
1765542761185795000,17.953795166015624,0.035913024097681046,0.028730420395731926,0.090979665517807
1765542761205753300,17.97375341796875,-0.035913024097681046,0.047884032130241394,0.08140286058187485
1765542761215763200,17.98376318359375,-0.08379705995321274,-0.0454898327589035,0.0694318488240242
1765542761225742600,17.99374267578125,0.031124621629714966,-0.0071826050989329815,-0.019153613597154617
1765542761235721700,18.0037216796875,0.0694318488240242,0.019153613597154617,-0.1388636976480484
1765542761255710700,18.023710693359376,0.09816227108240128,-0.395043283700943,-0.05027823522686958
1765542761265690000,18.033690185546874,0.1173158809542656,-0.3064578175544739,-0.09816227108240128
1765542761295688700,18.063688720703126,0.21547815203666687,0.2825157940387726,0.0933738648891449
1765542761315739000,18.08373876953125,0.05506663769483566,0.08379705995321274,0.023942016065120697
1765542761325748500,18.09374853515625,0.1867477297782898,0.10295066982507706,-0.023942016065120697
1765542761335758300,18.10375830078125,0.14604631066322327,0.028730420395731926,-0.06703764945268631
1765542761345737500,18.113737548828126,0.1173158809542656,-0.1628057211637497,0.011971008032560349
1765542761355747300,18.123747314453126,0.2082955539226532,-0.17956513166427612,0.06703764945268631
1765542761365757200,18.133757080078126,0.23702596127986908,-0.019153613597154617,0.07661445438861847
1765542761385746200,18.15374609375,0.2537853717803955,0.19632454216480255,0.1173158809542656
1765542761395725300,18.163725341796876,0.33518823981285095,0.1867477297782898,0.05746084079146385
1765542761405765600,18.173765625,0.3256114423274994,0.16998831927776337,-0.0694318488240242
1765542761415714300,18.18371435546875,0.2106897532939911,-0.33997663855552673,-0.028730420395731926
1765542761425724200,18.19372412109375,0.1843535304069519,-0.35913026332855225,-0.038307227194309235
1765542761435703300,18.203703369140626,0.2561795711517334,0.19393034279346466,-0.08140286058187485
1765542761445682700,18.2136826171875,0.2825157940387726,0.5482721924781799,0.0071826050989329815
1765542761455692500,18.223692626953124,0.09576806426048279,0.3471592366695404,0.090979665517807
1765542761465702100,18.2337021484375,0.038307227194309235,0.12449848651885986,-0.08379705995321274
1765542761475650800,18.24365087890625,0.033518824726343155,-0.031124621629714966,-0.10534487664699554
1765542761505710800,18.2737109375,0.014365210197865963,0.11252748221158981,-0.10055647045373917
1765542761515659500,18.283659423828126,0.09576806426048279,0.12928688526153564,-0.12689268589019775
1765542761525699800,18.293699951171874,0.17238251864910126,0.047884032130241394,-0.21547815203666687
1765542761535709400,18.30370947265625,0.12928688526153564,-0.06224924325942993,-0.26096799969673157
1765542761545719300,18.31371923828125,0.1364694982767105,0.1364694982767105,-0.3280056416988373
1765542761555729200,18.323729248046874,0.16519992053508759,0.49320554733276367,-0.395043283700943
1765542761565708300,18.333708251953126,0.18914192914962769,0.7445967197418213,-0.3663128614425659
1765542761575718100,18.34371826171875,0.13407529890537262,0.6775590777397156,-0.44532153010368347
1765542761585727700,18.353727783203126,0.26336219906806946,0.5482721924781799,-0.5985504388809204
1765542761605747500,18.37374755859375,0.0071826050989329815,0.44771572947502136,-0.6727706789970398
1765542761615726600,18.3837265625,-0.11971008777618408,0.2825157940387726,-0.6224924325942993
1765542761625706000,18.3937060546875,-0.2944868206977844,0.15801730751991272,-0.6727706789970398
1765542761635685000,18.40368505859375,-0.5195417404174805,0.1412578970193863,-0.8236053586006165
1765542761655674000,18.423674072265626,-0.7110779285430908,0.13407529890537262,-0.42377370595932007
1765542761665684000,18.43368408203125,-0.7805097699165344,0.043095629662275314,-0.2801215946674347
1765542761675663000,18.4436630859375,-0.8403648138046265,-0.05985504388809204,-0.1173158809542656
1765542761685673000,18.4536728515625,-0.7948749661445618,-0.2513911724090576,0.07661445438861847
1765542761715641000,18.48364111328125,-1.3503297567367554,-0.5363011956214905,0.3232172429561615
1765542761725681400,18.493681396484376,-1.8507179021835327,-0.6847416758537292,0.40701428055763245
1765542761735660800,18.503660888671874,-2.363077163696289,-0.5171475410461426,0.5291185975074768
1765542761745670400,18.51367041015625,-2.408566951751709,-0.45489832758903503,0.6368576288223267
1765542761755649800,18.52364990234375,-2.7293899059295654,-1.2066776752471924,0.8379706144332886
1765542761765629000,18.53362890625,-2.9544448852539062,-2.3750481605529785,0.9385270476341248
1765542761775638800,18.543638671875,-2.9496564865112305,-2.978386878967285,0.8259995579719543
1765542761785679000,18.55367919921875,-2.832340717315674,-3.0358476638793945,0.8068459630012512
1765542761795658200,18.563658203125,-2.7078421115875244,-2.978386878967285,0.9385270476341248
1765542761815677700,18.583677734375,-2.557007312774658,-1.7717092037200928,0.9217676520347595
1765542761825718000,18.593718017578126,-2.964021682739258,-1.6136919260025024,0.9385270476341248
1765542761835697400,18.603697509765624,-3.1196448802948,-1.625662922859192,1.1516109704971313
1765542761845707000,18.61370703125,-3.4380736351013184,-1.534683346748352,1.0869675874710083
1765542761855716900,18.623716796875,-3.732560396194458,-1.7836803197860718,1.1492167711257935
1765542761865696000,18.633696044921876,-4.225766181945801,-2.652775526046753,1.216254472732544
1765542761875705900,18.643705810546876,-4.448426723480225,-3.9624037742614746,1.2497732639312744
1765542761885715700,18.6537158203125,-4.1611223220825195,-4.527435302734375,1.0869675874710083
1765542761895694800,18.66369482421875,-3.974374771118164,-4.218583583831787,0.8738836050033569
1765542761905735200,18.673735107421876,-3.60566782951355,-3.4332852363586426,0.9457096457481384
1765542761935734000,18.703734130859374,-2.1763293743133545,-0.629675030708313,0.9959878921508789
1765542761945743600,18.71374365234375,-2.054224967956543,-0.9169792532920837,0.8786720037460327
1765542761955753500,18.72375341796875,-1.987187385559082,-1.742978811264038,0.6919242739677429
1765542761965793800,18.733793701171876,-1.50355863571167,-2.4636335372924805,0.33039984107017517
1765542761975803400,18.743803466796876,-0.8690952062606812,-2.3798365592956543,0.22744916379451752
1765542761985782800,18.75378271484375,-0.5985504388809204,-2.094926595687866,0.15801730751991272
1765542761995762000,18.763761962890626,-0.4189853072166443,-1.8363527059555054,0.18914192914962769
1765542762005741300,18.7737412109375,-0.33758243918418884,-1.6903064250946045,0.20350714027881622
1765542762035770600,18.8037705078125,-0.5793967843055725,-0.9864110946655273,0.028730420395731926
1765542762045780200,18.8137802734375,-0.6775590777397156,-0.6224924325942993,0.07182604819536209
1765542762065800000,18.833800048828124,-0.5722141861915588,-0.5482721924781799,0.16759411990642548
1765542762075809500,18.8438095703125,-0.5506663918495178,-0.5817909836769104,0.10773907601833344
1765542762085819400,18.8538193359375,-0.6512228846549988,-0.8451532125473022,-0.028730420395731926
1765542762095798500,18.863798583984376,-0.8858546018600464,-1.0103530883789062,-0.09576806426048279
1765542762105778000,18.87377783203125,-0.9648633003234863,-1.0079588890075684,-0.05027823522686958
1765542762115787500,18.88378759765625,-1.1827356815338135,-0.9840168952941895,-0.14844051003456116
1765542762145878000,18.9138779296875,-1.3479355573654175,-0.7661445140838623,-0.026336219161748886
1765542762195896300,18.963896240234376,-0.6272808313369751,0.16998831927776337,-0.021547814831137657
1765542762225925600,18.993925537109376,-1.4484920501708984,-0.16759411990642548,-0.24420857429504395
1765542762235904800,19.00390478515625,-1.3455413579940796,-0.07661445438861847,-0.10534487664699554
1765542762245914600,19.01391455078125,-1.1276689767837524,-0.05506663769483566,-0.009576806798577309
1765542762255924500,19.023924560546874,-0.7541735172271729,0.2513911724090576,0.12210428714752197
1765542762265934000,19.03393408203125,-0.5506663918495178,0.13168109953403473,0.17477671802043915
1765542762275913500,19.04391357421875,-0.47165772318840027,-0.15562310814857483,0.12449848651885986
1765542762285923000,19.053923095703126,-0.5722141861915588,-0.3447650372982025,0.21308395266532898
1765542762295933000,19.063932861328126,-0.667982280254364,-0.6943184733390808,0.2298433631658554
1765542762305942800,19.07394287109375,-0.8403648138046265,-0.9720458984375,0.24420857429504395
1765542762315922000,19.083921875,-0.9433154463768005,-1.5131354331970215,0.4572925269603729
1765542762325931800,19.093931884765624,-0.9050082564353943,-1.8962076902389526,0.5722141861915588
1765542762365940200,19.133940185546876,1.015141487121582,0.038307227194309235,0.3711012601852417
1765542762415897600,19.183897705078124,1.2210428714752197,-0.9313444495201111,0.26575639843940735
1765542762435917000,19.2039169921875,1.072602391242981,-0.7493851184844971,0.18914192914962769
1765542762445957400,19.213957275390626,1.192312479019165,-0.5602431893348694,0.14365209639072418
1765542762465976800,19.233976806640626,1.8124107122421265,0.33758243918418884,-0.2537853717803955
1765542762505954800,19.273954833984376,0.7924807667732239,-0.2082955539226532,-0.1412578970193863
1765542762525974500,19.293974609375,0.13407529890537262,-0.5171475410461426,-0.16998831927776337
1765542762535984000,19.303984130859376,0.10534487664699554,-0.40222588181495667,-0.10773907601833344
1765542762556003600,19.324003662109376,0.11013327538967133,0.5937620401382446,-0.13168109953403473
1765542762566013400,19.334013427734376,-0.016759412363171577,0.7637503147125244,-0.2992752194404602
1765542762586002400,19.35400244140625,-0.3208230137825012,0.11252748221158981,-0.05746084079146385
1765542762615970800,19.383970703125,-0.24899697303771973,0.10295066982507706,-0.4884171485900879
1765542762625950000,19.393949951171876,-0.16759411990642548,0.17477671802043915,-0.33039984107017517
1765542762635929300,19.403929443359374,-0.4429273009300232,0.36152446269989014,-0.10295066982507706
1765542762665989000,19.433989013671876,-0.7613561153411865,0.1173158809542656,0.040701430290937424
1765542762685978000,19.45397802734375,-0.45010992884635925,0.1843535304069519,0.12449848651885986
1765542762695988000,19.463988037109374,-0.2753331959247589,0.19871874153614044,0.1149216815829277
1765542762705997600,19.47399755859375,-0.14365209639072418,0.21308395266532898,0.05506663769483566
1765542762716007400,19.48400732421875,-0.14844051003456116,-0.0933738648891449,0.1628057211637497
1765542762726017000,19.49401708984375,-0.10534487664699554,-0.3064578175544739,0.038307227194309235
1765542762736027000,19.50402685546875,-0.22744916379451752,-0.3711012601852417,0.014365210197865963
1765542762836063500,19.6040634765625,0.12689268589019775,-0.36152446269989014,-0.12210428714752197
1765542762936100000,19.70410009765625,0.40701428055763245,-0.10295066982507706,-0.15801730751991272
1765542762976108800,19.74410888671875,0.047884032130241394,-0.17956513166427612,-0.090979665517807
1765543008364595700,265.132595703125,0.05746084079146385,-0.13168109953403473,-0.038307227194309235
1765543008374605300,265.1426052246094,9.047688484191895,11.892000198364258,-1.2401964664459229
1765543008394325000,265.16232495117185,0.31603461503982544,0.08858546614646912,-0.10295066982507706
1765543008414144500,265.18214453125,0.3256114423274994,0.1173158809542656,-0.021547814831137657
1765543008434164000,265.2021640625,0.19393034279346466,0.06703764945268631,-0.06703764945268631
1765543008444173800,265.212173828125,0.14844051003456116,0.26575639843940735,0.17238251864910126
1765543008454153000,265.2221530761719,0.1149216815829277,-0.014365210197865963,-0.09816227108240128
1765543008464193300,265.232193359375,0.023942016065120697,0,0.043095629662275314
1765543008474142000,265.24214184570315,0.06703764945268631,0.12210428714752197,0.038307227194309235
1765543008554067500,265.3220673828125,0.28969839215278625,-0.15562310814857483,-0.14604631066322327
1765543008574056700,265.342056640625,0.2801215946674347,0.009576806798577309,-0.08619125932455063
1765543008584066300,265.35206640625,0.24420857429504395,0.043095629662275314,-0.004788403399288654
1765543008594076200,265.362076171875,0.37828385829925537,0.13407529890537262,0.14604631066322327
1765543008674032000,265.4420322265625,0.3064578175544739,-0.12689268589019775,-0.08140286058187485
1765543008734152000,265.50215185546875,0.13168109953403473,-0.1628057211637497,0.0071826050989329815
1765543008744161500,265.51216162109375,0.11013327538967133,-0.05985504388809204,0.14604631066322327
1765543008754171400,265.52217138671875,0.181959331035614,-0.26096799969673157,-0.08140286058187485
1765543008764150500,265.5321506347656,0.15801730751991272,-0.1412578970193863,0.11013327538967133
1765543008774130000,265.5421298828125,0.090979665517807,-0.06464344263076782,0.07182604819536209
1765543008784170200,265.5521701660156,-0.07661445438861847,-0.17477671802043915,-0.004788403399288654
1765543008794149400,265.5621494140625,-0.09576806426048279,-0.07900865375995636,-0.09816227108240128
1765543008834127400,265.60212744140625,0.3495534360408783,-0.2106897532939911,-0.2561795711517334
1765543008844137200,265.61213720703125,0.47884035110473633,0.07182604819536209,-0.028730420395731926
1765543008854116400,265.6221164550781,0.524330198764801,0.3064578175544739,0.07661445438861847
1765543008864156700,265.63215673828125,0.3998316824436188,0.2585737705230713,0.05506663769483566
1765543008884176100,265.65217602539065,0.22744916379451752,0.05027823522686958,0.090979665517807
1765543008894125000,265.662125,0.22505496442317963,0.090979665517807,0.047884032130241394
1765543008904134700,265.672134765625,0.2801215946674347,0.026336219161748886,0.031124621629714966
1765543008964132400,265.73213232421875,0.1388636976480484,0.019153613597154617,-0.0694318488240242
1765543009044180000,265.8121799316406,-0.05746084079146385,0.0454898327589035,0.08619125932455063
1765543009084219000,265.8522189941406,0.0694318488240242,-0.0933738648891449,-0.090979665517807
1765543009094198300,265.8621982421875,0.1604115068912506,-0.06224924325942993,-0.10295066982507706
1765543009104238600,265.8722385253906,0.21308395266532898,-0.043095629662275314,-0.08619125932455063
1765543009114217700,265.8822177734375,0.17477671802043915,0.0071826050989329815,-0.08619125932455063
1765543009124227600,265.8922275390625,0.24420857429504395,0.1149216815829277,-0.035913024097681046
1765543009134237200,265.9022373046875,0.2322375625371933,0.11971008777618408,0.0933738648891449
1765543009144216600,265.9122165527344,0.17717093229293823,0.0694318488240242,0.035913024097681046
1765543009174215200,265.94221508789065,0.0694318488240242,-0.019153613597154617,0.014365210197865963
1765543009184255500,265.95225537109377,0.07182604819536209,-0.08619125932455063,0.026336219161748886
1765543009194265300,265.9622653808594,0.0694318488240242,-0.10534487664699554,0.031124621629714966
1765543009204244500,265.97224438476565,0.12210428714752197,-0.08858546614646912,0.021547814831137657
1765543009214224000,265.9822238769531,0.07182604819536209,-0.035913024097681046,-0.016759412363171577
1765543009224203000,265.992203125,0.028730420395731926,0.028730420395731926,0.06224924325942993
1765543009234243300,266.0022434082031,0.038307227194309235,-0.08858546614646912,-0.040701430290937424
1765543009244222700,266.01222265625,0.0071826050989329815,-0.1388636976480484,-0.05027823522686958
1765543009254171400,266.02217138671875,0,-0.2825157940387726,-0.1628057211637497
1765543009274190800,266.04219091796875,0.07900865375995636,-0.07422025501728058,-0.07422025501728058
1765543009284200700,266.05220068359375,0.08140286058187485,-0.05746084079146385,0
1765543009294179800,266.0621799316406,0.10295066982507706,0.1149216815829277,-0.0071826050989329815
1765543009304159200,266.0721591796875,0.023942016065120697,0.10534487664699554,0.047884032130241394
1765543009314138400,266.0821384277344,-0.05746084079146385,0.019153613597154617,-0.002394201699644327
1765543009324178700,266.0921787109375,-0.043095629662275314,0.1364694982767105,0.05985504388809204
1765543009334157800,266.10215771484377,-0.002394201699644327,0.11252748221158981,0.05027823522686958
1765543009344167700,266.1121677246094,-0.06224924325942993,0.1173158809542656,0.07422025501728058
1765543009354146800,266.12214672851565,-0.05746084079146385,0.10773907601833344,-0.021547814831137657
1765543009364156700,266.13215673828125,0,0.009576806798577309,-0.15083470940589905
1765543009394155500,266.1621555175781,-0.014365210197865963,-0.023942016065120697,0.0454898327589035
1765543009404165000,266.1721650390625,-0.002394201699644327,-0.035913024097681046,0.09816227108240128
1765543009414144500,266.18214453125,0.07182604819536209,0.05506663769483566,0.2585737705230713
1765543009424123600,266.19212353515627,-0.033518824726343155,-0.019153613597154617,0.3998316824436188
1765543009434133500,266.2021335449219,0.1173158809542656,0.035913024097681046,0.43335050344467163
1765543009444112600,266.21211254882815,-0.5291185975074768,0.06464344263076782,0.24420857429504395
1765543009464102000,266.2321018066406,-1.6879122257232666,-0.19393034279346466,-1.1109095811843872
1765543009484121300,266.2521213378906,-2.762908697128296,-1.115697979927063,-0.05985504388809204
1765543009494100500,266.2621005859375,-2.8395233154296875,-0.933738648891449,-0.28969839215278625
1765543009504140800,266.2721408691406,-2.806004285812378,0.5578489899635315,-1.656787633895874
1765543009514120200,266.2821201171875,-2.6647465229034424,0.11971008777618408,-2.7437551021575928
1765543009524099300,266.2920993652344,-2.7246015071868896,0.5027823448181152,-1.460463047027588
1765543009534078500,266.30207836914065,-3.028665065765381,1.158793568611145,-0.22505496442317963
1765543009544088300,266.31208837890625,-3.3303346633911133,1.3287819623947144,-0.31124621629714966
1765543009554037000,266.322037109375,-3.6727054119110107,1.2090718746185303,-0.7757213711738586
1765543009564077300,266.3320773925781,-4.156333923339844,0.8643068075180054,-1.1899182796478271
1765543009574056700,266.342056640625,-4.6255974769592285,0.4357447028160095,-1.2952631711959839
1765543009594076200,266.362076171875,-4.869806289672852,0.8547300100326538,-1.4484920501708984
1765543009604055300,266.37205517578127,-5.085284233093262,1.2976573705673218,-1.357512354850769
1765543009614004200,266.3820041503906,-5.063736438751221,1.534683346748352,-1.3431471586227417
1765543009624013800,266.3920139160156,-5.16429328918457,2.118868589401245,-1.2521674633026123
1765543009634023700,266.4020236816406,-5.382165431976318,3.2417490482330322,-1.2832920551300049
1765543009644064000,266.41206396484375,-5.851428985595703,3.4308910369873047,-1.1204863786697388
1765543009654073600,266.42207348632815,-5.7772088050842285,2.360682964324951,-1.3287819623947144
1765543009664114000,266.4321140136719,-6.1530985832214355,0.6153098344802856,-1.965639591217041
1765543009674093300,266.44209326171875,-6.433219909667969,0.19153612852096558,-2.52109432220459
1765543009704061400,266.4720615234375,-5.351040840148926,-0.7805097699165344,-3.641580820083618
1765543009714071300,266.4820712890625,-5.463568210601807,-0.05746084079146385,-3.7612907886505127
1765543009724081000,266.4920808105469,-5.413290023803711,0.42856210470199585,-3.56017804145813
1765543009734029800,266.50202978515625,-5.0900726318359375,-0.3232172429561615,-3.383007049560547
1765543009744070100,266.5120700683594,-4.726154327392578,-1.8171991109848022,-3.6750996112823486
1765543009754079700,266.5220798339844,-4.326322555541992,-2.4205379486083984,-4.01268196105957
1765543009764059100,266.53205908203125,-3.708618402481079,-1.867477297782898,-4.369418144226074
1765543009774038300,266.5420383300781,-3.464409828186035,-1.161187767982483,-4.46518611907959
1765543009784048000,266.5520480957031,-3.3662476539611816,-1.2018892765045166,-4.311957359313965
1765543009804098000,266.57209814453125,-3.294421434402466,-1.8962076902389526,-4.05817174911499
1765543009834127400,266.60212744140625,-3.0789434909820557,-3.5051112174987793,-4.1156325340271
1765543009844137200,266.61213720703125,-2.82515811920166,-2.832340717315674,-4.175487995147705
1765543009854146800,266.62214672851565,-2.387019157409668,-2.205059766769409,-3.801992416381836
1765543009864126200,266.6321262207031,-1.9800047874450684,-1.845929503440857,-3.406949043273926
1765543009874105300,266.6421052246094,-1.3934253454208374,-2.427720546722412,-3.2968156337738037
1765543009884115200,266.652115234375,-1.0103530883789062,-3.026270866394043,-3.646369218826294
1765543009894094300,266.66209423828127,-0.6344634294509888,-3.3662476539611816,-3.950432777404785
1765543009934041900,266.7020417480469,0.26096799969673157,-4.917690277099609,-3.550601005554199
1765543009964040700,266.7320407714844,0.26096799969673157,-5.851428985595703,-3.0789434909820557
1765543009974050600,266.7420505371094,0.363918662071228,-6.023811340332031,-2.9065608978271484
1765543009994100500,266.7621005859375,0.42856210470199585,-6.660669326782227,-2.647987127304077
1765543010014089500,266.78208935546877,0.5291185975074768,-6.813898086547852,-2.2697031497955322
1765543010024099300,266.7920993652344,0.6200982332229614,-6.775590896606445,-1.9800047874450684
1765543010094137000,266.86213720703125,2.030282974243164,-5.240907669067383,0.05746084079146385
1765543010104116500,266.8721164550781,2.250549554824829,-5.233725070953369,0.31842881441116333
1765543010124136000,266.8921359863281,2.631227731704712,-5.456385612487793,0.586579442024231
1765543010194235000,266.96223486328125,2.7126305103302,-5.513846397399902,0.7110779285430908
1765543010204214000,266.9722141113281,2.6455929279327393,-5.207388877868652,0.6224924325942993
1765543010224233500,266.9922333984375,2.38462495803833,-4.774038314819336,0.4118026793003082
1765543010254262800,267.0222626953125,2.145204782485962,-4.273650169372559,0.028730420395731926
1765543010264272600,267.0322727050781,2.0853497982025146,-4.113238334655762,-0.08858546614646912
1765543010274282500,267.0422824707031,1.9129672050476074,-4.017470359802246,-0.33039984107017517
1765543010294271500,267.062271484375,1.6328455209732056,-3.8762125968933105,-0.5339069962501526
1765543010314291000,267.082291015625,1.0438719987869263,-3.5194764137268066,-0.9816226959228516
1765543010354330000,267.122330078125,0.2968810200691223,-2.9759926795959473,-1.115697979927063
1765543010374349600,267.142349609375,0.021547814831137657,-2.559401512145996,-1.3239935636520386
1765543010394338600,267.1623386230469,-0.28730419278144836,-1.9776105880737305,-1.2401964664459229
1765543010404348400,267.1723483886719,-0.3663128614425659,-1.8100165128707886,-1.2186486721038818
1765543010414327600,267.18232763671875,-0.35673606395721436,-1.5155296325683594,-1.314416766166687
1765543010434377700,267.2023776855469,-0.507570743560791,-0.9074024558067322,-1.6208745241165161
1765543010454427600,267.222427734375,-0.6799532771110535,-0.3902548849582672,-1.680729627609253
1765543010464437500,267.2324375,-0.8092401623725891,-0.2059013396501541,-1.5179238319396973
1765543010474447000,267.2424470214844,-1.015141487121582,0.19153612852096558,-1.4724340438842773
1765543010494436400,267.2624362792969,-1.2713210582733154,0.6320692300796509,-1.5203180313110352
1765543010504446000,267.2724460449219,-1.3694833517074585,0.8331822156906128,-1.41257905960083
1765543010514455800,267.2824558105469,-1.4173674583435059,1.1276689767837524,-1.3838485479354858
1765543010524465400,267.29246533203127,-1.4245500564575195,1.2880805730819702,-1.2497732639312744
1765543010644552200,267.41255224609375,0.3471592366695404,1.501164436340332,1.400607943534851
1765543521411293700,778.1792937011719,0.7757213711738586,0.8092401623725891,0.5770025849342346
1765543521421303600,778.1893034667969,6.088454723358154,3.974374771118164,13.974955558776855
1765543521431282700,778.1992827148438,-0.9552865028381348,-0.05746084079146385,-0.6560112833976746
1765543521450972000,778.2189719238281,-2.0685901641845703,-0.31603461503982544,0.6871358752250671
1765543521460581600,778.2285815429688,-3.8139634132385254,-1.381454348564148,0.9409212470054626
1765543521480231700,778.2482316894532,-5.413290023803711,-0.38546648621559143,2.542642116546631
1765543521500251100,778.2682512207032,-3.8953661918640137,1.900996208190918,1.8483237028121948
1765543521510230300,778.2782302246094,-2.9496564865112305,1.2880805730819702,0.9672574996948242
1765543521520240000,778.288240234375,-3.0406360626220703,-0.44771572947502136,0.011971008032560349
1765543521570258400,778.3382585449219,-0.9481038451194763,-0.24660277366638184,-0.31364041566848755
1765543521580268300,778.3482683105469,-1.1540051698684692,1.0462661981582642,-0.5578489899635315
1765543521590278000,778.3582778320313,-1.7908629179000854,0.44771572947502136,-0.8954314589500427
1765543521600287700,778.3682878417969,-2.3295583724975586,-0.20111294090747833,-0.6320692300796509
1765543521610267000,778.3782668457031,-2.4636335372924805,0.9983820915222168,0.08140286058187485
1765543521620276700,778.3882768554688,-2.051830768585205,1.7477672100067139,0.5937620401382446
1765543521650275600,778.4182756347657,-0.15562310814857483,0.9816226959228516,-0.7589619159698486
1765543521690314500,778.458314453125,0.24899697303771973,1.3718775510787964,0.9696516990661621
1765543521730353700,778.4983537597657,0.8188169598579407,-2.229001760482788,-0.586579442024231
1765543521800422100,778.5684221191407,-0.569819986820221,1.256955862045288,-1.3239935636520386
1765543521820441600,778.5884416503907,-0.3016694188117981,1.4963760375976562,-0.363918662071228
1765543521830451200,778.598451171875,0.06703764945268631,1.3024457693099976,-0.2753331959247589
1765543521850440400,778.6184404296876,-0.22266076505184174,-0.14365209639072418,-0.2346317619085312
1765543521860450000,778.6284499511719,0.2753331959247589,-0.8738836050033569,-0.10534487664699554
1765543521870460000,778.6384599609376,-0.12210428714752197,-0.6967126727104187,0.13407529890537262
1765543521880469800,778.6484697265626,0,-0.507570743560791,-0.040701430290937424
1765543521890479400,778.6584792480469,-0.24420857429504395,-0.0454898327589035,0.22266076505184174
1765543521900489200,778.6684892578126,-0.35913026332855225,-0.10773907601833344,0.33518823981285095
1765543521910498800,778.6784987792969,-0.8212111592292786,-0.4405331015586853,0.8451532125473022
1765543521920508700,778.6885087890626,-0.8930372595787048,-0.5626373887062073,1.1109095811843872
1765543521930518500,778.6985185546876,-0.5889736413955688,-0.7733271718025208,0.6919242739677429
1765543521960486700,778.7284865722656,0.4141969084739685,0.9768342971801758,-0.040701430290937424
1765543521970466000,778.7384660644532,-0.15801730751991272,0.8738836050033569,-0.3519476354122162
1765543521980445200,778.7484450683594,-0.5793967843055725,0.9361328482627869,-0.6224924325942993
1765543521990424600,778.7584245605469,0.22505496442317963,0.545877993106842,-0.8643068075180054
1765543522000464600,778.7684645996094,-0.22505496442317963,0.7254431247711182,-0.4141969084739685
1765543522010444000,778.7784440917969,-0.47884035110473633,0.9624691009521484,-0.19871874153614044
1765543522030494000,778.7984938964844,0.1604115068912506,0.7374141216278076,-0.4405331015586853
1765543522040534300,778.8085341796875,0.3734954595565796,0.2777273952960968,-0.47884035110473633
1765543522060492800,778.8284929199219,-0.40940847992897034,-0.49320554733276367,0.09576806426048279
1765543522160468500,778.9284685058594,-0.5841852426528931,-0.33279404044151306,-0.31124621629714966
1765543522200507400,778.9685073242188,-1.137245774269104,-1.5658079385757446,-0.6991068720817566
1765543522220496400,778.9884963378906,-1.8962076902389526,-2.229001760482788,-0.5099649429321289
1765543522230506200,778.9985063476563,-2.0015525817871094,-1.0773907899856567,-0.17238251864910126
1765543522250525700,779.0185256347656,-1.2330138683319092,1.4245500564575195,-0.6057330369949341
1765543522260505000,779.0285051269532,-0.45010992884635925,2.717418909072876,-0.6536170840263367
1765543522270514700,779.0385146484375,0.6823474764823914,3.892971992492676,-0.849941611289978
1765543522280555000,779.0485549316406,1.8267759084701538,4.242525577545166,-1.2306196689605713
1765543522330542800,779.09854296875,1.6543933153152466,0.21787235140800476,0.3471592366695404
1765543522340522200,779.1085222167969,1.6184803247451782,-0.40462008118629456,0.8571242094039917
1765543522350501400,779.1185014648438,1.4413094520568848,-0.7805097699165344,1.0606313943862915
1765543522370551300,779.1385512695313,0.3447650372982025,-1.194706678390503,0.8810662031173706
1765543522380561200,779.1485610351563,0.014365210197865963,-0.7709329724311829,1.0797849893569946
1765543522400550100,779.1685500488281,-0.5937620401382446,-0.33039984107017517,-0.009576806798577309
1765543522410590500,779.1785905761719,-0.7781155705451965,-0.10534487664699554,-0.24420857429504395
1765543522420600300,779.1886003417969,-0.9313444495201111,-0.021547814831137657,-0.08858546614646912
1765543522430610000,779.1986098632813,-0.9744400978088379,-0.0071826050989329815,-0.16519992053508759
1765543522440619800,779.2086198730469,-1.070208191871643,-0.5291185975074768,-0.272938996553421
1765543522450599000,779.2185988769531,-1.1659762859344482,-0.6488286852836609,-0.15562310814857483
1765543522460608800,779.2286088867188,-0.8403648138046265,-0.6416460275650024,-0.06464344263076782
1765543522470618600,779.2386186523438,-1.0247182846069336,-0.6009446382522583,0.09816227108240128
1765543522480597800,779.24859765625,-0.3734954595565796,-0.3926490843296051,-0.021547814831137657
1765543522510627000,779.278626953125,-0.21308395266532898,-1.3407529592514038,0.6871358752250671
1765543522530646500,779.298646484375,-0.8690952062606812,-0.8307880163192749,0.2298433631658554
1765543522540656400,779.3086564941407,-0.9672574996948242,-0.751779317855835,0.040701430290937424
1765543522550666200,779.3186662597657,-0.6200982332229614,0.3902548849582672,-0.10295066982507706
1765543522560706600,779.3287065429688,-0.20350714027881622,1.623268723487854,-0.6727706789970398
1765543522570716200,779.3387160644531,0.23702596127986908,1.6280571222305298,-0.9888052940368652
1765543522580726000,779.3487260742188,0.8810662031173706,1.4101848602294922,-0.42377370595932007
1765543522590736000,779.3587358398438,1.5107412338256836,0.8140285611152649,0.08140286058187485
1765543522630774800,779.3987749023438,-0.5937620401382446,-0.10773907601833344,-0.05267243832349777
1765543522640815000,779.4088151855469,-0.8643068075180054,-0.043095629662275314,-0.09576806426048279
1765543522650825000,779.4188249511719,-0.6272808313369751,0.019153613597154617,-0.016759412363171577
1765543522660865000,779.4288649902344,0.011971008032560349,0.40222588181495667,-0.07900865375995636
1765543522670875000,779.438875,0.22266076505184174,0.31364041566848755,-0.11252748221158981
1765543522680884700,779.448884765625,0.17238251864910126,-0.2513911724090576,0.040701430290937424
1765543522690894300,779.4588942871094,-0.08858546614646912,-0.6105214357376099,0.15801730751991272
1765543522700904200,779.468904296875,0.023942016065120697,-0.7038952708244324,0.08858546614646912
1765543522730903000,779.4989030761719,-0.33039984107017517,-0.011971008032560349,-0.15801730751991272
1765543522740912600,779.5089125976563,-0.4429273009300232,0.24420857429504395,-0.37828385829925537
1765543522750922500,779.5189226074219,-0.5099649429321289,0.2322375625371933,-0.49799394607543945
1765543522760932400,779.5289323730469,-0.5003881454467773,0.2298433631658554,-0.49799394607543945
1765543522770942000,779.5389418945313,-0.5315127968788147,0.05985504388809204,-0.5482721924781799
1765543522780951800,779.5489519042969,-0.33039984107017517,-0.090979665517807,-0.45010992884635925
1765543522790961700,779.5589616699219,-0.24660277366638184,0.11013327538967133,0.016759412363171577
1765543522800971300,779.5689711914063,-0.27054479718208313,0.33997663855552673,0.38546648621559143
1765543522820991000,779.5889909667969,-0.004788403399288654,0.33758243918418884,0.12928688526153564
1765543522831000600,779.5990004882813,0.12449848651885986,-0.23702596127986908,-0.08619125932455063
1765543522841041000,779.609041015625,-0.09816227108240128,-0.4141969084739685,-0.2298433631658554
1765543522851020300,779.6190202636719,-0.2777273952960968,-0.4165911078453064,-0.2106897532939911
1765543522871039700,779.6390397949219,-0.1843535304069519,-0.004788403399288654,-0.3280056416988373
1765543522881049300,779.6490493164063,0.038307227194309235,0.05506663769483566,-0.18914192914962769
1765543522891059200,779.6590590820313,0.07182604819536209,0.09816227108240128,-0.028730420395731926
1765543522901069000,779.6690690917969,0.2537853717803955,-0.09576806426048279,0.09816227108240128
1765543522911078700,779.6790786132813,0.3256114423274994,-0.16759411990642548,0.08379705995321274
1765543522941047000,779.7090471191407,0.3902548849582672,0.004788403399288654,0.2513911724090576
1765543522951057000,779.7190568847657,0.2825157940387726,-0.19871874153614044,0.24660277366638184
1765543522961066500,779.72906640625,0.17238251864910126,-0.2513911724090576,0.05985504388809204
1765543522971046000,779.7390458984376,0.002394201699644327,0,-0.1628057211637497
1765543522981025000,779.7490249023438,-0.18914192914962769,0.2106897532939911,-0.2346317619085312
1765543522991065300,779.7590654296876,-0.4381389021873474,0.363918662071228,-0.16759411990642548
1765543523001105700,779.7691057128907,-0.42616790533065796,0.19632454216480255,-0.17717093229293823
1765543523011084800,779.7790847167969,-0.30885201692581177,0.10295066982507706,-0.26096799969673157
1765543523041083600,779.8090837402344,-0.040701430290937424,-0.10055647045373917,0.10295066982507706
1765543523051062800,779.8190627441406,-0.1843535304069519,-0.035913024097681046,-0.2106897532939911
1765543523061072600,779.8290727539063,-0.11013327538967133,0.10534487664699554,-0.23942017555236816
1765543523071052000,779.8390520019532,-0.12928688526153564,-0.0071826050989329815,-0.2968810200691223
1765543523081061600,779.8490615234375,-0.33758243918418884,-0.13168109953403473,-0.363918662071228
1765543523091071500,779.8590715332032,-0.0933738648891449,-0.13407529890537262,-0.31842881441116333
1765543523101081000,779.8690810546875,0.2537853717803955,-0.2298433631658554,-0.07422025501728058
1765543523111091000,779.8790910644532,0.26336219906806946,-0.21787235140800476,0.33518823981285095
1765543523121100800,779.8891008300782,-0.13168109953403473,0.07661445438861847,0.16759411990642548
1765543523151130000,779.9191301269532,-0.028730420395731926,-0.18914192914962769,-0.05027823522686958
1765543523161109200,779.9291091308594,-0.08619125932455063,-0.3758896589279175,0.08140286058187485
1765543523171088600,779.9390886230469,-0.002394201699644327,-0.3902548849582672,0.07900865375995636
1765543523181067800,779.9490678710938,0.1843535304069519,-0.1149216815829277,-0.2346317619085312
1765543523191047000,779.959046875,0.2082955539226532,-0.023942016065120697,-0.16998831927776337
1765543523201087200,779.9690871582031,0.26336219906806946,-0.06464344263076782,-0.014365210197865963
1765543523211066600,779.9790666503907,0.13168109953403473,-0.038307227194309235,0.2346317619085312
1765543523221045800,779.9890456542969,-0.18914192914962769,-0.07182604819536209,0.12689268589019775
1765543523261085000,780.0290849609376,-0.31124621629714966,0.2944868206977844,-0.2992752194404602
1765543523271125200,780.0391252441407,-0.07182604819536209,0.07900865375995636,-0.22026655077934265
1765543523281134800,780.049134765625,0.2059013396501541,-0.3064578175544739,0.08619125932455063
1765543523291114200,780.0591142578126,0.0454898327589035,-0.35434186458587646,-0.002394201699644327
1765543523301123800,780.0691237792969,0.10534487664699554,-0.033518824726343155,-0.17717093229293823
1765543523311133700,780.0791337890626,0.023942016065120697,0.13168109953403473,-0.304063618183136
1765543523321174000,780.0891740722657,-0.1412578970193863,0.10055647045373917,-0.19393034279346466
1765543523331153200,780.0991530761719,-0.23702596127986908,0.06464344263076782,-0.05506663769483566
1765543523341163000,780.1091630859376,-0.15322890877723694,-0.15562310814857483,-0.019153613597154617
1765543523371131100,780.1391311035156,-0.12210428714752197,0.24420857429504395,-0.18914192914962769
1765543523381141000,780.1491411132813,-0.07661445438861847,0.0694318488240242,-0.26815059781074524
1765543523391150800,780.1591508789063,-0.26336219906806946,-0.009576806798577309,-0.363918662071228
1765543523401160400,780.1691604003906,-0.272938996553421,-0.07900865375995636,-0.18914192914962769
1765543523421180200,780.1891801757813,0.1364694982767105,-0.2825157940387726,-0.016759412363171577
1765543523431189800,780.1991896972656,0.14365209639072418,-0.2825157940387726,-0.019153613597154617
1765543523441169200,780.2091691894532,0.35434186458587646,-0.033518824726343155,0.06464344263076782
1765543523451178800,780.2191787109375,0.33039984107017517,0.20111294090747833,0.019153613597154617
1765543523471168000,780.23916796875,-0.1149216815829277,0,-0.06224924325942993
1765543523481208000,780.2492080078125,-0.26336219906806946,-0.023942016065120697,-0.090979665517807
1765543523491218000,780.2592180175782,-0.22026655077934265,0.11971008777618408,-0.17717093229293823
1765543523501227800,780.2692277832032,-0.07182604819536209,0.2585737705230713,-0.26336219906806946
1765543523511237400,780.2792373046875,0.26815059781074524,0.29209262132644653,-0.18914192914962769
1765543523521216800,780.289216796875,0.3232172429561615,0.38546648621559143,-0.14844051003456116
1765543523531226400,780.2992263183594,0.2944868206977844,-0.0071826050989329815,0.004788403399288654
1765543523551215400,780.3192153320313,0.4118026793003082,-0.7493851184844971,0.28730419278144836
1765543523571204600,780.3392045898438,-0.08619125932455063,0.2298433631658554,0.11013327538967133
1765543523581214200,780.3492141113281,-0.2561795711517334,0.2777273952960968,-0.22026655077934265
1765543523591224000,780.3592241210938,-0.31124621629714966,0.19153612852096558,-0.23942017555236816
1765543523601234000,780.3692338867188,-0.37828385829925537,0.021547814831137657,-0.1388636976480484
1765543523611213000,780.3792131347657,-0.1412578970193863,-0.30885201692581177,-0.17477671802043915
1765543523621223000,780.3892229003907,-0.1867477297782898,-0.1173158809542656,0.06224924325942993
1765543523631202000,780.3992021484376,-0.2106897532939911,0.19632454216480255,0.26096799969673157
1765543523641212000,780.4092119140626,-0.0071826050989329815,0.3687070608139038,-0.038307227194309235
1765543523651191000,780.4191909179688,-0.026336219161748886,0.181959331035614,-0.31124621629714966
1765543523671180000,780.4391799316406,0.011971008032560349,-0.047884032130241394,-0.3902548849582672
1765543523691169000,780.4591689453125,-0.2082955539226532,-0.45010992884635925,0.22026655077934265
1765543523701179000,780.4691789550782,-0.2944868206977844,-0.031124621629714966,0.10055647045373917
1765543523711188700,780.4791887207032,0.2801215946674347,0.2346317619085312,0.3208230137825012
1765543523721198300,780.4891982421875,0.5027823448181152,0.33997663855552673,-0.20111294090747833
1765543523731208200,780.4992082519532,0.2346317619085312,0.2849099934101105,-0.2082955539226532
1765543523741218000,780.5092180175782,-0.043095629662275314,0.021547814831137657,-0.08619125932455063
1765543523751227600,780.5192275390625,-0.6536170840263367,-0.1604115068912506,0.17477671802043915
1765543523791205600,780.5592055664063,-0.42856210470199585,0.06464344263076782,-0.2992752194404602
1765543523801246000,780.5692458496094,-0.44532153010368347,0.1628057211637497,-0.30885201692581177
1765543523811225300,780.5792253417969,-0.24660277366638184,-0.12449848651885986,-0.23942017555236816
1765543523831214300,780.5992143554688,-0.2968810200691223,-0.3423708379268646,-0.10295066982507706
1765543523841224000,780.6092238769531,-0.5506663918495178,-0.40940847992897034,-0.17238251864910126
1765543523851233800,780.6192338867188,-0.9265560507774353,-0.7086837291717529,-0.20111294090747833
1765543523861243600,780.6292436523438,-1.0773907899856567,-0.8738836050033569,-0.3711012601852417
1765543523871253200,780.6392531738281,-1.0199298858642578,-0.7326257228851318,-0.2801215946674347
1765543523881232600,780.6492326660157,-0.727837324142456,-0.23702596127986908,-0.4213795065879822
1765543523891211800,780.6592116699219,-0.6368576288223267,0.6560112833976746,-0.12210428714752197
1765543523901221600,780.6692216796876,-0.21787235140800476,0.933738648891449,-0.035913024097681046
1765543523911200800,780.6792006835938,0.3974374830722809,0.9481038451194763,-0.3064578175544739
1765543523921241000,780.6892409667969,0.4692635238170624,0.9169792532920837,-0.5913678407669067
1765543523931251000,780.6992509765626,0.5841852426528931,0.4165911078453064,-0.6655880808830261
1765543523941260500,780.7092604980469,1.0055646896362305,0.5746083855628967,-0.507570743560791
1765543523951270400,780.7192705078126,2.537853717803955,1.0965443849563599,-0.7637503147125244
1765543523961280300,780.7292802734376,1.2306196689605713,0.8451532125473022,-0.18914192914962769
1765543523991278800,780.7592788085938,-0.038307227194309235,-0.6200982332229614,0.1149216815829277
1765543524011268000,780.7792680664063,-0.1412578970193863,-0.6775590777397156,-0.14365209639072418
1765543524021308200,780.7893081054688,0.10773907601833344,-0.47165772318840027,0.038307227194309235
1765543524031318000,780.7993181152344,0.37828385829925537,-0.16998831927776337,0.16759411990642548
1765543524041327900,780.8093278808594,0.3902548849582672,-0.0454898327589035,0.33518823981285095
1765543524051307000,780.8193071289063,0.0933738648891449,-0.10295066982507706,0.3663128614425659
1765543524061316900,780.8293168945313,-0.16759411990642548,-0.21547815203666687,0.014365210197865963
1765543524081336300,780.8493364257813,-0.4429273009300232,-0.24420857429504395,-0.1867477297782898
1765543524091346200,780.8593461914063,-0.4381389021873474,-0.2298433631658554,-0.19153612852096558
1765543524101355800,780.8693557128906,-0.5913678407669067,-0.031124621629714966,-0.07422025501728058
1765543524111335200,780.8793352050782,-0.42377370595932007,0.09816227108240128,-0.10773907601833344
1765543524131354600,780.8993547363282,0.10295066982507706,-0.033518824726343155,-0.07422025501728058
1765543524141334000,780.909333984375,-0.023942016065120697,-0.08619125932455063,-0.16759411990642548
1765543524151374000,780.9193740234375,-0.10055647045373917,-0.1628057211637497,-0.14365209639072418
1765543524161353500,780.929353515625,-0.2753331959247589,-0.26096799969673157,0.009576806798577309
1765543524171393800,780.9393937988282,-0.2849099934101105,-0.2585737705230713,-0.038307227194309235
1765543524201423000,780.9694230957032,-0.181959331035614,0.10055647045373917,-0.043095629662275314
1765543524211432700,780.9794326171875,-0.06224924325942993,-0.019153613597154617,0.0071826050989329815
1765543524221442600,780.9894426269532,-0.0071826050989329815,-0.047884032130241394,-0.0454898327589035
1765543524231421700,780.9994216308594,0.11252748221158981,-0.24660277366638184,-0.08619125932455063
1765543524241401000,781.0094011230469,0.1173158809542656,-0.2298433631658554,-0.0071826050989329815
1765543524251441400,781.01944140625,-0.031124621629714966,-0.13407529890537262,0.0071826050989329815
1765543524261420500,781.0294206542969,-0.06464344263076782,-0.1173158809542656,-0.05985504388809204
1765543524271460900,781.0394609375,-0.10773907601833344,0.023942016065120697,-0.12449848651885986
1765543524291449900,781.0594499511719,0.033518824726343155,-0.033518824726343155,-0.05985504388809204
1765543524301459700,781.0694597167969,-0.10534487664699554,-0.05985504388809204,-0.004788403399288654
1765543524311469300,781.0794692382813,-0.18914192914962769,-0.035913024097681046,-0.05267243832349777
1765543524321479200,781.0894792480469,-0.27054479718208313,0.1604115068912506,-0.21787235140800476
1765543524331489000,781.0994890136719,-0.14365209639072418,0.10295066982507706,-0.272938996553421
1765543524341498600,781.1094985351563,-0.05027823522686958,-0.12210428714752197,-0.16998831927776337
1765543524351508500,781.1195085449219,-0.10773907601833344,-0.07900865375995636,-0.038307227194309235
1765543524361518300,781.1295183105469,0.06703764945268631,0.08140286058187485,-0.028730420395731926
1765543524371528000,781.1395278320313,0.1149216815829277,0.12928688526153564,-0.0071826050989329815
1765543524381537800,781.1495378417969,0.10534487664699554,0.10534487664699554,-0.014365210197865963
1765543524401557200,781.1695571289063,-0.15562310814857483,-0.07182604819536209,-0.16759411990642548
1765543524411567000,781.1795671386719,-0.16998831927776337,-0.1173158809542656,-0.19632454216480255
1765543524421576700,781.1895766601563,-0.09816227108240128,-0.07661445438861847,-0.2059013396501541
1765543524431586600,781.1995866699219,-0.08858546614646912,-0.11252748221158981,-0.047884032130241394
1765543524441627000,781.209626953125,-0.07661445438861847,-0.12210428714752197,-0.08619125932455063
1765543524451606000,781.2196059570313,-0.05985504388809204,-0.08379705995321274,-0.031124621629714966
1765543524461585400,781.2295854492188,-0.06224924325942993,0.05027823522686958,-0.1604115068912506
1765543524471625700,781.2396257324219,0,0.05506663769483566,-0.10534487664699554
1765543524481635300,781.2496352539063,-0.033518824726343155,-0.07422025501728058,0.011971008032560349
1765543524511634200,781.2796342773438,0.026336219161748886,-0.05985504388809204,-0.1388636976480484
1765543524521613300,781.28961328125,-0.1628057211637497,-0.002394201699644327,-0.09576806426048279
1765543524531653600,781.2996535644531,-0.14365209639072418,0.009576806798577309,-0.16998831927776337
1765543524541663500,781.3096635742188,-0.05267243832349777,-0.035913024097681046,-0.12689268589019775
1765543524551673300,781.3196733398438,-0.019153613597154617,-0.12928688526153564,-0.07422025501728058
1765543524561652500,781.3296525878907,0.026336219161748886,-0.08379705995321274,0.011971008032560349
1765543524571662300,781.3396623535157,0,0.07182604819536209,-0.08858546614646912
1765543524581672000,781.349671875,-0.05267243832349777,0.13407529890537262,0.023942016065120697
1765543524591681800,781.3596818847657,0,0.05027823522686958,-0.05746084079146385
1765543524611670800,781.3796708984376,0.035913024097681046,-0.0933738648891449,-0.0933738648891449
1765543524621650200,781.3896501464844,0.014365210197865963,-0.10295066982507706,-0.1604115068912506
1765543524631629300,781.3996293945313,0.014365210197865963,0.002394201699644327,-0.1149216815829277
1765543524641639200,781.4096391601563,-0.011971008032560349,0.047884032130241394,-0.12210428714752197
1765543524651618300,781.4196184082032,-0.035913024097681046,0.10055647045373917,-0.05985504388809204
1765543524661628200,781.4296281738282,-0.0933738648891449,-0.021547814831137657,-0.17956513166427612
1765543524671637800,781.4396376953125,-0.15322890877723694,0.016759412363171577,-0.1388636976480484
1765543524681617200,781.4496171875,-0.15562310814857483,-0.011971008032560349,-0.023942016065120697
1765543524691626800,781.4596267089844,-0.10773907601833344,-0.047884032130241394,-0.0454898327589035
1765543524721656000,781.4896560058594,-0.08379705995321274,-0.033518824726343155,-0.06703764945268631
1765543524731635500,781.4996354980469,0,0.0454898327589035,-0.07900865375995636
1765543524741614600,781.5096145019531,-0.10055647045373917,0.14844051003456116,-0.05267243832349777
1765543524751655000,781.5196550292969,-0.019153613597154617,-0.009576806798577309,-0.15801730751991272
1765543524761664800,781.5296647949219,-0.016759412363171577,-0.0071826050989329815,-0.15801730751991272
1765543524771674400,781.5396743164063,0.035913024097681046,-0.1173158809542656,-0.08379705995321274
1765543524781653800,781.5496538085938,0.016759412363171577,-0.2298433631658554,-0.24181437492370605
1765543524791663400,781.5596633300781,-0.031124621629714966,-0.14604631066322327,-0.18914192914962769
1765543524841651200,781.6096511230469,-0.011971008032560349,0,-0.15083470940589905
1765543524851661000,781.6196611328126,-0.11971008777618408,-0.06703764945268631,-0.08379705995321274
1765543524861671000,781.6296708984376,0.009576806798577309,-0.026336219161748886,-0.031124621629714966
1765543524871650000,781.6396501464844,-0.05985504388809204,-0.040701430290937424,-0.1149216815829277
1765543524881629200,781.6496291503906,-0.08379705995321274,-0.09576806426048279,-0.12449848651885986
1765543524891669500,781.6596694335938,-0.07661445438861847,-0.15322890877723694,-0.19153612852096558
1765543524901679400,781.6696794433594,-0.07900865375995636,-0.009576806798577309,-0.17717093229293823
1765543524931708700,781.6997087402344,0.1412578970193863,0.07661445438861847,-0.009576806798577309
1765543524951697700,781.7196977539063,0.09816227108240128,-0.035913024097681046,-0.031124621629714966
1765543524961738000,781.7297380371094,0.011971008032560349,-0.05506663769483566,-0.09576806426048279
1765543524971717000,781.7397170410156,-0.06464344263076782,-0.0933738648891449,-0.06703764945268631
1765543524981696500,781.7496965332032,-0.1173158809542656,-0.009576806798577309,-0.1364694982767105
1765543524991736800,781.7597368164063,-0.12689268589019775,0.040701430290937424,-0.17238251864910126
1765543525001716000,781.7697160644532,-0.16519992053508759,-0.06464344263076782,-0.22266076505184174
1765543525011725800,781.7797258300782,-0.07661445438861847,-0.021547814831137657,-0.08140286058187485
1765543525031775700,781.7997756347656,0.07422025501728058,0.009576806798577309,-0.0071826050989329815
1765543525041755100,781.8097551269532,0,0.026336219161748886,-0.17956513166427612
1765543525051734300,781.819734375,-0.019153613597154617,-0.038307227194309235,-0.10295066982507706
1765543525061805000,781.8298051757813,-0.0694318488240242,-0.09576806426048279,-0.019153613597154617
1765543525071815000,781.8398149414063,0.07422025501728058,0.009576806798577309,-0.08619125932455063
1765543525081855200,781.8498552246094,0.5530605912208557,-0.028730420395731926,-0.028730420395731926
1765543525091834400,781.8598344726563,0.5841852426528931,-0.05746084079146385,-0.10773907601833344
1765543525101844200,781.8698442382813,0.8188169598579407,-0.05985504388809204,0.06224924325942993
1765543525111823400,781.8798232421875,0.811634361743927,-0.0933738648891449,0.10773907601833344
1765543525121833200,781.8898332519532,0.2801215946674347,0.2059013396501541,0.08140286058187485
1765543525161902800,781.9299028320313,0.730231523513794,-0.21308395266532898,0.569819986820221
1765543525171912400,781.9399123535156,0.8403648138046265,-0.19632454216480255,1.161187767982483
1765543525181922300,781.9499223632813,1.036689281463623,-0.272938996553421,1.2976573705673218
1765543525191932200,781.9599321289063,0.2561795711517334,0.272938996553421,1.1492167711257935
1765543525201941800,781.9699416503906,-0.2082955539226532,0.08858546614646912,0.3711012601852417
1765543525211890400,781.9798903808594,-0.14365209639072418,0.17238251864910126,-0.19393034279346466
1765543525221900300,781.989900390625,-0.629675030708313,-0.0071826050989329815,-0.272938996553421
1765543525241919700,782.0099196777344,-0.11252748221158981,0.33997663855552673,0.16519992053508759
1765543525251929600,782.0199296875,0.5339069962501526,0.629675030708313,0.5793967843055725
1765543525261939500,782.029939453125,0.8427590131759644,0.8930372595787048,0.7493851184844971
1765543525271918600,782.0399187011719,0.8475474119186401,0.3016694188117981,0.3687070608139038
1765543525281959000,782.049958984375,0.07182604819536209,-0.31842881441116333,0.19871874153614044
1765543525291938000,782.0599379882813,-0.15562310814857483,-0.395043283700943,0.23702596127986908
1765543525301948000,782.0699479980469,0.023942016065120697,0.751779317855835,0.23942017555236816
1765543525311957800,782.0799577636719,0.0694318488240242,0.8331822156906128,-0.07422025501728058
1765543525321967400,782.0899672851563,-0.363918662071228,-0.043095629662275314,-0.3519476354122162
1765543525331946800,782.0999467773438,-0.42377370595932007,-0.3280056416988373,-0.21308395266532898
1765543525361945300,782.1299453125,-1.3503297567367554,0.009576806798577309,0.27054479718208313
1765543525371955200,782.139955078125,-1.4053963422775269,-0.646434485912323,0.016759412363171577
1765543525381965000,782.1499650878907,-1.5538369417190552,-0.7158663272857666,-0.40940847992897034
1765543525391974700,782.159974609375,-1.359906554222107,-0.8355764150619507,-0.7350199222564697
1765543525402015000,782.1700148925781,-0.7613561153411865,-0.8020575642585754,-1.072602391242981
1765543525411994400,782.1799943847657,-0.4668693244457245,-0.4429273009300232,-1.2425906658172607
1765543525422004000,782.19000390625,0.11013327538967133,0.8236053586006165,-1.522712230682373
1765543525432013800,782.2000139160157,0.1173158809542656,0.828393816947937,-1.525106430053711
