time,seconds_elapsed,z,y,x
1766401358197294000,-1.938705810546875,8.841787338256836,-4.438849925994873,-3.6966474056243896
1766401358217344000,-1.918656005859375,8.616731643676758,-3.883395195007324,-3.6152446269989014
1766401358227384300,-1.90861572265625,8.125920295715332,-4.280832767486572,-3.758896589279175
1766401358237394200,-1.898605712890625,8.109161376953125,-4.0078935623168945,-3.5913026332855225
1766401358247403800,-1.88859619140625,8.003816604614258,-4.125209331512451,-3.7469255924224854
1766401358257413600,-1.87858642578125,8.154650688171387,-4.608838081359863,-4.0294413566589355
1766401358267454000,-1.868546142578125,8.286332130432129,-4.383783340454102,-3.794809579849243
1766401358277494300,-1.858505615234375,8.238448143005371,-4.168305397033691,-3.93367338180542
1766401358287504000,-1.84849609375,8.257601737976074,-3.9408559799194336,-3.7852327823638916
1766401358297513700,-1.838486328125,8.259995460510254,-3.665522813796997,-3.7924153804779053
1766401358307554000,-1.828446044921875,8.248024940490723,-3.6942532062530518,-3.6846764087677
1766401358377591800,-1.758408203125,8.159439086914062,-4.235342979431152,-3.751713991165161
1766401358387632000,-1.748367919921875,8.257601737976074,-3.8570590019226074,-3.7421371936798096
1766401358397641700,-1.738358154296875,8.188169479370117,-4.084507942199707,-3.737348794937134
1766401358407712800,-1.728287353515625,8.2312650680542,-4.015076160430908,-3.8355112075805664
1766401358427793200,-1.708206787109375,8.374917984008789,-3.952826976776123,-3.667917013168335
1766401358437803000,-1.698197021484375,8.389283180236816,-4.003105163574219,-3.706224203109741
1766401358447843300,-1.68815673828125,8.269572257995605,-4.144362926483154,-3.536235809326172
1766401358457883600,-1.678116455078125,8.288725852966309,-4.177882194519043,-3.667917013168335
1766401358467893200,-1.668106689453125,8.259995460510254,-4.122815132141113,-3.713406801223755
1766401358477903000,-1.658096923828125,8.259995460510254,-4.10366153717041,-3.799597978591919
1766401358487913000,-1.648087158203125,8.271966934204102,-3.909731388092041,-3.8067808151245117
1766401358507932400,-1.628067626953125,8.324639320373535,-3.9695863723754883,-3.7445313930511475
1766401358517911600,-1.61808837890625,8.300697326660156,-4.010287761688232,-3.706224203109741
1766401358537931300,-1.59806884765625,8.415618896484375,-4.173093795776367,-3.797203779220581
1766401358547940900,-1.58805908203125,8.427590370178223,-4.177882194519043,-3.8283286094665527
1766401358557920300,-1.578079833984375,8.38449478149414,-4.165910720825195,-3.825934410095215
1766401358567929900,-1.568070068359375,8.33182144165039,-4.127603530883789,-3.6391866207122803
1766401358577939700,-1.558060302734375,8.164227485656738,-4.175487995147705,-3.823540210723877
1766401358587949600,-1.548050537109375,8.212111473083496,-4.022258758544922,-3.7660791873931885
1766401358597959200,-1.538040771484375,8.200140953063965,-4.003105163574219,-3.7924153804779053
1766401358607969000,-1.528031005859375,8.248024940490723,-4.094084739685059,-3.8091750144958496
1766401358617948200,-1.5180517578125,8.35097599029541,-4.01268196105957,-3.734954595565796
1766401358627988500,-1.508011474609375,8.415618896484375,-3.914519786834717,-3.773261785507202
1766401358648008200,-1.48799169921875,8.31985092163086,-4.065354347229004,-3.711012601852417
1766401358658017800,-1.477982177734375,8.269572257995605,-4.24970817565918,-3.8379054069519043
1766401358668027600,-1.467972412109375,8.216899871826172,-4.022258758544922,-3.6104562282562256
1766401358678037200,-1.457962646484375,8.243236541748047,-4.213795185089111,-3.6822822093963623
1766401358688047000,-1.447952880859375,8.259995460510254,-4.060565948486328,-3.6846764087677
1766401358698057000,-1.437943115234375,8.195352554321289,-4.082113742828369,-3.7421371936798096
1766401358708066600,-1.427933349609375,8.243236541748047,-4.019864559173584,-3.7852327823638916
1766401358718076400,-1.417923583984375,8.315062522888184,-3.9887399673461914,-3.73016619682312
1766401358728086300,-1.407913818359375,8.322244644165039,-4.084507942199707,-3.7900211811065674
1766401358748166700,-1.387833251953125,8.468291282653809,-4.010287761688232,-3.7684733867645264
1766401358758176500,-1.377823486328125,8.322244644165039,-4.137180328369141,-3.6966474056243896
1766401358768186400,-1.367813720703125,8.322244644165039,-4.137180328369141,-3.6966474056243896
1766401358778226700,-1.357773193359375,8.305485725402832,-4.144362926483154,-3.73016619682312
1766401358788266800,-1.347733154296875,8.255207061767578,-4.125209331512451,-3.734954595565796
1766401358798276600,-1.337723388671875,8.161833763122559,-4.0964789390563965,-3.6846764087677
1766401358808317000,-1.32768310546875,8.176198959350586,-4.0294413566589355,-3.756502389907837
1766401358818326800,-1.317673095703125,8.236053466796875,-4.031835556030273,-3.73016619682312
1766401358828336400,-1.30766357421875,8.24084186553955,-4.125209331512451,-3.670311212539673
1766401358858365700,-1.27763427734375,8.317456245422363,-4.125209331512451,-3.7852327823638916
1766401358868375600,-1.26762451171875,8.35097599029541,-4.046200752258301,-3.7900211811065674
1766401358878385200,-1.25761474609375,8.233659744262695,-4.055777549743652,-3.663128614425659
1766401358888395000,-1.24760498046875,8.216899871826172,-4.060565948486328,-3.734954595565796
1766401358898374400,-1.23762548828125,8.236053466796875,-4.177882194519043,-3.711012601852417
1766401358908384000,-1.227615966796875,8.236053466796875,-4.213795185089111,-3.737348794937134
1766401358918424300,-1.21757568359375,8.329427719116211,-4.01268196105957,-3.624821424484253
1766401358928464600,-1.207535400390625,8.293514251708984,-3.998316764831543,-3.7158010005950928
1766401358958494000,-1.177506103515625,8.346187591552734,-4.067748546600342,-3.7158010005950928
1766401358968503600,-1.167496337890625,8.26478385925293,-4.242525577545166,-3.780444383621216
1766401358978513400,-1.157486572265625,8.322244644165039,-4.110844135284424,-3.7397429943084717
1766401359008542700,-1.127457275390625,8.26239013671875,-4.046200752258301,-3.7876269817352295
1766401359018583000,-1.1174169921875,8.293514251708984,-4.0294413566589355,-3.708618402481079
1766401359028593000,-1.107406982421875,8.339004516601562,-3.957615375518799,-3.8810009956359863
1766401359038602500,-1.0973974609375,8.396465301513672,-3.9456443786621094,-3.77565598487854
1766401359048612400,-1.0873876953125,8.35336971282959,-4.1156325340271,-3.8115692138671875
1766401359068693000,-1.06730712890625,8.20732307434082,-4.194641590118408,-3.737348794937134
1766401359078702600,-1.05729736328125,8.250418663024902,-4.2090067863464355,-3.6822822093963623
1766401359088712400,-1.04728759765625,8.248024940490723,-4.141968727111816,-3.667917013168335
1766401359098722300,-1.037277587890625,8.310274124145508,-4.034229755401611,-3.754108190536499
1766401359108793000,-1.02720703125,8.31985092163086,-4.082113742828369,-3.706224203109741
1766401359118802700,-1.017197265625,8.35336971282959,-3.974374771118164,-3.751713991165161
1766401359128812500,-1.0071875,8.310274124145508,-4.041412353515625,-3.6774938106536865
1766401359138883300,-0.99711669921875,8.377311706542969,-4.098873138427734,-3.7421371936798096
1766401359148893200,-0.98710693359375,8.389283180236816,-4.082113742828369,-3.7253777980804443
1766401359178922500,-0.957077392578125,8.322244644165039,-4.0078935623168945,-3.8522706031799316
1766401359198942000,-0.93705810546875,8.233659744262695,-4.240131378173828,-3.7612907886505127
1766401359219022600,-0.916977294921875,8.245630264282227,-4.201824188232422,-3.825934410095215
1766401359229032200,-0.9069677734375,8.307879447937012,-3.9624037742614746,-3.711012601852417
1766401359239042000,-0.8969580078125,8.300697326660156,-3.883395195007324,-3.732560396194458
1766401359249051600,-0.8869482421875,8.257601737976074,-3.9264907836914062,-3.756502389907837
1766401359339261700,-0.79673828125,8.362946510314941,-4.206612586975098,-3.7684733867645264
1766401359349271600,-0.786728515625,8.29590892791748,-4.0749311447143555,-3.778050184249878
1766401359379300900,-0.75669921875,8.300697326660156,-3.9480385780334473,-3.6535518169403076
1766401359389341200,-0.746658935546875,8.26478385925293,-4.041412353515625,-3.6822822093963623
1766401359419401000,-0.71659912109375,8.329427719116211,-4.144362926483154,-3.6559460163116455
1766401359429410600,-0.70658935546875,8.365341186523438,-4.259284973144531,-3.773261785507202
1766401359439420400,-0.69657958984375,8.374917984008789,-4.120420932769775,-3.823540210723877
1766401359449430300,-0.68656982421875,8.281543731689453,-4.022258758544922,-3.847482204437256
1766401359459439900,-0.67656005859375,8.22887134552002,-4.003105163574219,-3.7852327823638916
1766401359469480200,-0.666519775390625,8.360552787780762,-4.036623954772949,-3.7397429943084717
1766401359479490000,-0.656510009765625,8.360552787780762,-4.060565948486328,-3.7828385829925537
1766401359489530400,-0.6464697265625,8.33182144165039,-4.046200752258301,-3.7158010005950928
1766401359499540000,-0.6364599609375,8.33182144165039,-4.046200752258301,-3.7158010005950928
1766401359509549800,-0.6264501953125,8.360552787780762,-4.07014274597168,-3.734954595565796
1766401359519559700,-0.6164404296875,8.271966934204102,-4.079719543457031,-3.823540210723877
1766401359529569300,-0.6064306640625,8.367734909057617,-3.8714241981506348,-3.6846764087677
1766401359539579100,-0.5964208984375,8.372523307800293,-3.9408559799194336,-3.6798880100250244
1766401359549589000,-0.586410888671875,8.329427719116211,-4.041412353515625,-3.818751811981201
1766401359559598600,-0.5764013671875,8.26239013671875,-3.950432777404785,-3.7014358043670654
1766401359569608400,-0.5663916015625,8.35097599029541,-4.017470359802246,-3.6990416049957275
1766401359589628000,-0.5463720703125,8.401253700256348,-4.1611223220825195,-3.8331170082092285
1766401359599668200,-0.536331787109375,8.38688850402832,-4.05817174911499,-3.7469255924224854
1766401359609708500,-0.52629150390625,8.315062522888184,-4.086902141571045,-3.8163576126098633
1766401359619718100,-0.51628173828125,8.281543731689453,-4.153939723968506,-3.7205893993377686
1766401359629697500,-0.506302490234375,8.29830265045166,-4.015076160430908,-3.711012601852417
1766401359639768300,-0.496231689453125,8.238448143005371,-3.9624037742614746,-3.711012601852417
1766401359649778200,-0.486221923828125,8.212111473083496,-3.9049429893493652,-3.8115692138671875
1766401359659757300,-0.47624267578125,8.312667846679688,-3.9480385780334473,-3.6822822093963623
1766401359669767200,-0.46623291015625,8.271966934204102,-4.082113742828369,-3.737348794937134
1766401359709836800,-0.4261630859375,8.281543731689453,-4.098873138427734,-3.7636849880218506
1766401359719846400,-0.416153564453125,8.336610794067383,-3.9264907836914062,-3.713406801223755
1766401359729856300,-0.406143798828125,8.29830265045166,-4.0078935623168945,-3.737348794937134
1766401359739865900,-0.396134033203125,8.307879447937012,-3.952826976776123,-3.7493197917938232
1766401359749906200,-0.38609375,8.365341186523438,-3.9863457679748535,-3.773261785507202
1766401359759916000,-0.376083984375,8.334216117858887,-3.971980571746826,-3.7660791873931885
1766401359769926000,-0.36607421875,8.293514251708984,-4.050989151000977,-3.7876269817352295
1766401359779935500,-0.356064453125,8.291120529174805,-4.10366153717041,-3.821146011352539
1766401359789975800,-0.346024169921875,8.236053466796875,-4.177882194519043,-3.7636849880218506
1766401359799985700,-0.336014404296875,8.303091049194336,-4.153939723968506,-3.84269380569458
1766401359809995300,-0.326004638671875,8.252813339233398,-4.20421838760376,-3.734954595565796
1766401359820005000,-0.315994873046875,8.339004516601562,-4.132391929626465,-3.706224203109741
1766401359830045400,-0.30595458984375,8.281543731689453,-4.046200752258301,-3.773261785507202
1766401359840055300,-0.29594482421875,8.221688270568848,-4.055777549743652,-3.7636849880218506
1766401359850065000,-0.28593505859375,8.190564155578613,-4.094084739685059,-3.7876269817352295
1766401359860074800,-0.27592529296875,8.267178535461426,-4.02465295791626,-3.756502389907837
1766401359870115000,-0.265885009765625,8.305485725402832,-4.067748546600342,-3.7397429943084717
1766401359880124700,-0.255875244140625,8.291120529174805,-4.110844135284424,-3.6990416049957275
1766401359920133400,-0.21586669921875,8.415618896484375,-4.185064792633057,-3.77565598487854
1766401359930143000,-0.20585693359375,8.365341186523438,-4.151545524597168,-3.7038300037384033
1766401359940152800,-0.19584716796875,8.334216117858887,-4.129997730255127,-3.7469255924224854
1766401359950162700,-0.18583740234375,8.252813339233398,-4.120420932769775,-3.7158010005950928
1766401359960203000,-0.175796875,8.281543731689453,-4.01268196105957,-3.7708675861358643
1766401359970212600,-0.165787353515625,8.233659744262695,-3.97916316986084,-3.708618402481079
1766401359980222500,-0.155777587890625,8.243236541748047,-4.065354347229004,-3.711012601852417
1766401360000242000,-0.135758056640625,8.355764389038086,-4.19224739074707,-3.8139634132385254
1766401360010251800,-0.125748291015625,8.377311706542969,-4.206612586975098,-3.8163576126098633
1766401360020231000,-0.11576904296875,8.336610794067383,-4.072536945343018,-3.8139634132385254
1766401360030240800,-0.10575927734375,8.305485725402832,-4.2329487800598145,-3.847482204437256
1766401360040250600,-0.095749267578125,8.370129585266113,-4.132391929626465,-3.8163576126098633
1766401360050290700,-0.085709228515625,8.303091049194336,-4.02465295791626,-3.9049429893493652
1766401360070310400,-0.065689697265625,8.226476669311523,-4.010287761688232,-3.823540210723877
1766401360080350700,-0.055649169921875,8.274360656738281,-4.098873138427734,-3.885789394378662
1766401360090360300,-0.0456396484375,8.38449478149414,-3.909731388092041,-3.6798880100250244
1766401360120389600,-0.0156103515625,8.293514251708984,-4.244919776916504,-3.7158010005950928
1766401360130399500,-0.0056005859375,8.22887134552002,-4.050989151000977,-3.7445313930511475
1766401360140378600,0.004378662109375,8.29830265045166,-4.108449935913086,-3.77565598487854
1766401360150388500,0.014388427734375,8.343792915344238,-4.19224739074707,-3.823540210723877
1766401360160398000,0.024398193359375,8.415618896484375,-4.185064792633057,-3.7445313930511475
1766401360170408000,0.034407958984375,8.339004516601562,-4.125209331512451,-3.713406801223755
1766401360180417800,0.044417724609375,8.42040729522705,-4.000710964202881,-3.6367924213409424
1766401360190427400,0.054427490234375,8.324639320373535,-4.048594951629639,-3.7421371936798096
1766401360200467700,0.0644677734375,8.283937454223633,-3.957615375518799,-3.6559460163116455
1766401360210477600,0.0744775390625,8.283937454223633,-3.957615375518799,-3.6559460163116455
1766401360220487400,0.0844873046875,8.212111473083496,-4.0533833503723145,-3.7158010005950928
1766401360230497000,0.0944970703125,8.293514251708984,-3.9839515686035156,-3.552995204925537
1766401360240507000,0.1045068359375,8.20492935180664,-4.129997730255127,-3.6152446269989014
1766401360250516700,0.114516845703125,8.38688850402832,-4.122815132141113,-3.6511576175689697
1766401360260526300,0.1245263671875,8.451532363891602,-3.9695863723754883,-3.5913026332855225
1766401360270536200,0.1345361328125,8.51138687133789,-4.19224739074707,-3.737348794937134
1766401360280515300,0.144515380859375,8.556877136230469,-4.242525577545166,-3.7924153804779053
1766401360290555600,0.1545556640625,8.540117263793945,-4.163516521453857,-3.7708675861358643
1766401360300565500,0.1645654296875,8.552088737487793,-4.252102375030518,-3.883395195007324
1766401360340696000,0.204696044921875,8.312667846679688,-3.6750996112823486,-3.6152446269989014
1766401360360776700,0.224776611328125,8.257601737976074,-4.20421838760376,-3.552995204925537
1766401360370786300,0.234786376953125,8.374917984008789,-3.8953661918640137,-3.512293815612793
1766401360380796200,0.244796142578125,8.360552787780762,-3.883395195007324,-3.3901896476745605
1766401360390806000,0.254805908203125,8.470685958862305,-3.804386615753174,-3.471592426300049
1766401360400815600,0.264815673828125,8.571242332458496,-3.758896589279175,-3.471592426300049
1766401360420865800,0.28486572265625,8.81784439086914,-3.9647979736328125,-3.73016619682312
1766401360430875400,0.29487548828125,8.865729331970215,-3.9815573692321777,-3.7852327823638916
1766401360440915700,0.304915771484375,8.860940933227539,-4.2090067863464355,-3.821146011352539
1766401360450925600,0.314925537109375,8.779537200927734,-4.496310710906982,-3.7876269817352295
1766401360460935400,0.324935302734375,8.578424453735352,-4.541800498962402,-3.778050184249878
1766401360470914600,0.33491455078125,8.485051155090332,-4.357447147369385,-3.689464807510376
1766401360480985300,0.3449853515625,8.415618896484375,-4.180276393890381,-3.581725835800171
1766401360490995200,0.3549951171875,8.288725852966309,-4.197035789489746,-3.60566782951355
1766401360501004800,0.3650048828125,8.154650688171387,-4.0749311447143555,-3.4572272300720215
1766401360511014700,0.3750146484375,8.197746276855469,-4.0964789390563965,-3.268085241317749
1766401360531034000,0.3950341796875,8.224082946777344,-3.864241600036621,-3.160346269607544
1766401360541044000,0.4050439453125,8.094796180725098,-4.309563159942627,-3.354276657104492
1766401360551084300,0.415084228515625,8.180987358093262,-4.223371982574463,-3.399766445159912
1766401360561124600,0.42512451171875,8.20492935180664,-3.9815573692321777,-3.2992098331451416
1766401360571134200,0.43513427734375,8.078036308288574,-4.072536945343018,-3.268085241317749
1766401360581144000,0.44514404296875,7.999027729034424,-4.177882194519043,-3.251325845718384
1766401360591154000,0.45515380859375,8.063671112060547,-4.022258758544922,-3.1699230670928955
1766401360601163500,0.46516357421875,8.010998725891113,-4.177882194519043,-3.07415509223938
1766401360611234300,0.475234375,7.924807548522949,-4.331110954284668,-3.179499864578247
1766401360641294000,0.505294189453125,8.094796180725098,-4.388571739196777,-3.1747114658355713
1766401360651304000,0.515303955078125,8.154650688171387,-4.1874589920043945,-3.2154128551483154
1766401360661313800,0.525313720703125,8.252813339233398,-4.244919776916504,-3.332728862762451
1766401360671354000,0.53535400390625,8.341399192810059,-4.122815132141113,-3.2537200450897217
1766401360681363700,0.54536376953125,8.413225173950195,-3.993528366088867,-3.1268274784088135
1766401360691404000,0.555404052734375,8.389283180236816,-4.000710964202881,-3.0334534645080566
1766401360701414000,0.565413818359375,8.248024940490723,-3.907337188720703,-3.0789434909820557
1766401360711423500,0.575423583984375,8.216899871826172,-3.7158010005950928,-3.07415509223938
1766401360721433300,0.585433349609375,8.291120529174805,-3.936067581176758,-3.3877954483032227
1766401360731443200,0.595443115234375,8.461109161376953,-4.261679172515869,-3.4093432426452637
1766401360751462700,0.615462646484375,8.80587387084961,-4.431667327880859,-3.404554843902588
1766401360761472500,0.625472412109375,8.760383605957031,-4.259284973144531,-3.533841609954834
1766401360771482000,0.635482177734375,8.707711219787598,-3.9456443786621094,-3.4787750244140625
1766401360781492000,0.645491943359375,8.820239067077637,-3.6846764087677,-3.600879430770874
1766401360791501800,0.655501708984375,8.89445972442627,-3.529053211212158,-3.4548330307006836
1766401360801511400,0.665511474609375,8.801085472106934,-4.393360137939453,-3.28963303565979
1766401360811551700,0.6755517578125,8.552088737487793,-5.240907669067383,-3.7469255924224854
1766401360821561600,0.6855615234375,8.707711219787598,-4.446032524108887,-3.421314239501953
1766401360831602000,0.695601806640625,8.611943244934082,-4.129997730255127,-3.0885202884674072
1766401360841611500,0.705611572265625,8.35336971282959,-4.158728122711182,-3.445256233215332
1766401360851682300,0.715682373046875,8.233659744262695,-2.7940332889556885,-3.201047658920288
1766401360861692200,0.725692138671875,8.303091049194336,-2.006340980529785,-3.0310592651367188
1766401360871732500,0.735732421875,8.382100105285645,-3.2561142444610596,-3.227383852005005
1766401360881742000,0.7457421875,8.26478385925293,-5.987898349761963,-3.7660791873931885
1766401360891752000,0.755751953125,8.279149055480957,-6.988674640655518,-3.6535518169403076
1766401360901731300,0.7657314453125,8.413225173950195,-6.495469093322754,-3.361459255218506
1766401360911741000,0.775740966796875,8.305485725402832,-5.75326681137085,-3.332728862762451
1766401360921750800,0.785750732421875,7.802703380584717,-5.427655220031738,-3.251325845718384
1766401360941770200,0.805770263671875,7.5417351722717285,-4.742913722991943,-3.2968156337738037
1766401360951810600,0.815810546875,7.453149795532227,-3.97916316986084,-3.3423056602478027
1766401360961851000,0.825850830078125,7.261613845825195,-4.290409564971924,-3.093308687210083
1766401360971860500,0.835860595703125,7.55131196975708,-5.822698593139648,-3.265691041946411
1766401360981870300,0.845870361328125,7.781155586242676,-6.854599475860596,-3.3039982318878174
1766401360991880200,0.855880126953125,7.879317760467529,-6.6391215324401855,-3.663128614425659
1766401361001889800,0.865889892578125,7.711723804473877,-6.687005519866943,-3.6942532062530518
1766401361011899600,0.875899658203125,6.926425457000732,-7.247248649597168,-3.5051112174987793
1766401361021879000,0.885879150390625,6.658275127410889,-7.649474620819092,-3.5170822143554688
1766401361031888600,0.895888671875,6.754043102264404,-7.508216381072998,-3.3686418533325195
1766401361061918000,0.92591796875,6.730101108551025,-7.079654216766357,-3.3231520652770996
1766401361071927800,0.935927734375,6.971915245056152,-7.163451671600342,-3.4404678344726562
1766401361081968000,0.945968017578125,7.184999465942383,-7.132327079772949,-3.315969467163086
1766401361091977700,0.955977783203125,7.127538681030273,-6.9910688400268555,-3.2632968425750732
1766401361101987600,0.965987548828125,6.890512466430664,-7.050923824310303,-3.1028854846954346
1766401361112028000,0.97602783203125,6.665457725524902,-7.252037048339844,-3.246537446975708
1766401361122037500,0.98603759765625,6.703764915466309,-7.484274387359619,-3.335123062133789
1766401361152066800,1.01606689453125,6.347028732299805,-8.157045364379883,-3.114856481552124
1766401361162107100,1.026107177734375,5.882553577423096,-8.094796180725098,-3.205836057662964
1766401361172117000,1.036116943359375,5.628767967224121,-7.860164165496826,-3.450044631958008
1766401361182126600,1.046126708984375,5.681440830230713,-7.6351094245910645,-3.361459255218506
1766401361192136400,1.056136474609375,6.121973514556885,-7.769184589385986,-3.2393548488616943
1766401361202146300,1.066146240234375,6.354211330413818,-7.927201747894287,-3.19865345954895
1766401361212156000,1.076156005859375,6.3973069190979,-8.042123794555664,-2.8562827110290527
1766401361222165800,1.086165771484375,6.543353080749512,-8.04930591583252,-2.7748796939849854
1766401361232175600,1.096175537109375,6.3949127197265625,-7.86734676361084,-2.403778553009033
1766401361242185200,1.106185302734375,5.781997203826904,-7.240066051483154,-2.0207061767578125
1766401361272245200,1.136245361328125,4.594472885131836,-7.043741226196289,-1.2018892765045166
1766401361282194000,1.14619384765625,4.235342979431152,-7.105990409851074,-1.625662922859192
1766401361292234200,1.156234130859375,4.055777549743652,-7.1921820640563965,-1.8315643072128296
1766401361302243800,1.166243896484375,3.4404678344726562,-7.108384609222412,-1.9967641830444336
1766401361312223200,1.17622314453125,3.098097085952759,-6.720524311065674,-1.9991583824157715
1766401361332273200,1.196273193359375,3.5697548389434814,-6.054935932159424,-1.8818424940109253
1766401361342283000,1.206282958984375,3.6080620288848877,-6.030993938446045,-2.0661959648132324
1766401361362333000,1.2263330078125,2.9017724990844727,-6.169857978820801,-2.4660277366638184
1766401361382352600,1.2463525390625,2.6575639247894287,-5.899312973022461,-2.2026655673980713
1766401361392362200,1.2563623046875,2.5306711196899414,-5.894524574279785,-2.10210919380188
1766401361402341600,1.266341552734375,2.75812029838562,-5.9519853591918945,-2.054224967956543
1766401361412382000,1.2763818359375,3.112462282180786,-5.947196960449219,-1.9632453918457031
1766401361422391600,1.2863916015625,3.442862033843994,-5.9304375648498535,-1.8962076902389526
1766401361432401400,1.2964013671875,3.7828385829925537,-5.762843608856201,-2.0829553604125977
1766401361442441700,1.306441650390625,3.4811692237854004,-5.760449409484863,-2.0422539710998535
1766401361452482000,1.31648193359375,3.0119056701660156,-5.839457988739014,-1.800439715385437
1766401361482541800,1.346541748046875,2.806004285812378,-6.342240333557129,-1.4652514457702637
1766401361492551400,1.356551513671875,2.8155810832977295,-6.493074893951416,-1.4413094520568848
1766401361502500400,1.366500244140625,2.717418909072876,-6.653486728668213,-1.3670891523361206
1766401361512479500,1.3764794921875,2.628833532333374,-6.7492547035217285,-1.256955862045288
1766401361522519800,1.386519775390625,2.6192567348480225,-6.746860504150391,-1.259350061416626
1766401361532529700,1.39652978515625,2.2194249629974365,-6.54574728012085,-1.2066776752471924
1766401361542539300,1.406539306640625,2.030282974243164,-7.139509677886963,-1.3694833517074585
1766401361552518700,1.4165185546875,1.8171991109848022,-7.8745293617248535,-1.656787633895874
1766401361562558700,1.426558837890625,1.3934253454208374,-8.640673637390137,-1.5394717454910278
1766401361572599000,1.43659912109375,1.2282254695892334,-9.600749015808105,-1.556231141090393
1766401361582609000,1.44660888671875,1.2114660739898682,-9.461885452270508,-1.4652514457702637
1766401361592649200,1.456649169921875,1.314416766166687,-8.96149730682373,-1.2425906658172607
1766401361602659000,1.4666591796875,1.1659762859344482,-8.83939266204834,-0.9097966551780701
1766401361612699100,1.47669921875,0.8690952062606812,-8.923190116882324,-0.9959878921508789
1766401361622709000,1.486708984375,0.6320692300796509,-9.239224433898926,-1.280897855758667
1766401361632718800,1.49671875,0.6224924325942993,-9.607931137084961,-1.4389152526855469
1766401361642789600,1.50678955078125,0.6224924325942993,-9.607931137084961,-1.4389152526855469
1766401361652799200,1.51679931640625,0.5937620401382446,-9.433155059814453,-1.8076223134994507
1766401361672788200,1.536788330078125,0.8188169598579407,-9.904812812805176,-2.315192937850952
1766401361682828500,1.54682861328125,0.7350199222564697,-10.08198356628418,-2.470816135406494
1766401361692838400,1.55683837890625,0.33518823981285095,-10.381258964538574,-2.473210334777832
1766401361712857900,1.57685791015625,0.1604115068912506,-9.260771751403809,-2.188300371170044
1766401361722898200,1.586898193359375,0.6200982332229614,-8.69095230102539,-2.3032219409942627
1766401361732908000,1.596907958984375,0.6584054827690125,-8.841787338256836,-2.691082715988159
1766401361742917600,1.606917724609375,0.42377370595932007,-8.865729331970215,-2.741360902786255
1766401361752927500,1.616927490234375,0.40940847992897034,-8.121131896972656,-2.8658595085144043
1766401361782987300,1.6469873046875,-0.42377370595932007,-8.29830265045166,-3.9887399673461914
1766401361803037400,1.667037353515625,-0.6655880808830261,-8.092401504516602,-4.55616569519043
1766401361813047000,1.677047119140625,-1.2401964664459229,-7.613561630249023,-4.357447147369385
1766401361823057000,1.687056884765625,-2.27209734916687,-8.283937454223633,-4.49870491027832
1766401361843106800,1.70710693359375,-2.8107926845550537,-10.500968933105469,-5.331887245178223
1766401361853116700,1.71711669921875,-2.612074136734009,-10.259154319763184,-5.288791656494141
1766401361863126500,1.72712646484375,-2.322375535964966,-9.718064308166504,-5.185841083526611
1766401361893155800,1.75715576171875,-3.0837318897247314,-9.387664794921875,-5.899312973022461
1766401361903165400,1.76716552734375,-2.6384103298187256,-8.935160636901855,-5.884947776794434
1766401361913175300,1.77717529296875,-2.2840683460235596,-8.947132110595703,-6.117185115814209
1766401361923215600,1.787215576171875,-2.008735179901123,-8.820239067077637,-6.555324077606201
1766401361933256000,1.797255859375,-2.22660756111145,-9.196128845214844,-6.607996463775635
1766401361943265500,1.807265625,-2.4468741416931152,-9.818621635437012,-6.806715488433838
1766401361953275400,1.817275390625,-2.8658595085144043,-10.424354553222656,-6.806715488433838
1766401361963285200,1.82728515625,-3.265691041946411,-10.383652687072754,-6.888118267059326
1766401361993314600,1.857314453125,-2.980781078338623,-9.26795482635498,-6.722918510437012
1766401362003324200,1.86732421875,-2.63362193107605,-9.138668060302734,-6.5696892738342285
1766401362013334000,1.877333984375,-2.054224967956543,-8.482656478881836,-6.5696892738342285
1766401362023343900,1.88734375,-1.4293384552001953,-7.692570209503174,-6.524199485778809
1766401362033353500,1.897353515625,-1.0438719987869263,-6.703764915466309,-6.528987884521484
1766401362043393800,1.907393798828125,-0.7374141216278076,-5.714959621429443,-6.476315498352051
1766401362063413200,1.927413330078125,-0.3878606855869293,-4.321534156799316,-6.715735912322998
1766401362073392600,1.937392578125,-0.2944868206977844,-4.163516521453857,-6.809109687805176
1766401362113431600,1.977431640625,-0.7493851184844971,-4.400542736053467,-7.513004779815674
1766401362123472000,1.987471923828125,-0.8690952062606812,-4.517858505249023,-7.752425193786621
1766401362133481700,1.997481689453125,-0.912190854549408,-4.458003520965576,-7.953537940979004
1766401362143491600,2.00749169921875,-0.8834604024887085,-4.54419469833374,-8.054094314575195
1766401362153470700,2.017470703125,-0.9768342971801758,-4.812345504760742,-8.362946510314941
1766401362163511000,2.027510986328125,-1.0007762908935547,-5.085284233093262,-8.650250434875488
1766401362173520600,2.037520751953125,-0.8331822156906128,-5.114014625549316,-9.045293807983398
1766401362183530500,2.047530517578125,-0.7876923680305481,-5.264849662780762,-9.217676162719727
1766401362203580700,2.06758056640625,-0.8212111592292786,-5.688623428344727,-9.804255485534668
1766401362213620700,2.077620849609375,-0.9241618514060974,-5.91128396987915,-10.06043529510498
1766401362223630600,2.087630615234375,-0.9193734526634216,-5.963956356048584,-10.1753568649292
1766401362233640400,2.097640380859375,-0.9097966551780701,-5.980715751647949,-10.034099578857422
1766401362243650000,2.107650146484375,-0.790086567401886,-5.913678169250488,-9.998186111450195
1766401362253690400,2.1176904296875,-0.689530074596405,-5.746084213256836,-9.86889934539795
1766401362263639300,2.127639404296875,-0.6392518281936646,-5.564124584197998,-9.548076629638672
1766401362273679400,2.137679443359375,-0.5386953949928284,-5.374982833862305,-9.294290542602539
1766401362283689200,2.147689208984375,-0.47884035110473633,-5.152322292327881,-9.181763648986816
1766401362293699000,2.157698974609375,-0.5027823448181152,-5.082890033721924,-8.990227699279785
1766401362333799200,2.197799072265625,-0.5746083855628967,-4.4939165115356445,-8.650250434875488
1766401362343808800,2.207808837890625,-0.5889736413955688,-4.2975921630859375,-8.865729331970215
1766401362353879600,2.217879638671875,-0.5051765441894531,-4.1180267333984375,-8.968679428100586
1766401362363889400,2.227889404296875,-0.5051765441894531,-4.1180267333984375,-8.968679428100586
1766401362373899300,2.237899169921875,-0.40462008118629456,-3.861847400665283,-9.239224433898926
1766401362383908900,2.247908935546875,-0.43095630407333374,-3.663128614425659,-9.44752025604248
1766401362393918700,2.257918701171875,-0.4692635238170624,-3.5865142345428467,-9.622296333312988
1766401362403928600,2.267928466796875,-0.6033388376235962,-3.6559460163116455,-9.53849983215332
1766401362433958000,2.2979580078125,-0.7398083209991455,-3.9408559799194336,-9.279925346374512
1766401362443967500,2.307967529296875,-0.7709329724311829,-3.711012601852417,-9.399636268615723
1766401362453947000,2.31794677734375,-0.9361328482627869,-3.5170822143554688,-9.526528358459473
1766401362463956500,2.32795654296875,-1.0414776802062988,-3.294421434402466,-9.806650161743164
1766401362473966300,2.33796630859375,-1.2306196689605713,-3.184288263320923,-10.038887977600098
1766401362483976200,2.34797607421875,-1.3958195447921753,-3.064578056335449,-10.405200958251953
1766401362493985800,2.35798583984375,-1.4413094520568848,-3.1004912853240967,-10.63743782043457
1766401362503995600,2.36799560546875,-1.3766659498214722,-3.1028854846954346,-10.558429718017578
1766401362514036000,2.378035888671875,-1.3263877630233765,-3.1004912853240967,-10.438719749450684
1766401362544065300,2.408065185546875,-1.381454348564148,-2.937685489654541,-9.890447616577148
1766401362554075000,2.418074951171875,-1.5131354331970215,-2.942473888397217,-9.78989028930664
1766401362564084700,2.428084716796875,-1.6496049165725708,-3.0310592651367188,-9.639056205749512
1766401362574094600,2.438094482421875,-1.8914192914962769,-2.9544448852539062,-9.6989107131958
1766401362584104200,2.448104248046875,-2.070984363555908,-3.064578056335449,-9.749189376831055
1766401362594114000,2.458114013671875,-2.121262788772583,-3.0573954582214355,-9.694122314453125
1766401362604154400,2.468154296875,-2.142810583114624,-3.1268274784088135,-9.548076629638672
1766401362614164000,2.4781640625,-2.027888774871826,-3.112462282180786,-9.315838813781738
1766401362644224000,2.50822412109375,-1.5729905366897583,-2.8802247047424316,-9.241618156433105
1766401362654233600,2.518233642578125,-1.6184803247451782,-2.779668092727661,-9.320627212524414
1766401362664243500,2.528243408203125,-1.7477672100067139,-2.5953147411346436,-9.155426979064941
1766401362674283800,2.53828369140625,-1.8507179021835327,-2.7222073078155518,-9.05487060546875
1766401362684293400,2.54829345703125,-1.9345149993896484,-2.80361008644104,-9.119514465332031
1766401362694364200,2.5583642578125,-2.049436569213867,-2.8610711097717285,-9.35654067993164
1766401362704343600,2.568343505859375,-2.1092917919158936,-2.9544448852539062,-9.57441234588623
1766401362714353200,2.578353271484375,-2.0207061767578125,-3.0310592651367188,-9.732429504394531
1766401362754392300,2.618392333984375,-1.7549498081207275,-3.095702886581421,-10.412383079528809
1766401362764402200,2.628402099609375,-1.867477297782898,-3.0861260890960693,-10.448296546936035
1766401362774411800,2.638411865234375,-2.0470423698425293,-3.2776620388031006,-10.553641319274902
1766401362784421600,2.648421630859375,-2.1140801906585693,-3.56017804145813,-10.862493515014648
1766401362794431500,2.658431396484375,-2.056619167327881,-3.7277719974517822,-11.058817863464355
1766401362804441000,2.668441162109375,-1.9345149993896484,-3.7900211811065674,-11.171344757080078
1766401362814451000,2.678450927734375,-1.9321208000183105,-3.778050184249878,-11.195286750793457
1766401362844510700,2.7085107421875,-1.702277421951294,-3.8714241981506348,-11.125855445861816
1766401362874479000,2.73847900390625,-1.455674648284912,-3.6152446269989014,-10.94150161743164
1766401362884519400,2.74851953125,-1.4269442558288574,-3.5913026332855225,-11.106701850891113
1766401362894529000,2.758529052734375,-1.3024457693099976,-3.5889084339141846,-11.070788383483887
1766401362904539000,2.768538818359375,-1.2066776752471924,-3.5865142345428467,-10.96304988861084
1766401362914609700,2.778609619140625,-1.2282254695892334,-3.4572272300720215,-10.685321807861328
1766401362924619500,2.78861962890625,-1.2761094570159912,-3.3494882583618164,-10.618284225463867
1766401362944639000,2.808638916015625,-1.381454348564148,-3.4189200401306152,-10.560823440551758
1766401362954648600,2.818648681640625,-1.3120225667953491,-3.4979286193847656,-10.76193618774414
1766401362964658400,2.828658447265625,-1.2473790645599365,-3.7158010005950928,-10.934319496154785
1766401362974668300,2.838668212890625,-1.2042834758758545,-3.7852327823638916,-11.027692794799805
1766401362994718200,2.85871826171875,-1.2234370708465576,-3.8163576126098633,-10.989385604858398
1766401363004728000,2.86872802734375,-1.1061211824417114,-3.7014358043670654,-11.099518775939941
1766401363014738000,2.878738037109375,-0.9720458984375,-3.799597978591919,-11.173739433288574
1766401363024717000,2.888717041015625,-0.9983820915222168,-3.706224203109741,-11.219228744506836
1766401363044736500,2.908736572265625,-1.3215993642807007,-3.6367924213409424,-10.982203483581543
1766401363054746400,2.918746337890625,-1.4748282432556152,-3.5960910320281982,-10.869675636291504
1766401363064756200,2.928756103515625,-1.4748282432556152,-3.5960910320281982,-10.869675636291504
1766401363074796300,2.93879638671875,-1.436521053314209,-3.665522813796997,-10.642226219177246
1766401363084836600,2.948836669921875,-1.3742717504501343,-3.485957622528076,-10.498574256896973
1766401363094846500,2.958846435546875,-1.3431471586227417,-3.450044631958008,-10.596736907958984
1766401363104856300,2.968856201171875,-1.1468225717544556,-3.44765043258667,-10.656591415405273
1766401363114866000,2.978865966796875,-1.1037269830703735,-3.3710360527038574,-10.539276123046875
1766401363124875800,2.988875732421875,-1.2545616626739502,-3.265691041946411,-10.472238540649414
1766401363134885600,2.9988857421875,-1.3551181554794312,-3.1268274784088135,-10.24000072479248
1766401363144864800,3.00886474609375,-1.4963760375976562,-3.0573954582214355,-10.134655952453613
1766401363174894000,3.03889404296875,-1.625662922859192,-2.873042106628418,-10.125079154968262
1766401363184904000,3.048904052734375,-1.5394717454910278,-2.896984100341797,-10.06043529510498
1766401363194913500,3.05891357421875,-1.4628572463989258,-2.8347349166870117,-10.022128105163574
1766401363204923400,3.06892333984375,-1.4867992401123047,-2.760514497756958,-10.007762908935547
1766401363214933000,3.07893310546875,-1.479616641998291,-2.7557260990142822,-10.031704902648926
1766401363224912400,3.088912353515625,-1.599326729774475,-2.717418909072876,-9.964667320251465
1766401363234952700,3.09895263671875,-1.6136919260025024,-2.760514497756958,-9.916783332824707
1766401363244993000,3.108992919921875,-1.6759412288665771,-2.920926094055176,-9.84495735168457
1766401363255002600,3.119002685546875,-1.577778935432434,-2.9879636764526367,-9.81143856048584
1766401363264982000,3.12898193359375,-1.53707754611969,-2.9281086921691895,-9.725247383117676
1766401363274991600,3.13899169921875,-1.5275006294250488,-2.9735984802246094,-9.730035781860352
1766401363285032000,3.149031982421875,-1.4915876388549805,-3.026270866394043,-9.742006301879883
1766401363295041800,3.159041748046875,-1.4844050407409668,-2.9879636764526367,-9.660603523254395
1766401363305021000,3.16902099609375,-1.5658079385757446,-2.8658595085144043,-9.708487510681152
1766401363315030800,3.17903076171875,-1.556231141090393,-2.896984100341797,-9.526528358459473
1766401363325071000,3.189071044921875,-1.6280571222305298,-3.0119056701660156,-9.387664794921875
1766401363335080700,3.199080810546875,-1.699883222579956,-3.0406360626220703,-9.313444137573242
1766401363345090600,3.209090576171875,-1.6759412288665771,-2.9712042808532715,-9.191340446472168
1766401363355100400,3.219100341796875,-1.6400281190872192,-2.8586769104003906,-9.119514465332031
1766401363365110000,3.229110107421875,-1.5825673341751099,-2.82515811920166,-9.0859956741333
1766401363385129700,3.249129638671875,-1.6280571222305298,-2.8586769104003906,-8.99740982055664
1766401363395200500,3.259200439453125,-1.7908629179000854,-2.8826189041137695,-8.990227699279785
1766401363405210000,3.269210205078125,-1.8076223134994507,-2.7748796939849854,-8.942343711853027
1766401363415281000,3.279281005859375,-1.8818424940109253,-2.736572504043579,-8.863334655761719
1766401363425290800,3.289290771484375,-1.9536685943603516,-2.832340717315674,-8.942343711853027
1766401363435331000,3.2993310546875,-2.006340980529785,-2.7724854946136475,-9.042900085449219
1766401363445371400,3.309371337890625,-1.9776105880737305,-2.999934673309326,-9.097966194152832
1766401363455381000,3.319381103515625,-2.0470423698425293,-3.1435868740081787,-9.239224433898926
1766401363465330000,3.329329833984375,-2.056619167327881,-3.2130186557769775,-9.30386734008789
1766401363485410300,3.349410400390625,-2.0183119773864746,-3.292027235031128,-9.459490776062012
1766401363495420200,3.359420166015625,-2.0231003761291504,-3.3470940589904785,-9.59835433959961
1766401363505430000,3.369429931640625,-2.0015525817871094,-3.3662476539611816,-9.670180320739746
1766401363515439600,3.379439697265625,-2.006340980529785,-3.469198226928711,-9.744400978088379
1766401363525449500,3.389449462890625,-2.051830768585205,-3.5936968326568604,-9.720458984375
1766401363535459300,3.399459228515625,-2.030282974243164,-3.6942532062530518,-9.72285270690918
1766401363545438500,3.4094384765625,-2.051830768585205,-3.6966474056243896,-9.849745750427246
1766401363555448300,3.4194482421875,-1.9584569931030273,-3.7852327823638916,-9.919178009033203
1766401363565488600,3.429488525390625,-1.9584569931030273,-3.780444383621216,-9.856928825378418
1766401363575498200,3.439498291015625,-1.9273324012756348,-3.8786067962646484,-9.849745750427246
1766401363585508000,3.449508056640625,-1.800439715385437,-4.048594951629639,-9.86889934539795
1766401363595518000,3.45951806640625,-1.7405846118927002,-4.086902141571045,-9.926360130310059
1766401363605527600,3.469527587890625,-1.6065093278884888,-4.216189384460449,-9.938331604003906
1766401363615568000,3.47956787109375,-1.5107412338256836,-4.240131378173828,-9.835380554199219
1766401363625577700,3.48957763671875,-1.5394717454910278,-4.304774761199951,-9.818621635437012
1766401363635587300,3.49958740234375,-1.4437036514282227,-4.388571739196777,-9.763554573059082
1766401363645566700,3.509566650390625,-1.316810965538025,-4.355052947998047,-9.655815124511719
1766401363655607000,3.51960693359375,-1.237802267074585,-4.228160381317139,-9.708487510681152
1766401363665616600,3.52961669921875,-1.137245774269104,-4.173093795776367,-9.904812812805176
1766401363675657000,3.539656982421875,-1.094150185585022,-4.010287761688232,-10.0580415725708
1766401363705686300,3.569686279296875,-0.8954314589500427,-3.885789394378662,-9.701305389404297
1766401363715757000,3.579757080078125,-0.8188169598579407,-3.88818359375,-9.765948295593262
1766401363725767000,3.589766845703125,-0.7230489253997803,-3.706224203109741,-9.68933391571045
1766401363735776500,3.599776611328125,-0.6607996821403503,-3.4572272300720215,-9.6989107131958
1766401363755796200,3.619796142578125,-0.6751648783683777,-3.4787750244140625,-9.706093788146973
1766401363765836500,3.62983642578125,-0.6320692300796509,-3.4117374420166016,-9.583989143371582
1766401363805906000,3.669906005859375,-0.6967126727104187,-3.399766445159912,-9.579200744628906
1766401363825925600,3.689925537109375,-0.5410895943641663,-3.8810009956359863,-10.096348762512207
1766401363835935200,3.699935302734375,-0.45010992884635925,-3.890577793121338,-10.316615104675293
1766401363845975600,3.7099755859375,-0.49320554733276367,-3.8762125968933105,-10.493785858154297
1766401363855985400,3.7199853515625,-0.5985504388809204,-3.995922565460205,-10.647014617919922
1766401363865964500,3.729964599609375,-0.5961562395095825,-4.156333923339844,-10.647014617919922
1766401363876004900,3.7400048828125,-0.5051765441894531,-4.266467571258545,-10.687716484069824
1766401363886014700,3.7500146484375,-0.5123591423034668,-4.228160381317139,-10.65898609161377
1766401363896055000,3.760054931640625,-0.4884171485900879,-4.24970817565918,-10.673351287841797
1766401363906034200,3.7700341796875,-0.4381389021873474,-4.2951979637146,-10.625467300415039
1766401363916044000,3.7800439453125,-0.45489832758903503,-4.393360137939453,-10.579977035522461
1766401363926053600,3.7900537109375,-0.5099649429321289,-4.4532151222229,-10.558429718017578
1766401363936094000,3.800093994140625,-0.4572925269603729,-4.448426723480225,-10.314221382141113
1766401363946073300,3.8100732421875,-0.4596867263317108,-4.458003520965576,-10.067618370056152
1766401363956113400,3.820113525390625,-0.3758896589279175,-4.431667327880859,-9.816226959228516
1766401363966123300,3.830123291015625,-0.2944868206977844,-4.343081951141357,-9.524134635925293
1766401363976133000,3.840133056640625,-0.2537853717803955,-4.280832767486572,-9.490615844726562
1766401363986142700,3.850142822265625,-0.19393034279346466,-4.213795185089111,-9.363722801208496
1766401364016202800,3.88020263671875,-0.12210428714752197,-4.1180267333984375,-8.789113998413086
1766401364036191700,3.900191650390625,0.0454898327589035,-3.9049429893493652,-8.343792915344238
1766401364046201300,3.910201416015625,0.1388636976480484,-3.7900211811065674,-8.2312650680542
1766401364056211200,3.920211181640625,0.17238251864910126,-3.7636849880218506,-8.183381080627441
1766401364066221000,3.930220947265625,0.17238251864910126,-3.7636849880218506,-8.066065788269043
1766401364076261000,3.94026123046875,0.22505496442317963,-3.804386615753174,-8.027758598327637
1766401364086301400,3.950301513671875,0.20350714027881622,-3.799597978591919,-8.022970199584961
1766401364096311300,3.960311279296875,0.23942017555236816,-3.845088005065918,-7.982268333435059
1766401364116330800,3.980330810546875,0.2059013396501541,-3.974374771118164,-7.862558364868164
1766401364126340600,3.990340576171875,0.28969839215278625,-4.015076160430908,-7.9631147384643555
1766401364136350500,4.0003505859375,0.3064578175544739,-4.137180328369141,-8.133103370666504
1766401364146360000,4.010360107421875,0.31364041566848755,-4.110844135284424,-8.159439086914062
1766401364156370000,4.020369873046875,0.35673606395721436,-4.197035789489746,-8.274360656738281
1766401364166379500,4.030379638671875,0.40701428055763245,-4.280832767486572,-8.403648376464844
1766401364176419800,4.040419921875,0.3974374830722809,-4.338293552398682,-8.458714485168457
1766401364186399200,4.050399169921875,0.4118026793003082,-4.424484729766846,-8.53532886505127
1766401364196408800,4.060408935546875,0.3519476354122162,-4.448426723480225,-8.592789649963379
1766401364226377200,4.090377197265625,0.24899697303771973,-4.527435302734375,-9.016563415527344
1766401364256437000,4.12043701171875,0.1364694982767105,-4.797980308532715,-9.162610054016113
1766401364266446800,4.13044677734375,0.19153612852096558,-4.790797710418701,-9.097966194152832
1766401364276487200,4.140487060546875,0.07900865375995636,-4.754884719848633,-9.188945770263672
1766401364286496800,4.150496826171875,-0.07182604819536209,-4.711789131164551,-9.117119789123535
1766401364296537000,4.160537109375,-0.22266076505184174,-4.716577529907227,-9.097966194152832
1766401364326566400,4.19056640625,-0.7565677165985107,-4.764461517333984,-9.131484985351562
1766401364336576300,4.200576171875,-0.8547300100326538,-4.687847137451172,-9.311050415039062
1766401364346585900,4.2105859375,-0.8547300100326538,-4.481945514678955,-9.32302188873291
1766401364356595700,4.220595703125,-0.8954314589500427,-4.367023944854736,-9.378087997436523
1766401364366605600,4.23060546875,-1.0031704902648926,-4.122815132141113,-9.35893440246582
1766401364386625000,4.250625,-1.115697979927063,-3.6511576175689697,-9.181763648986816
1766401364396635000,4.260634765625,-1.0582371950149536,-3.4835634231567383,-9.030928611755371
1766401364406644500,4.27064453125,-1.0055646896362305,-3.3686418533325195,-8.834604263305664
1766401364426664200,4.290664306640625,-0.8643068075180054,-3.2154128551483154,-8.592789649963379
1766401364436673800,4.300673828125,-0.8140285611152649,-3.1196448802948,-8.547300338745117
1766401364446683600,4.31068359375,-0.7469909191131592,-3.1100680828094482,-8.461109161376953
1766401364456693200,4.320693359375,-0.7326257228851318,-3.026270866394043,-8.434772491455078
1766401364476743400,4.340743408203125,-0.7326257228851318,-3.064578056335449,-8.35336971282959
1766401364486783700,4.35078369140625,-0.667982280254364,-3.1699230670928955,-8.374917984008789
1766401364496793300,4.36079345703125,-0.6177040338516235,-3.141192674636841,-8.432378768920898
1766401364506772700,4.370772705078125,-0.5602431893348694,-3.162740468978882,-8.640673637390137
1766401364516813000,4.38081298828125,-0.5123591423034668,-3.2393548488616943,-8.75080680847168
1766401364536863000,4.400863037109375,-0.3878606855869293,-3.3423056602478027,-9.035717010498047
1766401364546872800,4.410872802734375,-0.38307225704193115,-3.354276657104492,-9.028534889221191
1766401364556913200,4.4209130859375,-0.3519476354122162,-3.4093432426452637,-9.141061782836914
1766401364566922800,4.4309228515625,-0.304063618183136,-3.5625722408294678,-9.351752281188965
1766401364576932600,4.4409326171875,-0.272938996553421,-3.6727054119110107,-9.385271072387695
1766401364586942500,4.4509423828125,-0.181959331035614,-3.861847400665283,-9.696516990661621
1766401364596952000,4.4609521484375,-0.14365209639072418,-3.9384617805480957,-9.99100399017334
1766401364606992400,4.470992431640625,-0.12928688526153564,-4.101267337799072,-10.467450141906738
1766401364617002200,4.481002197265625,-0.21787235140800476,-4.120420932769775,-10.769119262695312
1766401364627012000,4.49101220703125,-0.28730419278144836,-4.182670593261719,-10.936713218688965
1766401364637052200,4.50105224609375,-0.2777273952960968,-4.247313976287842,-11.200075149536133
1766401364647062000,4.51106201171875,-0.19871874153614044,-4.378994941711426,-11.492168426513672
1766401364657071900,4.52107177734375,-0.12449848651885986,-4.503493309020996,-11.453861236572266
1766401364667081500,4.53108154296875,-0.090979665517807,-4.541800498962402,-11.54005241394043
1766401364677121800,4.541121826171875,-0.05746084079146385,-4.551377296447754,-11.563994407653809
1766401364687131600,4.551131591796875,-0.13168109953403473,-4.5825018882751465,-11.51850414276123
1766401364697172000,4.561171875,-0.035913024097681046,-4.668693542480469,-11.413159370422363
1766401364707181600,4.571181640625,0.1388636976480484,-4.721365928649902,-11.317391395568848
1766401364717222000,4.581221923828125,0.3280056416988373,-4.774038314819336,-11.396400451660156
1766401364727231700,4.591231689453125,0.545877993106842,-4.711789131164551,-11.288661003112793
1766401364747220700,4.611220703125,0.730231523513794,-4.4532151222229,-10.891223907470703
1766401364757230600,4.621230712890625,0.7709329724311829,-4.323928356170654,-10.625467300415039
1766401364767270700,4.631270751953125,0.8188169598579407,-4.082113742828369,-10.182539939880371
1766401364777280500,4.641280517578125,1.0031704902648926,-3.912125587463379,-9.653421401977539
1766401364787290400,4.651290283203125,1.036689281463623,-3.77565598487854,-9.366117477416992
1766401364797300000,4.661300048828125,1.1420341730117798,-3.7684733867645264,-9.038111686706543
1766401364807340300,4.67134033203125,1.3024457693099976,-4.314351558685303,-8.827422142028809
1766401364817380600,4.681380615234375,1.3215993642807007,-5.370194435119629,-9.208099365234375
1766401364827390500,4.691390380859375,1.723825216293335,-7.620744228363037,-9.95748519897461
1766401364837400000,4.701400146484375,1.98958158493042,-9.555258750915527,-11.03248119354248
1766401364887479600,4.7514794921875,2.499546527862549,-8.865729331970215,-11.772290229797363
1766401364897489200,4.7614892578125,3.5386300086975098,-9.136273384094238,-11.41555404663086
1766401364907499000,4.7714990234375,4.316745758056641,-9.514557838439941,-10.8720703125
1766401364917539300,4.781539306640625,4.850652694702148,-10.110713958740234,-10.273519515991211
1766401364927549200,4.791549072265625,4.757278919219971,-10.302249908447266,-9.454702377319336
1766401364937589200,4.80158935546875,4.481945514678955,-10.596736907958984,-8.573636054992676
1766401364957639400,4.821639404296875,4.378994941711426,-11.417947769165039,-7.378929615020752
1766401364967649300,4.831649169921875,4.412513732910156,-11.152191162109375,-6.955155849456787
1766401364977659000,4.841658935546875,4.491522312164307,-10.228029251098633,-6.112396717071533
1766401364987668700,4.851668701171875,4.58968448638916,-10.230423927307129,-5.535394191741943
1766401364997678600,4.8616787109375,4.302380561828613,-10.1753568649292,-4.932055473327637
1766401365007718700,4.87171875,4.469974517822266,-10.189722061157227,-4.395754337310791
1766401365017728500,4.881728515625,4.687847137451172,-9.801861763000488,-3.6104562282562256
1766401365027738400,4.89173828125,4.927267074584961,-8.633491516113281,-2.8778305053710938
1766401365037778700,4.90177880859375,5.056553840637207,-9.01895809173584,-2.43011474609375
1766401365047818800,4.91181884765625,4.9799394607543945,-8.580819129943848,-1.9776105880737305
1766401365067838500,4.93183837890625,5.87776517868042,-8.789113998413086,-1.3623007535934448
1766401365087858000,4.95185791015625,6.09324312210083,-9.20091724395752,-1.7310078144073486
1766401365097867800,4.96186767578125,5.853823184967041,-9.047688484191895,-1.6855180263519287
1766401365107847000,4.971846923828125,5.473145008087158,-9.117119789123535,-1.5322890281677246
1766401365117856800,4.981856689453125,5.094861030578613,-9.406818389892578,-1.4532804489135742
1766401365127866400,4.991866455078125,4.347870349884033,-9.519346237182617,-1.0965443849563599
1766401365137876200,5.001876220703125,3.8091750144958496,-9.263166427612305,-0.8331822156906128
1766401365147886000,5.011885986328125,3.883395195007324,-9.691728591918945,-0.727837324142456
1766401365157895700,5.021895751953125,3.847482204437256,-9.773131370544434,-0.4429273009300232
1766401365177945900,5.04194580078125,3.3207578659057617,-10.589553833007812,0.7422025203704834
1766401365187955500,5.05195556640625,3.004723072052002,-12.014103889465332,1.091755986213684
1766401365197965300,5.06196533203125,3.004723072052002,-12.014103889465332,1.091755986213684
1766401365208005600,5.072005615234375,2.896984100341797,-12.813767433166504,0.9600749015808105
1766401365218015500,5.082015380859375,2.4660277366638184,-13.060370445251465,0.4644751250743866
1766401365228025000,5.092025146484375,2.056619167327881,-12.0021333694458,0.4644751250743866
1766401365248105700,5.112105712890625,1.1779472827911377,-11.583148002624512,0.6488286852836609
1766401365258146000,5.12214599609375,1.094150185585022,-11.350910186767578,0.6416460275650024
1766401365288145000,5.152144775390625,1.7549498081207275,-9.26795482635498,0.49559974670410156
1766401365298185000,5.16218505859375,1.623268723487854,-9.153033256530762,0.545877993106842
1766401365308194800,5.17219482421875,1.4484920501708984,-8.367734909057617,0.6823474764823914
1766401365318204700,5.18220458984375,1.2832920551300049,-7.489062786102295,0.8786720037460327
1766401365328214300,5.19221435546875,1.3766659498214722,-6.675034523010254,1.2401964664459229
1766401365338224000,5.20222412109375,1.4173674583435059,-6.162675380706787,1.4413094520568848
1766401365348234000,5.21223388671875,1.7166426181793213,-6.1530985832214355,1.3551181554794312
1766401365358243600,5.22224365234375,1.7118542194366455,-6.1315507888793945,1.1109095811843872
1766401365388242400,5.252242431640625,2.4133553504943848,-3.847482204437256,1.4245500564575195
1766401365398252300,5.262252197265625,2.542642116546631,-3.2369606494903564,1.4508862495422363
1766401365408292600,5.272292724609375,2.6144683361053467,-2.3104045391082764,1.6974890232086182
1766401365418302200,5.28230224609375,2.8562827110290527,-1.9081788063049316,1.7717092037200928
1766401365428312000,5.29231201171875,2.9017724990844727,-1.6927006244659424,1.7836803197860718
1766401365438352400,5.302352294921875,2.7293899059295654,-1.7525556087493896,2.0661959648132324
1766401365448362000,5.312362060546875,2.6384103298187256,-2.1308395862579346,2.4157495498657227
1766401365458402300,5.32240234375,2.9161376953125,-1.9560627937316895,2.652775526046753
1766401365468412200,5.332412109375,3.450044631958008,-1.0821791887283325,3.0765492916107178
1766401365488462000,5.352462158203125,4.005499362945557,-0.38307225704193115,4.343081951141357
1766401365498441500,5.36244140625,4.170699596405029,-0.730231523513794,4.434061527252197
1766401365508451000,5.372451171875,4.201824188232422,-0.44532153010368347,4.49870491027832
1766401365518461000,5.3824609375,3.97916316986084,-0.40462008118629456,5.114014625549316
1766401365528531700,5.39253173828125,3.780444383621216,-0.507570743560791,5.738901615142822
1766401365538541600,5.40254150390625,3.600879430770874,-0.9050082564353943,5.853823184967041
1766401365548459800,5.412459716796875,3.9384617805480957,-0.9720458984375,5.762843608856201
1766401365558500000,5.4225,4.537012100219727,-1.158793568611145,5.513846397399902
1766401365568509700,5.432509765625,5.003881454467773,-1.4915876388549805,5.746084213256836
1766401365578519600,5.44251953125,5.236119270324707,-2.4875755310058594,6.236895561218262
1766401365588529400,5.452529296875,4.9799394607543945,-3.114856481552124,6.904877662658691
1766401365598539000,5.4625390625,4.776432514190674,-2.8874073028564453,7.082048416137695
1766401365608548900,5.472548828125,4.371812343597412,-2.5953147411346436,7.3023152351379395
1766401365618558700,5.482558837890625,3.9384617805480957,-2.6862943172454834,7.225700855255127
1766401365628568300,5.492568359375,3.7014358043670654,-2.585737943649292,7.041347026824951
1766401365638578200,5.502578125,3.7493197917938232,-2.5785553455352783,6.825869083404541
1766401365648587800,5.512587890625,3.93367338180542,-2.4157495498657227,7.326257228851318
1766401365658628000,5.522628173828125,3.9432501792907715,-2.10210919380188,7.903259754180908
1766401365668607500,5.532607421875,4.089296340942383,-1.556231141090393,8.51138687133789
1766401365678647800,5.542647705078125,4.185064792633057,-1.7166426181793213,8.971074104309082
1766401365688657400,5.552657470703125,4.015076160430908,-2.276885747909546,9.332598686218262
1766401365698697700,5.56269775390625,4.443638324737549,-2.7269957065582275,8.990227699279785
1766401365708707600,5.57270751953125,4.797980308532715,-3.004723072052002,8.607154846191406
1766401365718717200,5.58271728515625,4.970362663269043,-3.4141316413879395,8.49941635131836
1766401365728757500,5.592757568359375,5.154716491699219,-3.359065055847168,8.53293514251709
1766401365738767400,5.602767333984375,5.497087001800537,-2.535459518432617,8.382100105285645
1766401365748746500,5.61274658203125,5.585672378540039,-2.097320795059204,8.097189903259277
1766401365758756400,5.62275634765625,5.099649429321289,-2.5282769203186035,8.164227485656738
1766401365768766200,5.63276611328125,4.618414878845215,-3.138798475265503,8.322244644165039
1766401365778775800,5.64277587890625,4.671087741851807,-3.220201253890991,8.157045364379883
1766401365798764800,5.662764892578125,5.571307182312012,-2.2888567447662354,7.8529815673828125
1766401365808805000,5.67280517578125,5.48272180557251,-2.779668092727661,7.716512203216553
1766401365818784500,5.682784423828125,5.3797712326049805,-2.959233283996582,7.7763671875
1766401365828794000,5.692794189453125,5.583278179168701,-2.695871114730835,7.881711959838867
1766401365838834400,5.70283447265625,5.22175407409668,-3.155557870864868,7.577648162841797
1766401365848844300,5.71284423828125,4.414907932281494,-4.039018154144287,7.314286231994629
1766401365858854000,5.72285400390625,4.580107688903809,-3.5745432376861572,7.268796443939209
1766401365868863700,5.73286376953125,4.793191909790039,-2.207453966140747,7.1706342697143555
1766401365878873600,5.74287353515625,5.236119270324707,-2.097320795059204,6.904877662658691
1766401365908933400,5.772933349609375,5.463568210601807,-2.3918075561523438,5.65031623840332
1766401365918943200,5.782943115234375,5.944802761077881,-2.3104045391082764,5.901707172393799
1766401365928952800,5.792952880859375,6.112396717071533,-2.7054479122161865,6.004657745361328
1766401365938962700,5.802962646484375,6.7061591148376465,-2.873042106628418,5.43723201751709
1766401365948972500,5.81297265625,7.271190643310547,-2.557007312774658,4.639962673187256
1766401365958982100,5.822982177734375,6.617573261260986,-2.9735984802246094,4.55616569519043
1766401365968992000,5.832991943359375,5.961562156677246,-3.536235809326172,3.9432501792907715
1766401365979001600,5.843001708984375,6.069301128387451,-3.9624037742614746,3.5386300086975098
1766401365999021300,5.863021240234375,6.7492547035217285,-4.398148536682129,3.5936968326568604
1766401366009031000,5.873031005859375,7.067683219909668,-4.522646903991699,3.1890766620635986
1766401366019040800,5.883040771484375,7.173028469085693,-4.577713489532471,2.8610711097717285
1766401366029050600,5.893050537109375,7.180211067199707,-4.398148536682129,2.6431987285614014
1766401366039060200,5.903060302734375,7.041347026824951,-4.8722004890441895,2.2409727573394775
1766401366049070000,5.913070068359375,6.976703643798828,-4.982333660125732,1.7501614093780518
1766401366059080000,5.923079833984375,7.038952827453613,-5.03021764755249,1.7381904125213623
1766401366069089500,5.933089599609375,7.350199222564697,-4.580107688903809,1.9728221893310547
1766401366079129900,5.9431298828125,7.481880187988281,-4.264073371887207,2.070984363555908
1766401366089139700,5.9531396484375,7.371747016906738,-5.027823448181152,1.4844050407409668
1766401366129178600,5.9931787109375,7.738059997558594,-6.983886241912842,0.4812345504760742
1766401366139188500,6.0031884765625,8.40843677520752,-6.701370716094971,0.16998831927776337
1766401366149198300,6.0131982421875,8.904036521911621,-7.383718013763428,-0.16759411990642548
1766401366159208000,6.0232080078125,9.002198219299316,-8.066065788269043,-0.7350199222564697
1766401366169248300,6.033248291015625,8.87051773071289,-7.800309181213379,-1.2234370708465576
1766401366179258000,6.043258056640625,8.746018409729004,-7.01979923248291,-1.1971008777618408
1766401366189237200,6.0532373046875,8.69334602355957,-6.502651691436768,-1.0582371950149536
1766401366199247000,6.0632470703125,8.62391471862793,-5.547365188598633,-1.0438719987869263
1766401366239316700,6.103316650390625,10.072406768798828,-7.1251444816589355,-2.9089550971984863
1766401366249387500,6.113387451171875,10.158597946166992,-8.432378768920898,-3.1483752727508545
1766401366259397000,6.123397216796875,9.885659217834473,-8.540117263793945,-3.0119056701660156
1766401366269407000,6.133406982421875,9.27034854888916,-7.632715225219727,-2.691082715988159
1766401366279416800,6.143416748046875,8.75080680847168,-6.253654956817627,-2.315192937850952
1766401366289426400,6.153426513671875,8.427590370178223,-4.862623691558838,-2.0254945755004883
1766401366299466800,6.163466796875,8.403648376464844,-3.8091750144958496,-1.987187385559082
1766401366309476600,6.1734765625,8.889671325683594,-5.102043628692627,-2.207453966140747
1766401366319486500,6.183486572265625,8.757989883422852,-6.40927791595459,-2.676717519760132
1766401366329557200,6.19355712890625,8.65982723236084,-7.343016624450684,-2.6671407222747803
1766401366339566800,6.20356689453125,8.643068313598633,-8.793902397155762,-2.6862943172454834
1766401366349576700,6.21357666015625,8.44434928894043,-9.17697525024414,-2.896984100341797
1766401366359617000,6.223616943359375,8.149862289428711,-8.341399192810059,-2.935291290283203
1766401366369626600,6.233626708984375,7.793126583099365,-6.6127848625183105,-2.7222073078155518
1766401366379667000,6.2436669921875,7.6566572189331055,-4.807557106018066,-2.5330653190612793
1766401366389615600,6.25361572265625,7.60637903213501,-5.2049946784973145,-3.0837318897247314
1766401366399656000,6.263656005859375,7.364564418792725,-6.335057735443115,-3.907337188720703
1766401366409696300,6.2736962890625,7.486668586730957,-7.264008045196533,-4.49870491027832
1766401366429746400,6.293746337890625,7.7213006019592285,-5.892130374908447,-3.890577793121338
1766401366449766000,6.313765869140625,7.769184589385986,-5.781997203826904,-3.8714241981506348
1766401366459775700,6.323775634765625,7.6782050132751465,-6.742072105407715,-4.094084739685059
1766401366469785300,6.333785400390625,7.6351094245910645,-7.395689010620117,-4.10366153717041
1766401366479795200,6.343795166015625,7.841010570526123,-6.789956092834473,-3.8714241981506348
1766401366489805000,6.35380517578125,8.118738174438477,-5.918466567993164,-3.6296098232269287
1766401366499814700,6.363814697265625,8.329427719116211,-5.063736438751221,-3.579331636428833
1766401366509824500,6.373824462890625,8.31985092163086,-4.426878929138184,-3.466804027557373
1766401366519864800,6.38386474609375,8.56645393371582,-4.039018154144287,-3.2321722507476807
1766401366529874400,6.39387451171875,8.760383605957031,-3.7876269817352295,-3.0621838569641113
1766401366539884300,6.40388427734375,8.803479194641113,-3.9624037742614746,-3.2082302570343018
1766401366549894100,6.41389404296875,8.473079681396484,-4.357447147369385,-3.7253777980804443
1766401366559873300,6.423873291015625,7.999027729034424,-4.99669885635376,-4.216189384460449
1766401366569913600,6.43391357421875,7.728483200073242,-5.092466831207275,-4.606443881988525
1766401366579923500,6.44392333984375,7.781155586242676,-4.99669885635376,-5.061342239379883
1766401366589902600,6.453902587890625,7.905653953552246,-4.774038314819336,-5.274426460266113
1766401366599943000,6.46394287109375,7.781155586242676,-4.532223701477051,-5.623979568481445
1766401366609952800,6.473952880859375,7.781155586242676,-4.532223701477051,-5.623979568481445
1766401366619962400,6.48396240234375,7.6566572189331055,-4.575319290161133,-5.839457988739014
1766401366630002700,6.494002685546875,7.60637903213501,-4.850652694702148,-6.200982570648193
1766401366649991700,6.51399169921875,7.692570209503174,-4.9583916664123535,-7.091625213623047
1766401366660001500,6.52400146484375,7.453149795532227,-4.946420669555664,-7.252037048339844
1766401366669980700,6.533980712890625,7.127538681030273,-4.683058738708496,-7.06528902053833
1766401366679990500,6.543990478515625,6.979097843170166,-4.73573112487793,-6.866570472717285
1766401366690000100,6.554000244140625,6.900089263916016,-5.468356609344482,-7.180211067199707
1766401366700010000,6.564010009765625,6.730101108551025,-5.896918773651123,-7.649474620819092
1766401366709958700,6.573958740234375,6.598419666290283,-5.817910194396973,-7.716512203216553
1766401366719999000,6.5839990234375,6.62236213684082,-5.353435039520264,-7.513004779815674
1766401366730008800,6.5940087890625,6.414066314697266,-4.98472785949707,-7.694964408874512
1766401366760038100,6.6240380859375,4.903325080871582,-4.903325080871582,-7.4100542068481445
1766401366770047700,6.6340478515625,3.9480385780334473,-5.147533416748047,-7.41484260559082
1766401366780088000,6.644088134765625,3.2178070545196533,-5.542576789855957,-7.762001991271973
1766401366790098000,6.654097900390625,2.9161376953125,-5.233725070953369,-8.015787124633789
1766401366800107800,6.664107666015625,3.0095114707946777,-4.726154327392578,-7.800309181213379
1766401366810178600,6.674178466796875,3.1196448802948,-4.376600742340088,-7.582436561584473
1766401366820188200,6.684188232421875,3.19865345954895,-4.393360137939453,-7.527369976043701
1766401366830137000,6.69413720703125,3.5194764137268066,-4.680664539337158,-7.955932140350342
1766401366840177200,6.70417724609375,3.3710360527038574,-4.637568473815918,-8.219294548034668
1766401366850217500,6.714217529296875,2.868253707885742,-5.0469770431518555,-8.245630264282227
1766401366860227300,6.724227294921875,2.3511061668395996,-5.260061264038086,-8.47786808013916
1766401366870206500,6.73420654296875,2.494758129119873,-5.006275653839111,-8.83939266204834
1766401366880246800,6.744246826171875,2.6384103298187256,-4.975151062011719,-8.858546257019043
1766401366890287000,6.754287109375,2.9472622871398926,-5.2696380615234375,-8.920795440673828
1766401366900297000,6.764296875,3.3662476539611816,-5.25527286529541,-9.191340446472168
1766401366910276000,6.774276123046875,3.6846764087677,-5.817910194396973,-9.454702377319336
1766401366920347000,6.784346923828125,3.8307228088378906,-6.315904140472412,-9.727641105651855
1766401366930356700,6.794356689453125,3.8139634132385254,-6.457161903381348,-9.543288230895996
1766401366940366300,6.804366455078125,3.5458126068115234,-6.160281181335449,-9.100360870361328
1766401366970395600,6.834395751953125,2.5115175247192383,-6.030993938446045,-9.327810287475586
1766401366980405500,6.844405517578125,2.564189910888672,-6.143521785736084,-9.260771751403809
1766401366990415400,6.854415283203125,2.518700122833252,-6.095637321472168,-8.901641845703125
1766401367000425000,6.864425048828125,2.0590133666992188,-7.000645637512207,-8.547300338745117
1766401367010434800,6.874434814453125,2.557007312774658,-6.890512466430664,-8.305485725402832
1766401367020505600,6.884505615234375,3.0095114707946777,-6.761225700378418,-8.497021675109863
1766401367030485000,6.894485107421875,3.157952070236206,-6.63433313369751,-8.018181800842285
1766401367040525000,6.904525146484375,3.5218706130981445,-6.751648902893066,-7.812280178070068
1766401367050504400,6.91450439453125,3.445256233215332,-5.829881191253662,-7.845798969268799
1766401367080533800,6.94453369140625,4.67827033996582,-5.904101371765137,-7.417236804962158
1766401367090543400,6.95454345703125,3.0550012588500977,-5.870582580566406,-7.096413612365723
1766401367100614100,6.9646142578125,11.906365394592285,-4.316745758056641,-6.919242858886719
1766401367110593500,6.974593505859375,14.322114944458008,-10.287884712219238,-4.469974517822266
1766401367130643500,6.9946435546875,8.236053466796875,-5.74129581451416,-8.995016098022461
1766401367140653300,7.0046533203125,7.0126166343688965,-6.382941722869873,-6.210559368133545
1766401367150663200,7.0146630859375,4.1180267333984375,-6.423643112182617,-4.845864295959473
1766401367160703500,7.024703369140625,2.3487119674682617,-2.7293899059295654,-5.659893035888672
1766401367190732800,7.05473291015625,6.885724067687988,-4.596867084503174,-10.472238540649414
1766401367200742400,7.064742431640625,8.549694061279297,-4.8267107009887695,-10.831368446350098
1766401367210752300,7.074752197265625,8.149862289428711,-3.464409828186035,-10.63743782043457
1766401367220761900,7.084761962890625,6.976703643798828,-3.1292216777801514,-9.567230224609375
1766401367230771700,7.094771728515625,3.60566782951355,-1.9967641830444336,-8.614337921142578
1766401367240812000,7.10481201171875,1.8818424940109253,-2.054224967956543,-8.729259490966797
1766401367250852400,7.114852294921875,2.8802247047424316,-0.033518824726343155,-9.770736694335938
1766401367260862000,7.124862060546875,4.671087741851807,-0.12928688526153564,-10.17296314239502
1766401367270871800,7.134871826171875,5.583278179168701,-3.8498764038085938,-9.986215591430664
1766401367290922000,7.154921875,5.808333396911621,-2.5498247146606445,-10.041281700134277
1766401367310911000,7.174910888671875,3.976768970489502,-0.9217676520347595,-9.835380554199219
1766401367320951300,7.184951416015625,3.976768970489502,-0.9217676520347595,-9.835380554199219
1766401367330961000,7.1949609375,1.6112977266311646,-2.0374655723571777,-9.378087997436523
1766401367340970800,7.204970703125,-0.14365209639072418,-1.6280571222305298,-8.60236644744873
1766401367350950000,7.214949951171875,-1.216254472732544,-2.561795711517334,-8.226476669311523
1766401367360990200,7.224990234375,-2.695871114730835,-3.7612907886505127,-7.833827972412109
1766401367371000000,7.235,-2.161964178085327,-3.0861260890960693,-7.266402244567871
1766401367401090300,7.26509033203125,2.4205379486083984,2.5306711196899414,-8.403648376464844
1766401367411130600,7.275130615234375,3.7397429943084717,1.4077905416488647,-8.269572257995605
1766401367421140500,7.285140380859375,5.489904403686523,-0.6320692300796509,-7.91283655166626
1766401367431150000,7.295150146484375,5.612008571624756,-1.3934253454208374,-7.848193168640137
1766401367441190400,7.3051904296875,5.152322292327881,-2.0398597717285156,-8.628703117370605
1766401367451200300,7.3152001953125,4.616020679473877,-3.490746021270752,-9.765948295593262
1766401367461240600,7.325240478515625,3.6152446269989014,-3.2800562381744385,-10.690110206604004
1766401367471250200,7.335250244140625,4.829104900360107,-2.8419175148010254,-11.796232223510742
1766401367491270000,7.355269775390625,6.076483726501465,-2.188300371170044,-12.057199478149414
1766401367501279500,7.365279541015625,4.6950297355651855,-1.8100165128707886,-10.769119262695312
1766401367511289300,7.375289306640625,2.851494312286377,-2.5929205417633057,-9.349357604980469
1766401367521299200,7.38529931640625,1.0055646896362305,-4.359841346740723,-8.310274124145508
1766401367531339300,7.39533935546875,-0.6607996821403503,-5.384559631347656,-8.106766700744629
1766401367541349000,7.40534912109375,-0.7709329724311829,-4.76924991607666,-8.166622161865234
1766401367551359000,7.41535888671875,0.3256114423274994,-3.8762125968933105,-8.180987358093262
1766401367561399300,7.4253994140625,1.9847931861877441,-2.7940332889556885,-8.947132110595703
1766401367571409000,7.435408935546875,2.868253707885742,-1.6208745241165161,-9.476250648498535
1766401367591428400,7.455428466796875,1.359906554222107,-1.8794482946395874,-9.569623947143555
1766401367611509000,7.475509033203125,-0.5985504388809204,-3.6080620288848877,-7.740454196929932
1766401367621549300,7.48554931640625,-0.6320692300796509,-5.070919036865234,-7.417236804962158
1766401367631498000,7.495498046875,-1.1085153818130493,-6.962338447570801,-6.959944248199463
1766401367641538300,7.505538330078125,-1.0438719987869263,-7.132327079772949,-6.835445880889893
1766401367651578600,7.51557861328125,-1.4508862495422363,-3.7924153804779053,-7.587224960327148
1766401367661588500,7.52558837890625,0.4165911078453064,0.8690952062606812,-10.666168212890625
1766401367671598000,7.53559814453125,0.6823474764823914,2.6791117191314697,-14.07311725616455
1766401367681638400,7.545638427734375,2.389413356781006,-0.06224924325942993,-14.748282432556152
1766401367691648300,7.555648193359375,3.6296098232269287,-2.650381326675415,-11.437101364135742
1766401367701688600,7.5656884765625,3.8977603912353516,-4.613626480102539,-8.219294548034668
1766401367711698200,7.5756982421875,3.665522813796997,-3.064578056335449,-7.9415669441223145
1766401367721738500,7.585738525390625,3.0310592651367188,-1.5873557329177856,-9.526528358459473
1766401367731748400,7.595748291015625,2.360682964324951,-1.742978811264038,-10.730812072753906
1766401367741788700,7.60578857421875,1.9105730056762695,-2.494758129119873,-10.977415084838867
1766401367751798300,7.61579833984375,1.0295066833496094,-2.6791117191314697,-10.201693534851074
1766401367761838600,7.625838623046875,0.36152446269989014,-2.827552318572998,-9.528923034667969
1766401367771848400,7.635848388671875,-0.2346317619085312,-2.873042106628418,-9.646238327026367
1766401367781858000,7.645858154296875,-0.08140286058187485,-2.7676970958709717,-9.545681953430176
1766401367791868000,7.655867919921875,0.1867477297782898,-2.647987127304077,-9.452308654785156
1766401367801908200,7.665908203125,0.2585737705230713,-2.846705913543701,-10.031704902648926
1766401367811918000,7.67591796875,0.021547814831137657,-2.717418909072876,-10.256759643554688
1766401367821927700,7.685927734375,-0.12449848651885986,-2.698265314102173,-9.967061996459961
1766401367831937500,7.6959375,-0.11252748221158981,-2.58813214302063,-9.469067573547363
1766401367841977900,7.705977783203125,-0.47405192255973816,-2.8107926845550537,-9.59596061706543
1766401367852018200,7.71601806640625,-0.7637503147125244,-3.485957622528076,-9.86889934539795
1766401367862027800,7.72602783203125,-0.5147533416748047,-3.337517261505127,-9.742006301879883
1766401367882108400,7.7461083984375,-0.5578489899635315,-2.628833532333374,-9.782708168029785
1766401367892118300,7.7561181640625,-0.8475474119186401,-3.2154128551483154,-9.995792388916016
1766401367912198700,7.77619873046875,-0.7996633648872375,-2.8850131034851074,-9.351752281188965
1766401367922208500,7.78620849609375,-0.8140285611152649,-2.8850131034851074,-9.6989107131958
1766401367932248800,7.796248779296875,-0.6919242739677429,-3.1435868740081787,-9.47146224975586
1766401367942289200,7.8062890625,-0.9074024558067322,-3.3518824577331543,-9.739612579345703
1766401367952298800,7.816298828125,-0.9648633003234863,-3.069366693496704,-9.806650161743164
1766401367962308600,7.82630859375,-0.395043283700943,-3.1866824626922607,-9.454702377319336
1766401367982389200,7.84638916015625,0.3064578175544739,-3.6320040225982666,-10.14902114868164
1766401367992429600,7.8564296875,0.3663128614425659,-3.141192674636841,-9.885659217834473
1766401368012479500,7.8764794921875,-1.1420341730117798,-2.8443117141723633,-9.555258750915527
1766401368022489300,7.8864892578125,-1.50355863571167,-2.7246015071868896,-9.131484985351562
1766401368032468500,7.896468505859375,-1.2186486721038818,-3.141192674636841,-9.284713745117188
1766401368042508800,7.9065087890625,-1.2401964664459229,-3.3518824577331543,-9.813833236694336
1766401368052518700,7.9165185546875,-0.9768342971801758,-3.026270866394043,-9.876082420349121
1766401368062528300,7.9265283203125,-0.9768342971801758,-3.026270866394043,-9.876082420349121
1766401368072568600,7.936568603515625,-1.0223240852355957,-2.470816135406494,-9.586383819580078
1766401368082578400,7.946578369140625,-1.3934253454208374,-2.212242364883423,-9.53849983215332
1766401368112607700,7.976607666015625,0.12210428714752197,-2.786850690841675,-10.32858657836914
1766401368122617300,7.986617431640625,-0.14844051003456116,-2.6240451335906982,-10.398017883300781
1766401368132688100,7.996688232421875,-0.4812345504760742,-2.274491548538208,-10.031704902648926
1766401368142698000,8.006697998046874,-0.6368576288223267,-1.6831238269805908,-9.734824180603027
1766401368152677400,8.016677490234375,-0.8164227604866028,-1.5131354331970215,-9.600749015808105
1766401368162687000,8.02668701171875,-0.6799532771110535,-3.203441858291626,-10.019734382629395
1766401368172727300,8.036727294921874,-0.2561795711517334,-3.579331636428833,-10.311826705932617
1766401368182737200,8.046737060546874,-0.181959331035614,-1.8339585065841675,-10.283096313476562
1766401368192746800,8.056746826171874,-0.26336219906806946,-1.7094600200653076,-10.65898609161377
1766401368202756600,8.066756591796874,-0.9720458984375,-2.2002713680267334,-10.007762908935547
1766401368222837200,8.086837158203124,-0.8547300100326538,-3.8594532012939453,-9.579200744628906
1766401368232846800,8.096846923828124,0.11971008777618408,-2.889801502227783,-9.78989028930664
1766401368242887200,8.10688720703125,1.2641384601593018,-3.603273630142212,-9.600749015808105
1766401368252927500,8.116927490234374,1.6974890232086182,-4.1180267333984375,-8.983044624328613
1766401368262967800,8.1269677734375,2.231395959854126,-4.027047157287598,-8.887276649475098
1766401368272977700,8.136977783203125,1.1300631761550903,-5.331887245178223,-8.53532886505127
1766401368283048400,8.14704833984375,-0.3734954595565796,-5.657498836517334,-8.109161376953125
1766401368293058000,8.15705810546875,-2.2673089504241943,-5.353435039520264,-7.6351094245910645
1766401368303068000,8.16706787109375,-4.218583583831787,-6.833051681518555,-6.653486728668213
1766401368313108200,8.177108154296874,-4.6255974769592285,-7.51779317855835,-7.0772600173950195
1766401368333127700,8.197127685546874,0.1388636976480484,-9.751583099365234,-10.833763122558594
1766401368353086200,8.217086181640624,-0.08858546614646912,-3.421314239501953,-11.805809020996094
1766401368363096000,8.227095947265624,0.9074024558067322,2.161964178085327,-11.520898818969727
1766401368373105700,8.237105712890624,1.0031704902648926,2.5115175247192383,-9.835380554199219
1766401368383115500,8.247115478515624,0.035913024097681046,-2.7940332889556885,-7.6351094245910645
1766401368393125400,8.25712548828125,-0.5363011956214905,-3.6535518169403076,-6.215347766876221
1766401368403135000,8.267135009765624,-0.21547815203666687,-0.6392518281936646,-5.489904403686523
1766401368413144800,8.277144775390624,1.6280571222305298,1.048660397529602,-5.822698593139648
1766401368463254500,8.327254638671874,2.011129379272461,-3.1028854846954346,-11.370063781738281
1766401368483335200,8.347335205078124,0.019153613597154617,-1.778891921043396,-9.821015357971191
1766401368493345000,8.357344970703124,-0.7038952708244324,-2.8826189041137695,-10.02452278137207
1766401368503385300,8.36738525390625,-0.3280056416988373,-4.469974517822266,-9.332598686218262
1766401368513364500,8.377364501953124,-0.06464344263076782,-5.4659624099731445,-9.576807022094727
1766401368523404800,8.38740478515625,0.4884171485900879,-3.6966474056243896,-9.765948295593262
1766401368533445000,8.397445068359374,0.7757213711738586,-2.7772738933563232,-10.139444351196289
1766401368553464600,8.417464599609374,-0.4596867263317108,-3.2393548488616943,-10.105925559997559
1766401368563474400,8.427474365234374,-1.2952631711959839,-3.9863457679748535,-9.825803756713867
1766401368573484000,8.437484130859374,-1.3431471586227417,-2.5689783096313477,-9.859322547912598
1766401368583524400,8.4475244140625,-1.3982137441635132,-2.2864625453948975,-10.029311180114746
1766401368593534200,8.4575341796875,-1.455674648284912,-2.5043349266052246,-9.770736694335938
1766401368603544000,8.4675439453125,-1.6376339197158813,-2.9472622871398926,-9.943120002746582
1766401368613584100,8.477584228515624,-1.6184803247451782,-3.117250680923462,-10.053253173828125
1766401368623594000,8.487593994140624,-1.3958195447921753,-2.628833532333374,-9.66539192199707
1766401368633603800,8.497603759765624,-1.7717092037200928,-2.6623523235321045,-9.72285270690918
1766401368653623300,8.517623291015624,-1.9393033981323242,-2.691082715988159,-9.68933391571045
1766401368673704000,8.537703857421874,-1.3910311460494995,-2.5905263423919678,-9.739612579345703
1766401368683744300,8.547744140625,-1.45806884765625,-2.3080103397369385,-9.821015357971191
1766401368693784300,8.557784423828124,-1.316810965538025,-2.561795711517334,-9.976638793945312
1766401368703824600,8.56782470703125,-1.137245774269104,-3.0119056701660156,-10.122684478759766
1766401368713804000,8.577803955078124,-1.4221558570861816,-2.612074136734009,-9.907206535339355
1766401368723844400,8.58784423828125,-1.3838485479354858,-2.360682964324951,-9.854534149169922
1766401368733854000,8.59785400390625,-1.5969325304031372,-2.2625205516815186,-9.624691009521484
1766401368753873700,8.617873779296875,-1.434126853942871,-2.9735984802246094,-9.5408935546875
1766401368763913700,8.627913818359374,-1.091755986213684,-1.9249382019042969,-9.600749015808105
1766401368773954000,8.6379541015625,-0.45250412821769714,-1.6136919260025024,-9.911994934082031
1766401368783964000,8.6479638671875,-0.6177040338516235,-2.8395233154296875,-9.983820915222168
1766401368793973800,8.657973876953125,-1.173158884048462,-3.4787750244140625,-9.627084732055664
1766401368803983400,8.6679833984375,-1.173158884048462,-3.4787750244140625,-9.627084732055664
1766401368814054100,8.67805419921875,-1.1109095811843872,-3.0166940689086914,-8.844181060791016
1766401368824064000,8.68806396484375,-1.0342950820922852,-2.655169725418091,-8.911218643188477
1766401368834073900,8.698073974609375,-1.6041151285171509,-2.7246015071868896,-9.75397777557373
1766401368874204400,8.738204345703124,-0.4189853072166443,-3.667917013168335,-9.68933391571045
1766401368884244700,8.74824462890625,-0.524330198764801,-4.19224739074707,-9.464279174804688
1766401368894254300,8.75825439453125,-0.993593692779541,-3.485957622528076,-8.621520042419434
1766401368904264200,8.76826416015625,-1.3838485479354858,-2.3319525718688965,-9.028534889221191
1766401368914274000,8.778274169921875,-1.824381709098816,-3.1507694721221924,-9.016563415527344
1766401368924283600,8.78828369140625,-1.9321208000183105,-3.6080620288848877,-9.141061782836914
1766401368934324000,8.798323974609374,-1.7597382068634033,-3.8067808151245117,-9.05247688293457
1766401368974363100,8.838363037109374,0.5770025849342346,-4.213795185089111,-9.488221168518066
1766401368984403500,8.848403564453125,0.17956513166427612,-4.010287761688232,-8.865729331970215
1766401369004423000,8.8684228515625,-0.4692635238170624,-3.6942532062530518,-9.117119789123535
1766401369014432500,8.8784326171875,-0.7876923680305481,-3.5913026332855225,-8.822632789611816
1766401369024442400,8.8884423828125,-0.9409212470054626,-4.197035789489746,-8.724471092224121
1766401369034452200,8.8984521484375,-0.8475474119186401,-4.824316501617432,-8.224082946777344
1766401369044492500,8.908492431640624,-0.9888052940368652,-5.212177276611328,-8.13789176940918
1766401369074552300,8.93855224609375,-0.7038952708244324,-2.8562827110290527,-10.675745010375977
1766401369094571800,8.95857177734375,0.1173158809542656,-1.656787633895874,-10.261548042297363
1766401369104581600,8.96858154296875,0.33039984107017517,-1.4413094520568848,-10.441113471984863
1766401369124631600,8.988631591796874,-0.10773907601833344,-2.4851813316345215,-9.940725326538086
1766401369134641400,8.998641357421874,0.1628057211637497,-2.691082715988159,-9.648633003234863
1766401369144651000,9.008651123046874,-0.05746084079146385,-3.1220390796661377,-9.627084732055664
1766401369154660900,9.018660888671874,-0.19632454216480255,-2.868253707885742,-9.610325813293457
1766401369174711000,9.0387109375,0.304063618183136,-3.555389642715454,-9.5624418258667
1766401369184720600,9.048720703125,0.545877993106842,-3.3662476539611816,-9.253589630126953
1766401369194730500,9.05873046875,-0.05985504388809204,-3.201047658920288,-9.349357604980469
1766401369204770800,9.068770751953124,-0.47405192255973816,-3.184288263320923,-9.459490776062012
1766401369214780400,9.078780517578124,-0.6607996821403503,-2.38462495803833,-9.327810287475586
1766401369224790300,9.088790283203124,-0.22026655077934265,-2.559401512145996,-9.253589630126953
1766401369234830600,9.09883056640625,0.14365209639072418,-2.87064790725708,-9.430760383605957
1766401369254850000,9.11885009765625,0.5770025849342346,-2.5498247146606445,-9.758766174316406
1766401369274869800,9.138869873046875,0.031124621629714966,-2.5929205417633057,-9.821015357971191
1766401369294919700,9.158919677734374,-0.22026655077934265,-2.1164743900299072,-10.113107681274414
1766401369304929500,9.168929443359374,-0.5434837937355042,-2.5977089405059814,-9.823410034179688
1766401369314939100,9.178939208984374,-0.8188169598579407,-2.1571757793426514,-9.603142738342285
1766401369324949000,9.188948974609374,-0.8451532125473022,-2.1140801906585693,-9.765948295593262
1766401369334958800,9.198958740234374,-0.4357447028160095,-2.516305923461914,-9.823410034179688
1766401369344968400,9.208968505859374,0.0694318488240242,-2.360682964324951,-9.914389610290527
1766401369354978300,9.218978271484374,0.11971008777618408,-2.3056161403656006,-10.141838073730469
1766401369364988200,9.22898828125,0.30885201692581177,-2.1356279850006104,-10.007762908935547
1766401369385007600,9.249007568359374,0.009576806798577309,-2.166752576828003,-9.672574996948242
1766401369405027000,9.269027099609374,0.5650315880775452,-1.8291701078414917,-9.765948295593262
1766401369415097900,9.279097900390624,0.7469909191131592,-1.6352397203445435,-10.029311180114746
1766401369425138200,9.28913818359375,0.5841852426528931,-1.7118542194366455,-9.758766174316406
1766401369435148000,9.29914794921875,0.8140285611152649,-2.0015525817871094,-9.828198432922363
1766401369445157600,9.30915771484375,0.8643068075180054,-1.7908629179000854,-9.78989028930664
1766401369455167500,9.31916748046875,0.8954314589500427,-1.6903064250946045,-9.847352027893066
1766401369465207800,9.329207763671874,0.7469909191131592,-1.6543933153152466,-9.742006301879883
1766401369495298000,9.359298095703124,0.9624691009521484,-1.2665326595306396,-9.86650562286377
1766401369505338400,9.36933837890625,0.811634361743927,-1.6352397203445435,-9.856928825378418
1766401369515378700,9.379378662109374,0.6033388376235962,-1.5203180313110352,-9.727641105651855
1766401369525419000,9.3894189453125,0.5889736413955688,-1.2665326595306396,-9.859322547912598
1766401369535428600,9.3994287109375,0.4908113479614258,-1.889025092124939,-9.828198432922363
1766401369545469000,9.409468994140624,0.4908113479614258,-1.889025092124939,-9.828198432922363
1766401369555478800,9.419478759765624,0.35913026332855225,-1.6424223184585571,-9.816226959228516
1766401369565519000,9.42951904296875,0.4668693244457245,-1.5394717454910278,-10.06043529510498
1766401369575528700,9.43952880859375,0.7469909191131592,-1.259350061416626,-10.129867553710938
1766401369585538600,9.44953857421875,0.4213795065879822,-1.1180921792984009,-9.950302124023438
1766401369605558000,9.46955810546875,0.6823474764823914,-1.5107412338256836,-9.895236015319824
1766401369615568000,9.47956787109375,1.015141487121582,-1.0558429956436157,-10.072406768798828
1766401369625577700,9.48957763671875,0.5746083855628967,-1.1803414821624756,-9.981427192687988
1766401369635587300,9.49958740234375,0.28730419278144836,-1.41257905960083,-9.873687744140625
1766401369645597200,9.50959716796875,0.49559974670410156,-1.0797849893569946,-9.732429504394531
1766401369655607000,9.51960693359375,0.5003881454467773,-1.0271124839782715,-9.945513725280762
1766401369665616600,9.52961669921875,0.6751648783683777,-0.9696516990661621,-9.84495735168457
1766401369675657000,9.539656982421874,0.47644615173339844,-0.8164227604866028,-10.292673110961914
1766401369685666800,9.549666748046874,0.6943184733390808,-1.1635819673538208,-10.000580787658691
1766401369695676400,9.559676513671874,0.4572925269603729,-0.7541735172271729,-10.014945983886719
1766401369705686300,9.569686279296874,0.29209262132644653,-1.2114660739898682,-10.02452278137207
1766401369715726600,9.5797265625,0.002394201699644327,-1.0893617868423462,-9.923966407775879
1766401369725797400,9.58979736328125,0.2992752194404602,-0.9217676520347595,-9.916783332824707
1766401369735807200,9.59980712890625,0.3447650372982025,-1.1228805780410767,-9.897629737854004
1766401369745847300,9.609847412109374,0.11013327538967133,-1.5610195398330688,-9.84256362915039
1766401369765867000,9.629866943359374,0.6033388376235962,-0.993593692779541,-9.806650161743164
1766401369775937800,9.639937744140624,0.5530605912208557,-1.5610195398330688,-10.096348762512207
1766401369785947400,9.649947509765624,0.35913026332855225,-1.6879122257232666,-10.000580787658691
1766401369805967000,9.669967041015624,-0.31124621629714966,-1.3862427473068237,-9.763554573059082
1766401369825986600,9.689986572265624,-0.033518824726343155,-1.1755530834197998,-9.813833236694336
1766401369846067200,9.710067138671874,0.033518824726343155,-1.8555063009262085,-9.799467086791992
1766401369856107500,9.720107421875,0.17477671802043915,-1.37906014919281,-9.744400978088379
1766401369866147800,9.73014794921875,0.181959331035614,-1.048660397529602,-9.794678688049316
1766401369876157400,9.740157470703124,0.20111294090747833,-1.5322890281677246,-9.871294021606445
1766401369886167300,9.750167236328124,0.23702596127986908,-1.1300631761550903,-9.986215591430664
1766401369896177000,9.760177001953124,0.44532153010368347,-1.3431471586227417,-9.995792388916016
1766401369906186800,9.770186767578124,0.33518823981285095,-1.2521674633026123,-9.940725326538086
1766401369916196600,9.780196533203124,0.09816227108240128,-1.800439715385437,-9.911994934082031
1766401369926206200,9.790206298828124,0.15322890877723694,-1.41257905960083,-10.010157585144043
1766401369936216000,9.800216064453124,0.19871874153614044,-1.2210428714752197,-10.180145263671875
1766401369946226000,9.810225830078124,-0.1173158809542656,-1.3096283674240112,-9.96945571899414
1766401369956205000,9.820205078125,-0.3447650372982025,-1.8124107122421265,-9.840168952941895
1766401369966245400,9.830245361328124,-0.272938996553421,-1.4484920501708984,-9.832986831665039
1766401369976255200,9.840255126953124,-0.06703764945268631,-1.4628572463989258,-10.005369186401367
1766401369986295300,9.85029541015625,0.0454898327589035,-1.2521674633026123,-10.029311180114746
1766401369996305200,9.86030517578125,0.16998831927776337,-1.4317326545715332,-9.861717224121094
1766401370016385800,9.8803857421875,0.090979665517807,-1.525106430053711,-10.105925559997559
1766401370026395400,9.8903955078125,-0.14365209639072418,-1.01753568649292,-9.979032516479492
1766401370036405200,9.9004052734375,-0.181959331035614,-1.2330138683319092,-9.825803756713867
1766401370046445600,9.910445556640624,-0.18914192914962769,-1.4197616577148438,-9.90241813659668
1766401370056486000,9.92048583984375,-0.13168109953403473,-0.9552865028381348,-9.947908401489258
1766401370066495500,9.93049560546875,-0.043095629662275314,-0.9959878921508789,-9.979032516479492
1766401370076535800,9.940535888671874,-0.06703764945268631,-1.256955862045288,-9.823410034179688
1766401370086545700,9.950545654296874,0.0454898327589035,-1.0055646896362305,-9.9000244140625
1766401370096555500,9.960555419921874,-0.1412578970193863,-1.357512354850769,-9.904812812805176
1766401370106565000,9.970565185546874,0.1388636976480484,-0.8906430602073669,-9.926360130310059
1766401370116575000,9.980574951171874,0.1628057211637497,-0.7541735172271729,-10.02452278137207
1766401370126584800,9.990584716796874,0.16998831927776337,-0.8930372595787048,-10.079588890075684
1766401370136594400,10.000594482421874,0.1173158809542656,-1.072602391242981,-10.005369186401367
1766401370146604300,10.010604248046874,-0.10534487664699554,-0.8068459630012512,-9.911994934082031
1766401370156614100,10.0206142578125,-0.31603461503982544,-1.2449848651885986,-10.041281700134277
1766401370176633600,10.040633544921874,0.06464344263076782,-0.9696516990661621,-10.101137161254883
1766401370186674000,10.050673828125,-0.009576806798577309,-1.1468225717544556,-9.883264541625977
1766401370196683500,10.06068359375,-0.16998831927776337,-1.1444283723831177,-10.000580787658691
1766401370206723800,10.070723876953124,-0.1173158809542656,-0.7206547260284424,-10.034099578857422
1766401370216764200,10.08076416015625,0.1364694982767105,-0.7781155705451965,-10.000580787658691
1766401370246854400,10.1108544921875,0.31364041566848755,-1.2114660739898682,-9.950302124023438
1766401370256894700,10.120894775390624,0.2968810200691223,-0.730231523513794,-10.199298858642578
1766401370266904600,10.130904541015624,0.4620809257030487,-0.7422025203704834,-10.08437728881836
1766401370276914400,10.14091455078125,0.4620809257030487,-0.7422025203704834,-10.08437728881836
1766401370286954500,10.15095458984375,0.05027823522686958,-1.1420341730117798,-10.02452278137207
1766401370296964400,10.16096435546875,-0.38067805767059326,-1.0534487962722778,-9.962273597717285
1766401370307004700,10.171004638671874,-0.22744916379451752,-0.6703764796257019,-10.029311180114746
1766401370317014500,10.1810146484375,-0.021547814831137657,-0.5578489899635315,-10.029311180114746
1766401370337095000,10.201094970703124,0.12210428714752197,-0.871489405632019,-10.125079154968262
1766401370347165700,10.211165771484374,0.22744916379451752,-1.290474772453308,-9.876082420349121
1766401370357175600,10.221175537109374,0.4141969084739685,-0.6560112833976746,-9.952696800231934
1766401370367185400,10.231185302734374,0.5291185975074768,-0.5410895943641663,-10.101137161254883
1766401370377225500,10.2412255859375,0.6536170840263367,-0.6943184733390808,-9.95748519897461
1766401370387265800,10.251265869140624,0.3878606855869293,-0.7709329724311829,-10.017339706420898
1766401370397275600,10.261275634765624,0.44532153010368347,-0.17477671802043915,-10.132261276245117
1766401370407316000,10.27131591796875,0.12928688526153564,-0.6727706789970398,-9.916783332824707
1766401370417325600,10.28132568359375,-0.22266076505184174,-0.9409212470054626,-10.043676376342773
1766401370437375700,10.301375732421874,-0.040701430290937424,-0.8571242094039917,-9.945513725280762
1766401370447416000,10.311416015625,-0.29209262132644653,-0.7493851184844971,-9.890447616577148
1766401370457425700,10.32142578125,-0.11252748221158981,-0.7182605266571045,-9.943120002746582
1766401370467466000,10.331466064453124,0.19153612852096558,-0.6919242739677429,-9.979032516479492
1766401370477475800,10.341475830078124,0.2849099934101105,-0.7613561153411865,-9.959878921508789
1766401370487485700,10.351485595703124,0.10534487664699554,-1.0031704902648926,-9.914389610290527
1766401370497495300,10.361495361328124,0.011971008032560349,-0.9145850539207458,-9.928754806518555
1766401370517545500,10.38154541015625,0.08858546614646912,-0.545877993106842,-10.050858497619629
1766401370527555000,10.39155517578125,-2.5306711196899414,0.7134721279144287,-9.466673851013184
1766401370557645600,10.4216455078125,0.2992752194404602,-0.6105214357376099,-9.981427192687988
1766401370567655200,10.4316552734375,-0.19632454216480255,-0.33758243918418884,-10.14902114868164
1766401370577665000,10.4416650390625,-0.20350714027881622,-1.0079588890075684,-9.940725326538086
1766401370587675000,10.4516748046875,-0.22266076505184174,-0.8595184087753296,-9.99100399017334
1766401370597684500,10.4616845703125,-0.1867477297782898,0.019153613597154617,-10.1753568649292
1766401370607663900,10.471663818359374,0.3663128614425659,-0.19632454216480255,-10.101137161254883
1766401370617704200,10.4817041015625,0.3208230137825012,0.09816227108240128,-10.235212326049805
1766401370627713800,10.4917138671875,0.19393034279346466,-0.08858546614646912,-10.163386344909668
1766401370657773600,10.521773681640624,-0.09576806426048279,-0.7805097699165344,-10.340557098388672
1766401370667783400,10.531783447265624,-0.3974374830722809,-1.139639973640442,-10.132261276245117
1766401370687833600,10.55183349609375,0.20350714027881622,-0.950498104095459,-10.086771965026855
1766401370697843200,10.56184326171875,0.4644751250743866,-1.0797849893569946,-9.979032516479492
1766401370707883500,10.571883544921874,0.4165911078453064,-1.0319008827209473,-9.911994934082031
1766401370717893400,10.581893310546874,-0.05027823522686958,-3.0813376903533936,-9.627084732055664
1766401370727903000,10.591903076171874,-0.028730420395731926,-2.4827871322631836,-9.691728591918945
1766401370757963000,10.621962890625,0.6560112833976746,-3.050212860107422,-9.5624418258667
1766401370767972600,10.63197265625,0.1364694982767105,-2.808398485183716,-9.363722801208496
1766401370778013000,10.642012939453124,-0.24181437492370605,-3.600879430770874,-9.41639518737793
1766401370788053200,10.65205322265625,-0.7781155705451965,-1.659181833267212,-9.732429504394531
1766401370798063000,10.66206298828125,-1.1109095811843872,-2.425326347351074,-9.904812812805176
1766401370808103200,10.672103271484374,-1.1683704853057861,-3.043030261993408,-9.5624418258667
1766401370818113000,10.682113037109374,-1.0055646896362305,-2.4899697303771973,-9.617507934570312
1766401370828183800,10.692183837890624,-0.6392518281936646,-3.5721490383148193,-9.287108421325684
1766401370858213000,10.722213134765624,1.9776105880737305,-4.426878929138184,-8.942343711853027
1766401370868223000,10.732222900390624,1.1420341730117798,-3.1459810733795166,-9.57441234588623
1766401370878232600,10.742232666015624,-0.5219359993934631,-3.1244332790374756,-9.516951560974121
1766401370888242400,10.752242431640624,-0.7661445140838623,-2.894589900970459,-9.536105155944824
1766401370898252300,10.762252197265624,-1.259350061416626,-3.2561142444610596,-9.694122314453125
1766401370908262000,10.772261962890624,-1.4676456451416016,-2.7485435009002686,-9.612719535827637
1766401370918271700,10.782271728515624,-1.4269442558288574,-3.1747114658355713,-9.72285270690918
1766401370928281600,10.792281494140624,-1.723825216293335,-3.6296098232269287,-9.385271072387695
1766401370938321700,10.80232177734375,-1.3263877630233765,-3.0166940689086914,-9.622296333312988
1766401370948331500,10.81233154296875,-0.8906430602073669,-3.2417490482330322,-9.387664794921875
1766401370978391300,10.842391357421874,2.118868589401245,-2.2816741466522217,-9.59596061706543
1766401370988401200,10.852401123046874,1.0797849893569946,-2.676717519760132,-9.78989028930664
1766401370998441500,10.86244140625,-0.028730420395731926,-2.9712042808532715,-9.691728591918945
1766401371008451000,10.872451171875,-1.6041151285171509,-3.2393548488616943,-9.77791976928711
1766401371018461000,10.8824609375,-1.6041151285171509,-3.2393548488616943,-9.77791976928711
1766401371028440300,10.8924404296875,-1.161187767982483,-3.976768970489502,-9.215282440185547
1766401371038480400,10.90248046875,-1.290474772453308,-2.425326347351074,-9.44752025604248
1766401371048490200,10.912490234375,-0.8571242094039917,-3.4524388313293457,-9.545681953430176
1766401371078580500,10.94258056640625,-0.8236053586006165,-2.250549554824829,-9.514557838439941
1766401371088590300,10.95259033203125,-0.2968810200691223,-3.0382418632507324,-9.732429504394531
1766401371098600200,10.96260009765625,0.3280056416988373,-3.2968156337738037,-9.5624418258667
1766401371108609800,10.97260986328125,0.004788403399288654,-2.0805611610412598,-9.840168952941895
1766401371118650000,10.982650146484374,-0.43335050344467163,-1.900996208190918,-9.674968719482422
1766401371138669600,11.002669677734374,1.259350061416626,-2.3104045391082764,-9.536105155944824
1766401371148679400,11.012679443359374,1.699883222579956,-3.2537200450897217,-9.370905876159668
1766401371158689300,11.022689208984374,1.2737152576446533,-2.3247697353363037,-9.397241592407227
1766401371188718600,11.052718505859374,0.11013327538967133,-3.773261785507202,-9.718064308166504
1766401371198759000,11.062759033203125,0.47405192255973816,-1.7860745191574097,-9.78989028930664
1766401371208768500,11.0727685546875,0.4644751250743866,-0.8140285611152649,-10.18493366241455
1766401371218778400,11.0827783203125,0.24420857429504395,-3.5745432376861572,-9.409213066101074
1766401371228788000,11.0927880859375,1.2042834758758545,-3.6367924213409424,-8.834604263305664
1766401371238828300,11.102828369140624,1.5682021379470825,-1.7262194156646729,-9.832986831665039
1766401371248868600,11.11286865234375,0.9313444495201111,-1.4317326545715332,-9.962273597717285
1766401371258878500,11.12287841796875,0.586579442024231,-0.6847416758537292,-10.093954086303711
1766401371288938200,11.152938232421874,0.7613561153411865,-0.26096799969673157,-10.093954086303711
1766401371298948000,11.162947998046874,0.8212111592292786,-2.1811177730560303,-9.959878921508789
1766401371308957700,11.172957763671874,1.1228805780410767,-0.07422025501728058,-9.81143856048584
1766401371318967600,11.182967529296874,2.1954829692840576,-1.316810965538025,-9.964667320251465
1766401371328977400,11.192977294921874,1.625662922859192,-1.5418659448623657,-9.823410034179688
1766401371339017500,11.203017578125,1.4437036514282227,-1.036689281463623,-9.780313491821289
1766401371349057800,11.213057861328124,1.434126853942871,0.3519476354122162,-9.694122314453125
1766401371359067600,11.223067626953124,1.9847931861877441,0.6536170840263367,-10.093954086303711
1766401371389097000,11.253096923828124,2.123656988143921,0.828393816947937,-10.11550235748291
1766401371399137300,11.26313720703125,2.1308395862579346,2.0590133666992188,-10.527304649353027
1766401371409177600,11.273177490234374,1.1755530834197998,2.360682964324951,-10.062829971313477
1766401371419187200,11.283187255859374,1.3503297567367554,-2.63362193107605,-9.660603523254395
1766401371429227500,11.2932275390625,1.5945383310317993,-2.650381326675415,-8.882488250732422
1766401371439267800,11.303267822265624,2.008735179901123,-0.9648633003234863,-9.493009567260742
1766401371449308200,11.31330810546875,0.2585737705230713,0.47884035110473633,-10.350133895874023
1766401371459379000,11.32337890625,-0.5363011956214905,2.434903144836426,-11.051634788513184
1766401371469358000,11.333358154296874,0.27054479718208313,1.2401964664459229,-10.046070098876953
1766401371509397200,11.373397216796874,2.9041666984558105,-1.7693150043487549,-9.184157371520996
1766401371519437600,11.3834375,2.940079689025879,-0.6584054827690125,-10.067618370056152
1766401371529447200,11.393447265625,1.6496049165725708,-0.33518823981285095,-10.512939453125
1766401371539457000,11.40345703125,0.7015010714530945,0.2849099934101105,-10.448296546936035
1766401371549467000,11.413466796875,1.3623007535934448,-1.381454348564148,-9.773131370544434
1766401371569486300,11.433486328125,2.121262788772583,-1.556231141090393,-9.725247383117676
1766401371579496200,11.44349609375,2.3247697353363037,-5.461174011230469,-8.336610794067383
1766401371599515600,11.463515625,3.4093432426452637,-1.1659762859344482,-9.93354320526123
1766401371609525500,11.473525390625,0.9169792532920837,0.9840168952941895,-10.20648193359375
1766401371619535000,11.48353515625,1.05105459690094,1.4077905416488647,-10.982203483581543
1766401371629575400,11.493575439453124,0.7948749661445618,0.8188169598579407,-10.345345497131348
1766401371639615700,11.50361572265625,0.7733271718025208,0.05746084079146385,-10.606313705444336
1766401371649625600,11.51362548828125,1.821987509727478,-1.922544002532959,-8.93037223815918
1766401371659635200,11.52363525390625,3.3255462646484375,-3.093308687210083,-8.571242332458496
1766401371669614600,11.533614501953124,3.2968156337738037,-1.7597382068634033,-9.679757118225098
1766401371679655000,11.543655029296875,2.762908697128296,-1.5514427423477173,-9.670180320739746
1766401371719693800,11.58369384765625,0.44532153010368347,-0.33279404044151306,-10.342951774597168
1766401371729734100,11.593734130859374,1.3000515699386597,-1.0414776802062988,-9.880870819091797
1766401371739744000,11.603743896484374,3.0119056701660156,-1.0965443849563599,-9.01895809173584
1766401371749753600,11.613753662109374,3.0119056701660156,-1.0965443849563599,-9.01895809173584
1766401371759763500,11.623763427734374,3.531447410583496,-1.9608511924743652,-9.727641105651855
1766401371769773300,11.633773193359374,2.1045033931732178,-0.950498104095459,-9.361329078674316
1766401371779783000,11.643782958984374,2.8347349166870117,-1.8148049116134644,-9.50737476348877
1766401371789823200,11.6538232421875,2.0446481704711914,-0.8068459630012512,-10.014945983886719
1766401371839902700,11.70390283203125,2.4468741416931152,-3.8307228088378906,-8.762778282165527
1766401371849942800,11.71394287109375,2.9233202934265137,-0.7254431247711182,-9.696516990661621
1766401371859983000,11.723983154296874,3.0789434909820557,-0.26575639843940735,-10.180145263671875
1766401371870023400,11.7340234375,2.2146365642547607,-0.11252748221158981,-10.268731117248535
1766401371879972000,11.74397216796875,0.9433154463768005,0.42856210470199585,-10.503362655639648
1766401371910001400,11.77400146484375,2.4444799423217773,-3.9839515686035156,-8.480262756347656
1766401371930021000,11.794021240234375,3.064578056335449,0.47644615173339844,-10.158597946166992
1766401371940030700,11.80403076171875,1.699883222579956,0.646434485912323,-10.608707427978516
1766401371950071000,11.814071044921874,1.9129672050476074,-0.16998831927776337,-10.120290756225586
1766401371960081000,11.824080810546874,2.0877439975738525,-1.0749965906143188,-9.555258750915527
1766401371970090500,11.834090576171874,2.118868589401245,-3.069366693496704,-9.157821655273438
1766401371980100400,11.844100341796874,1.4077905416488647,-1.8291701078414917,-9.62947940826416
1766401372010129700,11.874129638671874,0.5650315880775452,0.1843535304069519,-10.41956615447998
1766401372050199300,11.91419921875,2.3343467712402344,0.2059013396501541,-10.216058731079102
1766401372060209000,11.924208984375,1.1300631761550903,-0.933738648891449,-10.249577522277832
1766401372070218800,11.93421875,1.1252747774124146,-2.1140801906585693,-9.172186851501465
1766401372080198000,11.944197998046874,2.0159177780151367,-1.5538369417190552,-9.50498104095459
1766401372090269000,11.95426904296875,2.779668092727661,-0.7829039692878723,-9.852140426635742
1766401372100278500,11.964278564453124,1.5083470344543457,1.3024457693099976,-10.24000072479248
1766401372130307800,11.994307861328124,1.2449848651885986,-0.3974374830722809,-9.919178009033203
1766401372140348200,12.00434814453125,2.7748796939849854,-1.335964560508728,-9.653421401977539
1766401372150388500,12.014388427734374,2.449268341064453,0.17238251864910126,-10.093954086303711
1766401372160337200,12.024337158203124,1.9369091987609863,-0.9145850539207458,-9.765948295593262
1766401372170377500,12.03437744140625,1.5155296325683594,-2.341529369354248,-9.725247383117676
1766401372180387300,12.04438720703125,1.7094600200653076,-1.2210428714752197,-9.80904483795166
1766401372190397000,12.05439697265625,1.9393033981323242,-0.6272808313369751,-10.019734382629395
1766401372220456700,12.084456787109374,1.4963760375976562,-1.5849615335464478,-9.96945571899414
1766401372250516700,12.114516845703125,1.8195933103561401,0.26815059781074524,-9.880870819091797
1766401372260526300,12.1245263671875,1.558625340461731,-1.4389152526855469,-9.832986831665039
1766401372270566700,12.134566650390624,1.335964560508728,-0.9552865028381348,-9.667786598205566
1766401372280576500,12.144576416015624,2.4899697303771973,-0.8738836050033569,-9.768342971801758
1766401372290616800,12.154616943359375,2.2888567447662354,0.272938996553421,-9.768342971801758
1766401372300626400,12.16462646484375,2.099714994430542,0.1149216815829277,-9.8784761428833
1766401372320676600,12.184676513671874,1.3335703611373901,-1.5131354331970215,-9.751583099365234
1766401372330686200,12.194686279296874,1.4963760375976562,-1.7549498081207275,-9.481039047241211
1766401372340696000,12.204696044921874,1.5179238319396973,-1.8746598958969116,-9.569623947143555
1766401372350736400,12.214736328125,1.9177556037902832,0.26336219906806946,-10.225635528564453
1766401372360746000,12.22474609375,0.8523358106613159,2.070984363555908,-10.345345497131348
1766401372370786300,12.234786376953124,2.0231003761291504,0.6009446382522583,-10.129867553710938
1766401372380796200,12.244796142578124,2.655169725418091,-0.9074024558067322,-9.804255485534668
1766401372400815600,12.264815673828124,2.3798365592956543,-0.33039984107017517,-9.68694019317627
1766401372410825500,12.274825439453124,1.8076223134994507,-0.38067805767059326,-9.734824180603027
1766401372430845000,12.294844970703124,2.0638017654418945,0.3016694188117981,-9.921571731567383
1766401372440854800,12.304854736328124,1.9129672050476074,-0.0933738648891449,-9.921571731567383
1766401372450864400,12.314864501953124,1.9919757843017578,0.5985504388809204,-9.775525093078613
1766401372460904700,12.32490478515625,1.9919757843017578,0.5985504388809204,-9.775525093078613
1766401372470914600,12.33491455078125,2.1140801906585693,0.35913026332855225,-10.108319282531738
1766401372480924400,12.34492431640625,2.6240451335906982,1.3024457693099976,-10.002974510192871
1766401372490964700,12.35496484375,2.2649147510528564,0.7876923680305481,-10.072406768798828
1766401372501004800,12.3650048828125,2.0398597717285156,-0.5482721924781799,-9.75637149810791
1766401372511014700,12.3750146484375,1.7070658206939697,-0.7326257228851318,-9.746794700622559
1766401372541074400,12.405074462890624,2.2649147510528564,0.8307880163192749,-10.08437728881836
1766401372551084300,12.415084228515624,2.607285737991333,-0.40462008118629456,-9.986215591430664
1766401372561094000,12.425093994140624,2.2864625453948975,0.5386953949928284,-10.031704902648926
1766401372571134200,12.43513427734375,2.367865562438965,0.14604631066322327,-9.792284965515137
1766401372581144000,12.44514404296875,1.8938134908676147,-1.173158884048462,-9.516951560974121
1766401372591154000,12.45515380859375,1.522712230682373,-1.0007762908935547,-9.890447616577148
1766401372601163500,12.46516357421875,1.5753847360610962,0.304063618183136,-10.218452453613281
1766401372611173400,12.47517333984375,1.2186486721038818,0.44771572947502136,-10.089165687561035
1766401372621183200,12.485183349609375,0.790086567401886,-0.7469909191131592,-9.44752025604248
1766401372651243000,12.515242919921874,2.319981336593628,-0.629675030708313,-10.216058731079102
1766401372661283300,12.525283447265625,2.0925323963165283,-0.10773907601833344,-9.93593692779541
1766401372671323400,12.535323486328124,1.5203180313110352,-0.11971008777618408,-10.345345497131348
1766401372681333200,12.545333251953124,1.5538369417190552,2.2026655673980713,-9.636661529541016
1766401372691343000,12.555343017578124,1.3120225667953491,0.9552865028381348,-10.072406768798828
1766401372701383400,12.565383544921875,0.646434485912323,0.8259995579719543,-10.096348762512207
1766401372711393000,12.57539306640625,0.5602431893348694,-0.5363011956214905,-9.821015357971191
1766401372721403000,12.58540283203125,-0.07182604819536209,-2.274491548538208,-9.730035781860352
1766401372751493000,12.6154931640625,0.9888052940368652,1.414973258972168,-9.854534149169922
1766401372761503000,12.6255029296875,2.75812029838562,0.7781155705451965,-9.605537414550781
1766401372771543300,12.635543212890624,3.098097085952759,0.8906430602073669,-10.043676376342773
1766401372781553000,12.645552978515624,1.9584569931030273,0.6823474764823914,-10.295066833496094
1766401372791562800,12.655562744140624,0.6919242739677429,-2.0039467811584473,-9.821015357971191
1766401372801603000,12.66560302734375,1.1803414821624756,-2.456450939178467,-9.229647636413574
1766401372811613000,12.675613037109375,2.1284453868865967,-2.6024973392486572,-9.926360130310059
1766401372821622500,12.68562255859375,1.987187385559082,0.004788403399288654,-10.357316970825195
1766401372831632400,12.69563232421875,1.482010841369629,0.7038952708244324,-10.359710693359375
1766401372861722600,12.72572265625,0.5171475410461426,-0.6153098344802856,-10.165780067443848
1766401372881803300,12.74580322265625,1.1851298809051514,-3.5625722408294678,-9.227252960205078
1766401372901853200,12.765853271484374,1.5298948287963867,0.05985504388809204,-10.24239444732666
1766401372911893500,12.7758935546875,1.0582371950149536,0.31124621629714966,-10.383652687072754
1766401372921903400,12.7859033203125,0.49559974670410156,0.5482721924781799,-10.42195987701416
1766401372931943700,12.795943603515624,1.8531121015548706,-2.049436569213867,-9.425971984863281
1766401372941953300,12.805953369140624,0.8954314589500427,-0.21547815203666687,-10.053253173828125
1766401372961973000,12.825972900390624,2.319981336593628,-2.293645143508911,-9.93593692779541
1766401372971982600,12.835982666015624,1.7621324062347412,-0.8164227604866028,-9.947908401489258
1766401372981992400,12.845992431640624,0.933738648891449,-2.535459518432617,-9.437943458557129
1766401372992002300,12.856002197265624,-0.035913024097681046,-0.6200982332229614,-9.409213066101074
1766401373002012000,12.866011962890624,1.5179238319396973,-0.912190854549408,-10.532093048095703
1766401373012052200,12.87605224609375,2.185906171798706,-2.892195701599121,-9.337387084960938
1766401373022092500,12.886092529296874,2.008735179901123,-1.8770540952682495,-9.710882186889648
1766401373032102400,12.896102294921874,2.473210334777832,-0.9002198576927185,-9.636661529541016
1766401373042112000,12.906112060546874,2.6144683361053467,-2.9017724990844727,-9.727641105651855
1766401373052121900,12.916121826171874,1.1683704853057861,-1.3527239561080933,-9.670180320739746
1766401373062131700,12.926131591796874,2.1475989818573,-2.7988216876983643,-9.782708168029785
1766401373072171800,12.936171875,0.8786720037460327,-1.0797849893569946,-9.531316757202148
1766401373082181600,12.946181640625,1.2952631711959839,-0.3758896589279175,-10.558429718017578
1766401373092191500,12.95619140625,1.623268723487854,-1.5107412338256836,-9.583989143371582
1766401373102231800,12.966231689453124,2.5665841102600098,-1.9273324012756348,-9.909601211547852
1766401373112241400,12.976241455078124,0.8667010068893433,-2.1092917919158936,-9.892841339111328
1766401373122251300,12.986251220703124,-0.05267243832349777,-0.9768342971801758,-9.749189376831055
1766401373132291600,12.99629150390625,1.113303780555725,-0.5746083855628967,-9.816226959228516
1766401373142332000,13.006331787109374,1.9704279899597168,-1.2856862545013428,-9.885659217834473
1766401373152341500,13.016341552734374,1.53707754611969,-1.6927006244659424,-9.904812812805176
1766401373162351400,13.026351318359374,0.9409212470054626,-1.9608511924743652,-9.639056205749512
1766401373192441600,13.056441650390624,2.47560453414917,-2.315192937850952,-9.854534149169922
1766401373202451500,13.066451416015624,2.47560453414917,-2.315192937850952,-9.854534149169922
1766401373242521000,13.10652099609375,1.745373010635376,-2.123656988143921,-10.017339706420898
1766401373252530700,13.11653076171875,1.0031704902648926,-1.8507179021835327,-9.44991397857666
1766401373272580900,13.136580810546874,-0.5578489899635315,-2.0805611610412598,-9.394847869873047
1766401373282590500,13.146590576171874,0.44532153010368347,-2.0590133666992188,-10.218452453613281
1766401373312742000,13.176741943359374,3.7876269817352295,-1.8770540952682495,-9.332598686218262
1766401373322721300,13.18672119140625,2.5474305152893066,-0.5363011956214905,-9.797073364257812
1766401373332761600,13.19676171875,1.8962076902389526,-2.4803929328918457,-9.53849983215332
1766401373342801700,13.2068017578125,0.751779317855835,-1.9033904075622559,-9.859322547912598
1766401373352811500,13.2168115234375,2.231395959854126,-2.4468741416931152,-9.667786598205566
1766401373412839700,13.276839599609374,1.036689281463623,-1.237802267074585,-10.259154319763184
1766401373432889600,13.2968896484375,0.9816226959228516,-3.758896589279175,-9.313444137573242
1766401373482999600,13.34699951171875,0.7996633648872375,-1.4413094520568848,-9.904812812805176
1766401373493039900,13.357039794921874,1.8962076902389526,-2.7940332889556885,-9.48343276977539
1766401373503049500,13.367049560546874,1.9273324012756348,-3.023876667022705,-9.394847869873047
1766401373513151000,13.37715087890625,2.0470423698425293,-2.671929121017456,-9.555258750915527
1766401373523130000,13.387130126953124,1.8363527059555054,-2.5115175247192383,-9.72285270690918
1766401373533170400,13.39717041015625,1.0462661981582642,-2.341529369354248,-9.68694019317627
1766401373543210800,13.407210693359374,1.8818424940109253,-3.555389642715454,-9.205705642700195
1766401373553251000,13.4172509765625,0.3519476354122162,-2.4899697303771973,-9.651026725769043
1766401373563260700,13.4272607421875,0.08858546614646912,-1.161187767982483,-10.271124839782715
1766401373583280400,13.4472802734375,1.1899182796478271,-2.0877439975738525,-9.93593692779541
1766401373603330300,13.467330322265624,1.8746598958969116,-2.6839001178741455,-9.361329078674316
1766401373613370600,13.47737060546875,0.49320554733276367,-2.1308395862579346,-9.430760383605957
1766401373623411000,13.487410888671874,1.3335703611373901,-2.8419175148010254,-9.77791976928711
1766401373633420500,13.497420654296874,1.213860273361206,-1.0821791887283325,-9.923966407775879
1766401373643430400,13.507430419921874,0.9983820915222168,-2.2026655673980713,-10.06043529510498
1766401373653470700,13.517470703125,0.6272808313369751,-0.7876923680305481,-10.034099578857422
1766401373663511000,13.527510986328124,1.7597382068634033,-1.6927006244659424,-9.622296333312988
1766401373673551400,13.53755126953125,1.0319008827209473,-2.1045033931732178,-9.816226959228516
1766401373683561000,13.54756103515625,0.2944868206977844,-2.367865562438965,-9.500192642211914
1766401373693601300,13.557601318359374,1.1803414821624756,-2.9879636764526367,-9.583989143371582
1766401373703641600,13.5676416015625,1.1540051698684692,-1.9033904075622559,-10.050858497619629
1766401373713682000,13.577681884765624,1.1779472827911377,-1.4628572463989258,-9.691728591918945
1766401373723691800,13.58769189453125,0.5339069962501526,-3.5003228187561035,-9.478644371032715
1766401373733701400,13.597701416015624,1.0127472877502441,-2.693476915359497,-9.670180320739746
1766401373743741700,13.60774169921875,1.0534487962722778,-2.121262788772583,-9.758766174316406
1766401373753782000,13.617781982421874,1.2952631711959839,-2.5905263423919678,-9.825803756713867
1766401373763792000,13.6277919921875,1.048660397529602,-1.4221558570861816,-9.995792388916016
1766401373793851600,13.6578515625,1.7956513166427612,-2.760514497756958,-9.5408935546875
1766401373803861200,13.667861328125,2.3127987384796143,-2.806004285812378,-9.409213066101074
1766401373813901600,13.677901611328124,1.314416766166687,-2.2601263523101807,-9.674968719482422
1766401373823942000,13.68794189453125,1.5849615335464478,-2.2194249629974365,-9.931148529052734
1766401373833951700,13.69795166015625,0.2513911724090576,-2.2433669567108154,-9.5624418258667
1766401373843992000,13.707991943359374,0.7781155705451965,-1.800439715385437,-9.81143856048584
1766401373854001700,13.718001708984374,1.0199298858642578,-1.7549498081207275,-9.792284965515137
1766401373864011500,13.728011474609374,0.5937620401382446,-2.4803929328918457,-9.706093788146973
