time,seconds_elapsed,z,y,x
1766401358187253800,-1.948746337890625,-40.02000045776367,7.739999771118164,-3.9599997997283936
1766401358207303700,-1.9286962890625,-39.23999786376953,8.039999961853027,-3.9599997997283936
1766401358227384300,-1.90861572265625,-39.23999786376953,7.980000019073486,-3.5399999618530273
1766401358237394200,-1.898605712890625,-39.18000030517578,7.5,-3.059999942779541
1766401358247403800,-1.88859619140625,-39.47999954223633,7.319999694824219,-3.4800000190734863
1766401358257413600,-1.87858642578125,-39.540000915527344,7.319999694824219,-3.119999885559082
1766401358267454000,-1.868546142578125,-40.07999801635742,7.37999963760376,-3.299999952316284
1766401358277494300,-1.858505615234375,-40.02000045776367,7.799999713897705,-3.179999828338623
1766401358287504000,-1.84849609375,-40.31999969482422,7.859999656677246,-2.5199999809265137
1766401358297513700,-1.838486328125,-40.13999938964844,7.739999771118164,-2.6399998664855957
1766401358367582000,-1.76841796875,-39.05999755859375,7.919999599456787,-3.7799999713897705
1766401358377591800,-1.758408203125,-39.29999923706055,7.799999713897705,-3.4800000190734863
1766401358387632000,-1.748367919921875,-38.459999084472656,8.220000267028809,-3.240000009536743
1766401358397641700,-1.738358154296875,-38.57999801635742,7.980000019073486,-3.419999837875366
1766401358427793200,-1.708206787109375,-39.959999084472656,7.5,-3.299999952316284
1766401358437803000,-1.698197021484375,-39.119998931884766,7.739999771118164,-3.179999828338623
1766401358447843300,-1.68815673828125,-38.87999725341797,7.440000057220459,-3.179999828338623
1766401358457883600,-1.678116455078125,-38.7599983215332,7.139999866485596,-3.299999952316284
1766401358467893200,-1.668106689453125,-39.36000061035156,6.899999618530273,-3.419999837875366
1766401358477903000,-1.658096923828125,-40.02000045776367,7.079999923706055,-3
1766401358487913000,-1.648087158203125,-39.959999084472656,7.199999809265137,-3.059999942779541
1766401358507932400,-1.628067626953125,-39.23999786376953,7.739999771118164,-2.700000047683716
1766401358537931300,-1.59806884765625,-39.23999786376953,7.199999809265137,-3.119999885559082
1766401358547940900,-1.58805908203125,-39.41999816894531,7.199999809265137,-3.4800000190734863
1766401358557920300,-1.578079833984375,-39.89999771118164,7.5,-3.419999837875366
1766401358567929900,-1.568070068359375,-40.13999938964844,7.859999656677246,-3.179999828338623
1766401358577939700,-1.558060302734375,-39.89999771118164,7.37999963760376,-3.4800000190734863
1766401358587949600,-1.548050537109375,-40.07999801635742,7.679999828338623,-3.240000009536743
1766401358597959200,-1.538040771484375,-39.779998779296875,7.319999694824219,-3.419999837875366
1766401358607969000,-1.528031005859375,-40.55999755859375,7.5,-3.299999952316284
1766401358617948200,-1.5180517578125,-41.63999938964844,7.019999980926514,-3.8399999141693115
1766401358648008200,-1.48799169921875,-41.459999084472656,7.739999771118164,-3.7799999713897705
1766401358658017800,-1.477982177734375,-41.87999725341797,8.279999732971191,-2.93999981880188
1766401358668027600,-1.467972412109375,-41.459999084472656,7.559999942779541,-2.879999876022339
1766401358678037200,-1.457962646484375,-41.7599983215332,7.199999809265137,-3.179999828338623
1766401358688047000,-1.447952880859375,-41.81999969482422,7.559999942779541,-2.819999933242798
1766401358698057000,-1.437943115234375,-41.21999740600586,7.559999942779541,-2.93999981880188
1766401358708066600,-1.427933349609375,-41.939998626708984,8.34000015258789,-2.700000047683716
1766401358718076400,-1.417923583984375,-42.05999755859375,7.739999771118164,-2.759999990463257
1766401358748166700,-1.387833251953125,-41.279998779296875,7.559999942779541,-2.93999981880188
1766401358758176500,-1.377823486328125,-41.34000015258789,7.980000019073486,-2.759999990463257
1766401358768186400,-1.367813720703125,-41.70000076293945,7.799999713897705,-3.059999942779541
1766401358778226700,-1.357773193359375,-41.34000015258789,7.37999963760376,-2.2200000286102295
1766401358788266800,-1.347733154296875,-41.57999801635742,8.039999961853027,-1.7999999523162842
1766401358798276600,-1.337723388671875,-41.34000015258789,8.220000267028809,-1.7400000095367432
1766401358808317000,-1.32768310546875,-40.439998626708984,8.279999732971191,-1.7400000095367432
1766401358818326800,-1.317673095703125,-40.20000076293945,8.34000015258789,-3.119999885559082
1766401358858365700,-1.27763427734375,-41.63999938964844,8.34000015258789,-2.4600000381469727
1766401358868375600,-1.26762451171875,-40.68000030517578,8.15999984741211,-2.0399999618530273
1766401358878385200,-1.25761474609375,-40.68000030517578,7.559999942779541,-2.759999990463257
1766401358888395000,-1.24760498046875,-40.91999816894531,7.559999942779541,-2.5199999809265137
1766401358898374400,-1.23762548828125,-40.68000030517578,7.859999656677246,-2.3999998569488525
1766401358908384000,-1.227615966796875,-41.39999771118164,7.919999599456787,-2.4600000381469727
1766401358918424300,-1.21757568359375,-42.18000030517578,8.279999732971191,-2.6399998664855957
1766401358948484000,-1.187515869140625,-41.939998626708984,7.559999942779541,-3.4800000190734863
1766401358968503600,-1.167496337890625,-40.79999923706055,7.739999771118164,-2.5199999809265137
1766401358998532900,-1.137467041015625,-38.70000076293945,7.919999599456787,-2.6399998664855957
1766401359018583000,-1.1174169921875,-39.959999084472656,8.15999984741211,-3.7799999713897705
1766401359028593000,-1.107406982421875,-41.099998474121094,8.09999942779541,-3.7200000286102295
1766401359038602500,-1.0973974609375,-41.34000015258789,8.519999504089355,-3.119999885559082
1766401359068693000,-1.06730712890625,-39.23999786376953,7.319999694824219,-2.4600000381469727
1766401359078702600,-1.05729736328125,-38.70000076293945,7.139999866485596,-2.6399998664855957
1766401359088712400,-1.04728759765625,-38.34000015258789,7.440000057220459,-3.4800000190734863
1766401359108793000,-1.02720703125,-39,7.440000057220459,-2.879999876022339
1766401359118802700,-1.017197265625,-39.65999984741211,7.559999942779541,-2.879999876022339
1766401359128812500,-1.0071875,-39.959999084472656,7.619999885559082,-2.5799999237060547
1766401359138883300,-0.99711669921875,-40.97999954223633,8.399999618530273,-2.3999998569488525
1766401359168912600,-0.96708740234375,-40.86000061035156,8.399999618530273,-3.179999828338623
1766401359188932000,-0.94706787109375,-39.65999984741211,7.259999752044678,-3.4800000190734863
1766401359219022600,-0.916977294921875,-40.31999969482422,6.359999656677246,-3.179999828338623
1766401359229032200,-0.9069677734375,-39.959999084472656,7.37999963760376,-3.240000009536743
1766401359239042000,-0.8969580078125,-39.89999771118164,7.679999828338623,-3.059999942779541
1766401359339261700,-0.79673828125,-39.779998779296875,7.619999885559082,-3.359999895095825
1766401359369291000,-0.766708984375,-37.73999786376953,8.760000228881836,-3
1766401359379300900,-0.75669921875,-37.68000030517578,8.760000228881836,-2.879999876022339
1766401359389341200,-0.746658935546875,-38.279998779296875,8.819999694824219,-2.4600000381469727
1766401359399350800,-0.736649169921875,-38.279998779296875,8.819999694824219,-2.4600000381469727
1766401359409360600,-0.726639404296875,-38.57999801635742,8.639999389648438,-3.059999942779541
1766401359419401000,-0.71659912109375,-39.05999755859375,8.09999942779541,-2.879999876022339
1766401359429410600,-0.70658935546875,-38.279998779296875,8.039999961853027,-2.93999981880188
1766401359439420400,-0.69657958984375,-38.099998474121094,8.039999961853027,-2.3999998569488525
1766401359449430300,-0.68656982421875,-37.20000076293945,7.859999656677246,-2.4600000381469727
1766401359459439900,-0.67656005859375,-37.13999938964844,7.739999771118164,-2.5199999809265137
1766401359479490000,-0.656510009765625,-38.7599983215332,7.5,-3.179999828338623
1766401359489530400,-0.6464697265625,-39.84000015258789,7.440000057220459,-3.359999895095825
1766401359499540000,-0.6364599609375,-40.619998931884766,7.37999963760376,-3.7799999713897705
1766401359509549800,-0.6264501953125,-40.5,7.259999752044678,-4.199999809265137
1766401359519559700,-0.6164404296875,-40.68000030517578,7.199999809265137,-3.8999998569488525
1766401359529569300,-0.6064306640625,-40.31999969482422,7.619999885559082,-4.079999923706055
1766401359539579100,-0.5964208984375,-39.599998474121094,7.559999942779541,-3.7200000286102295
1766401359549589000,-0.586410888671875,-39.540000915527344,7.259999752044678,-2.93999981880188
1766401359559598600,-0.5764013671875,-38.7599983215332,7.37999963760376,-3.059999942779541
1766401359589628000,-0.5463720703125,-39.36000061035156,8.220000267028809,-3.240000009536743
1766401359599668200,-0.536331787109375,-39.540000915527344,7.919999599456787,-3.299999952316284
1766401359609708500,-0.52629150390625,-40.439998626708984,8.09999942779541,-3.5399999618530273
1766401359619718100,-0.51628173828125,-40.31999969482422,7.859999656677246,-3.6599998474121094
1766401359629697500,-0.506302490234375,-40.13999938964844,8.039999961853027,-3.8999998569488525
1766401359639768300,-0.496231689453125,-40.2599983215332,8.220000267028809,-3.8999998569488525
1766401359649778200,-0.486221923828125,-39.84000015258789,7.679999828338623,-4.139999866485596
1766401359659757300,-0.47624267578125,-39.599998474121094,7.440000057220459,-3.6599998474121094
1766401359669767200,-0.46623291015625,-39.71999740600586,7.079999923706055,-3.7200000286102295
1766401359709836800,-0.4261630859375,-41.52000045776367,8.039999961853027,-3.5399999618530273
1766401359719846400,-0.416153564453125,-41.099998474121094,8.34000015258789,-3.5999999046325684
1766401359729856300,-0.406143798828125,-41.040000915527344,7.980000019073486,-3.8399999141693115
1766401359739865900,-0.396134033203125,-41.040000915527344,8.09999942779541,-3.5999999046325684
1766401359749906200,-0.38609375,-41.459999084472656,7.980000019073486,-3.240000009536743
1766401359759916000,-0.376083984375,-41.39999771118164,8.039999961853027,-3.4800000190734863
1766401359769926000,-0.36607421875,-41.099998474121094,7.319999694824219,-3.5399999618530273
1766401359789975800,-0.346024169921875,-41.21999740600586,7.37999963760376,-4.440000057220459
1766401359799985700,-0.336014404296875,-41.21999740600586,7.559999942779541,-4.319999694824219
1766401359809995300,-0.326004638671875,-41.15999984741211,8.34000015258789,-3.9599997997283936
1766401359820005000,-0.315994873046875,-40.619998931884766,8.639999389648438,-4.139999866485596
1766401359830045400,-0.30595458984375,-40.13999938964844,8.220000267028809,-3.6599998474121094
1766401359840055300,-0.29594482421875,-40.07999801635742,7.559999942779541,-3.4800000190734863
1766401359850065000,-0.28593505859375,-40.13999938964844,6.839999675750732,-4.019999980926514
1766401359860074800,-0.27592529296875,-40.439998626708984,6.960000038146973,-3.8999998569488525
1766401359870115000,-0.265885009765625,-41.099998474121094,6.71999979019165,-3.4800000190734863
1766401359920133400,-0.21586669921875,-38.21999740600586,7.559999942779541,-2.759999990463257
1766401359930143000,-0.20585693359375,-38.81999969482422,7.37999963760376,-2.5799999237060547
1766401359940152800,-0.19584716796875,-39.18000030517578,6.899999618530273,-3.059999942779541
1766401359950162700,-0.18583740234375,-39.959999084472656,7.259999752044678,-3
1766401359960203000,-0.175796875,-40.73999786376953,7.5,-3.359999895095825
1766401359970212600,-0.165787353515625,-41.21999740600586,7.5,-3.7799999713897705
1766401360000242000,-0.135758056640625,-40.02000045776367,7.859999656677246,-3.240000009536743
1766401360010251800,-0.125748291015625,-39.05999755859375,7.679999828338623,-2.93999981880188
1766401360020231000,-0.11576904296875,-39.119998931884766,7.37999963760376,-2.819999933242798
1766401360030240800,-0.10575927734375,-39.18000030517578,6.960000038146973,-3.5999999046325684
1766401360040250600,-0.095749267578125,-40.02000045776367,7.679999828338623,-3.059999942779541
1766401360050290700,-0.085709228515625,-41.040000915527344,7.919999599456787,-3.359999895095825
1766401360070310400,-0.065689697265625,-40.439998626708984,7.859999656677246,-2.700000047683716
1766401360080350700,-0.055649169921875,-39.89999771118164,7.199999809265137,-2.759999990463257
1766401360120389600,-0.0156103515625,-42.18000030517578,7.980000019073486,-2.4600000381469727
1766401360130399500,-0.0056005859375,-41.34000015258789,7.679999828338623,-1.8600000143051147
1766401360140378600,0.004378662109375,-41.279998779296875,7.559999942779541,-1.5
1766401360150388500,0.014388427734375,-41.279998779296875,8.09999942779541,-2.0999999046325684
1766401360160398000,0.024398193359375,-41.21999740600586,8.399999618530273,-2.759999990463257
1766401360170408000,0.034407958984375,-40.68000030517578,7.919999599456787,-3.179999828338623
1766401360180417800,0.044417724609375,-39.89999771118164,7.919999599456787,-3.299999952316284
1766401360200467700,0.0644677734375,-38.63999938964844,7.199999809265137,-2.3999998569488525
1766401360210477600,0.0744775390625,-39.29999923706055,7.319999694824219,-2.819999933242798
1766401360220487400,0.0844873046875,-39.959999084472656,7.440000057220459,-3
1766401360230497000,0.0944970703125,-39.65999984741211,7.859999656677246,-2.819999933242798
1766401360240507000,0.1045068359375,-40.02000045776367,8.039999961853027,-2.759999990463257
1766401360250516700,0.114516845703125,-40.13999938964844,8.399999618530273,-2.2799999713897705
1766401360260526300,0.1245263671875,-40.02000045776367,8.34000015258789,-2.3399999141693115
1766401360270536200,0.1345361328125,-40.619998931884766,8.519999504089355,-2.4600000381469727
1766401360280515300,0.144515380859375,-40.73999786376953,8.880000114440918,-2.93999981880188
1766401360290555600,0.1545556640625,-40.13999938964844,8.9399995803833,-2.700000047683716
1766401360300565500,0.1645654296875,-39.36000061035156,8.639999389648438,-2.759999990463257
1766401360340696000,0.204696044921875,-39.119998931884766,7.440000057220459,-3
1766401360360776700,0.224776611328125,-40.31999969482422,7.37999963760376,-4.199999809265137
1766401360370786300,0.234786376953125,-40.07999801635742,6.960000038146973,-4.380000114440918
1766401360380796200,0.244796142578125,-39.89999771118164,7.5,-3.5999999046325684
1766401360390806000,0.254805908203125,-39.41999816894531,7.679999828338623,-3.179999828338623
1766401360420865800,0.28486572265625,-38.87999725341797,7.559999942779541,-3.240000009536743
1766401360430875400,0.29487548828125,-39.540000915527344,7.199999809265137,-3.7200000286102295
1766401360440915700,0.304915771484375,-39.959999084472656,6.899999618530273,-3.7200000286102295
1766401360450925600,0.314925537109375,-40.619998931884766,6.899999618530273,-4.139999866485596
1766401360460935400,0.324935302734375,-40.73999786376953,6.599999904632568,-4.440000057220459
1766401360470914600,0.33491455078125,-40.79999923706055,6.539999961853027,-4.619999885559082
1766401360480985300,0.3449853515625,-39.84000015258789,6.839999675750732,-4.380000114440918
1766401360490995200,0.3549951171875,-39.29999923706055,7.079999923706055,-4.319999694824219
1766401360501004800,0.3650048828125,-38.70000076293945,7.259999752044678,-3.8399999141693115
1766401360521024500,0.3850244140625,-39.29999923706055,7.679999828338623,-4.920000076293945
1766401360541044000,0.4050439453125,-39.779998779296875,8.579999923706055,-5.21999979019165
1766401360551084300,0.415084228515625,-39.959999084472656,8.819999694824219,-4.619999885559082
1766401360571134200,0.43513427734375,-40.31999969482422,8.399999618530273,-4.739999771118164
1766401360591154000,0.45515380859375,-40.55999755859375,8.09999942779541,-4.980000019073486
1766401360601163500,0.46516357421875,-40.619998931884766,8.220000267028809,-4.559999942779541
1766401360631254000,0.49525390625,-39,8.699999809265137,-3.5999999046325684
1766401360651304000,0.515303955078125,-39.29999923706055,7.739999771118164,-4.679999828338623
1766401360661313800,0.525313720703125,-39.29999923706055,7.739999771118164,-4.559999942779541
1766401360671354000,0.53535400390625,-39.36000061035156,7.980000019073486,-5.339999675750732
1766401360681363700,0.54536376953125,-39.29999923706055,8.699999809265137,-4.920000076293945
1766401360691404000,0.555404052734375,-39.29999923706055,8.699999809265137,-4.920000076293945
1766401360701414000,0.565413818359375,-39.959999084472656,8.460000038146973,-4.859999656677246
1766401360711423500,0.575423583984375,-40.02000045776367,7.679999828338623,-4.799999713897705
1766401360731443200,0.595443115234375,-40.37999725341797,7.679999828338623,-4.5
1766401360751462700,0.615462646484375,-40.97999954223633,8.34000015258789,-4.440000057220459
1766401360761472500,0.625472412109375,-40.619998931884766,7.980000019073486,-4.259999752044678
1766401360771482000,0.635482177734375,-40.439998626708984,8.039999961853027,-4.380000114440918
1766401360781492000,0.645491943359375,-38.939998626708984,8.039999961853027,-3.8399999141693115
1766401360791501800,0.655501708984375,-37.86000061035156,7.619999885559082,-3.9599997997283936
1766401360801511400,0.665511474609375,-37.31999969482422,8.220000267028809,-4.079999923706055
1766401360811551700,0.6755517578125,-37.68000030517578,8.460000038146973,-3.8999998569488525
1766401360831602000,0.695601806640625,-39.23999786376953,9.239999771118164,-4.199999809265137
1766401360841611500,0.705611572265625,-40.07999801635742,8.9399995803833,-4.380000114440918
1766401360851682300,0.715682373046875,-39.71999740600586,9.239999771118164,-4.859999656677246
1766401360861692200,0.725692138671875,-39.65999984741211,9.059999465942383,-5.279999732971191
1766401360871732500,0.735732421875,-39.65999984741211,8.9399995803833,-5.099999904632568
1766401360881742000,0.7457421875,-39.18000030517578,9.239999771118164,-5.400000095367432
1766401360901731300,0.7657314453125,-38.21999740600586,9.59999942779541,-5.279999732971191
1766401360911741000,0.775740966796875,-38.7599983215332,10.019999504089355,-5.460000038146973
1766401360941770200,0.805770263671875,-39.119998931884766,11.9399995803833,-4.380000114440918
1766401360951810600,0.815810546875,-38.279998779296875,12.179999351501465,-3.7799999713897705
1766401360961851000,0.825850830078125,-37.07999801635742,12.59999942779541,-4.199999809265137
1766401360981870300,0.845870361328125,-36.71999740600586,13.799999237060547,-4.199999809265137
1766401361001889800,0.865889892578125,-36.71999740600586,15.719999313354492,-4.980000019073486
1766401361011899600,0.875899658203125,-37.79999923706055,16.079999923706055,-5.159999847412109
1766401361021879000,0.885879150390625,-37.68000030517578,15.960000038146973,-5.21999979019165
1766401361061918000,0.92591796875,-37.07999801635742,15.839999198913574,-5.21999979019165
1766401361071927800,0.935927734375,-36.84000015258789,16.440000534057617,-5.099999904632568
1766401361081968000,0.945968017578125,-36.65999984741211,16.85999870300293,-4.859999656677246
1766401361091977700,0.955977783203125,-36.959999084472656,16.799999237060547,-5.639999866485596
1766401361101987600,0.965987548828125,-36.540000915527344,17.03999900817871,-5.159999847412109
1766401361122037500,0.98603759765625,-35.63999938964844,16.739999771118164,-5.519999980926514
1766401361152066800,1.01606689453125,-34.73999786376953,16.440000534057617,-5.940000057220459
1766401361162107100,1.026107177734375,-35.099998474121094,16.260000228881836,-5.759999752044678
1766401361172117000,1.036116943359375,-35.099998474121094,16.5,-5.87999963760376
1766401361182126600,1.046126708984375,-35.099998474121094,16.85999870300293,-5.87999963760376
1766401361192136400,1.056136474609375,-36,17.399999618530273,-5.940000057220459
1766401361202146300,1.066146240234375,-35.939998626708984,17.8799991607666,-6.119999885559082
1766401361212156000,1.076156005859375,-36.05999755859375,17.639999389648438,-5.819999694824219
1766401361222165800,1.086165771484375,-35.52000045776367,17.760000228881836,-6.119999885559082
1766401361232175600,1.096175537109375,-35.57999801635742,17.69999885559082,-6.059999942779541
1766401361272245200,1.136245361328125,-34.619998931884766,19.020000457763672,-5.460000038146973
1766401361282194000,1.14619384765625,-34.5,19.020000457763672,-6.059999942779541
1766401361292234200,1.156234130859375,-34.02000045776367,19.619998931884766,-6.539999961853027
1766401361302243800,1.166243896484375,-33.71999740600586,20.100000381469727,-6.599999904632568
1766401361312223200,1.17622314453125,-33.71999740600586,19.85999870300293,-7.440000057220459
1766401361332273200,1.196273193359375,-34.79999923706055,19.799999237060547,-6.899999618530273
1766401361352323300,1.2163232421875,-33.779998779296875,19.139999389648438,-6.779999732971191
1766401361372342800,1.2363427734375,-32.34000015258789,20.03999900817871,-7.139999866485596
1766401361382352600,1.2463525390625,-31.67999839782715,20.760000228881836,-7.079999923706055
1766401361392362200,1.2563623046875,-30.17999839782715,21,-6.599999904632568
1766401361402341600,1.266341552734375,-28.979999542236328,21,-6.539999961853027
1766401361412382000,1.2763818359375,-28.559999465942383,21.600000381469727,-6.420000076293945
1766401361422391600,1.2863916015625,-28.260000228881836,22.139999389648438,-6.480000019073486
1766401361432401400,1.2964013671875,-28.139999389648438,22.85999870300293,-7.079999923706055
1766401361442441700,1.306441650390625,-28.31999969482422,23.69999885559082,-7.139999866485596
1766401361482541800,1.346541748046875,-23.939998626708984,24.65999984741211,-6.839999675750732
1766401361492551400,1.356551513671875,-23.15999984741211,25.559999465942383,-6.779999732971191
1766401361502500400,1.366500244140625,-22.85999870300293,26.219999313354492,-6.659999847412109
1766401361512479500,1.3764794921875,-23.15999984741211,26.579999923706055,-6.960000038146973
1766401361522519800,1.386519775390625,-22.85999870300293,26.81999969482422,-7.019999980926514
1766401361532529700,1.39652978515625,-22.799999237060547,27.53999900817871,-6.480000019073486
1766401361542539300,1.406539306640625,-21.18000030517578,27.719999313354492,-6.359999656677246
1766401361552518700,1.4165185546875,-19.619998931884766,27.35999870300293,-6.299999713897705
1766401361572599000,1.43659912109375,-16.739999771118164,27.779998779296875,-6.539999961853027
1766401361582609000,1.44660888671875,-16.559999465942383,28.01999855041504,-6.599999904632568
1766401361592649200,1.456649169921875,-16.5,29.099998474121094,-6.119999885559082
1766401361602659000,1.4666591796875,-16.079999923706055,29.15999984741211,-6.239999771118164
1766401361612699100,1.47669921875,-16.31999969482422,29.51999855041504,-6.119999885559082
1766401361622709000,1.486708984375,-15.239999771118164,30.059999465942383,-5.339999675750732
1766401361632718800,1.49671875,-14.75999927520752,30.239999771118164,-5.460000038146973
1766401361642789600,1.50678955078125,-14.579999923706055,30.899999618530273,-4.920000076293945
1766401361652799200,1.51679931640625,-13.859999656677246,30.65999984741211,-5.039999961853027
1766401361672788200,1.536788330078125,-12.239999771118164,31.01999855041504,-3.6599998474121094
1766401361682828500,1.54682861328125,-11.279999732971191,31.19999885559082,-3.5999999046325684
1766401361692838400,1.55683837890625,-10.5,31.85999870300293,-2.6399998664855957
1766401361712857900,1.57685791015625,-9.65999984741211,31.5,-2.4600000381469727
1766401361722898200,1.586898193359375,-9.420000076293945,32.15999984741211,-1.559999942779541
1766401361732908000,1.596907958984375,-9.84000015258789,32.21999740600586,-0.8999999761581421
1766401361742917600,1.606917724609375,-9.84000015258789,33.23999786376953,-0.11999999731779099
1766401361752927500,1.616927490234375,-9.59999942779541,32.939998626708984,-0.05999999865889549
1766401361782987300,1.6469873046875,-7.919999599456787,33.47999954223633,2.5199999809265137
1766401361803037400,1.667037353515625,-6.179999828338623,33.41999816894531,4.799999713897705
1766401361813047000,1.677047119140625,-6.239999771118164,33.41999816894531,5.460000038146973
1766401361823057000,1.687056884765625,-5.400000095367432,33,6.239999771118164
1766401361843106800,1.70710693359375,-4.259999752044678,33.23999786376953,7.739999771118164
1766401361853116700,1.71711669921875,-4.380000114440918,32.7599983215332,8.579999923706055
1766401361883146000,1.74714599609375,-4.139999866485596,32.7599983215332,11.039999961853027
1766401361893155800,1.75715576171875,-3.059999942779541,32.279998779296875,11.399999618530273
1766401361903165400,1.76716552734375,-2.5199999809265137,31.799999237060547,12.539999961853027
1766401361913175300,1.77717529296875,-2.700000047683716,31.079999923706055,13.139999389648438
1766401361923215600,1.787215576171875,-3.6599998474121094,31.079999923706055,13.739999771118164
1766401361933256000,1.797255859375,-4.079999923706055,31.01999855041504,14.34000015258789
1766401361943265500,1.807265625,-4.559999942779541,30.779998779296875,14.279999732971191
1766401361953275400,1.817275390625,-3.8399999141693115,31.19999885559082,15.299999237060547
1766401361963285200,1.82728515625,-3.8399999141693115,31.19999885559082,16.020000457763672
1766401361993314600,1.857314453125,-4.199999809265137,30.479999542236328,18
1766401362003324200,1.86732421875,-4.019999980926514,30.299999237060547,18.65999984741211
1766401362013334000,1.877333984375,-3.299999952316284,30.53999900817871,19.3799991607666
1766401362023343900,1.88734375,-3.5399999618530273,30.479999542236328,20.34000015258789
1766401362033353500,1.897353515625,-4.559999942779541,30.479999542236328,20.459999084472656
1766401362043393800,1.907393798828125,-5.159999847412109,29.81999969482422,20.760000228881836
1766401362063413200,1.927413330078125,-7.079999923706055,29.459999084472656,21.65999984741211
1766401362073392600,1.937392578125,-7.559999942779541,28.739999771118164,22.3799991607666
1766401362113431600,1.977431640625,-7.019999980926514,27.65999984741211,24.65999984741211
1766401362123472000,1.987471923828125,-6.839999675750732,27.239999771118164,25.260000228881836
1766401362133481700,1.997481689453125,-7.079999923706055,26.03999900817871,25.079999923706055
1766401362143491600,2.00749169921875,-8.34000015258789,25.979999542236328,25.559999465942383
1766401362153470700,2.017470703125,-9.420000076293945,25.85999870300293,25.799999237060547
1766401362163511000,2.027510986328125,-10.559999465942383,25.439998626708984,26.03999900817871
1766401362173520600,2.037520751953125,-11.460000038146973,25.739999771118164,27.119998931884766
1766401362203580700,2.06758056640625,-10.4399995803833,24.18000030517578,27.53999900817871
1766401362213620700,2.077620849609375,-10.380000114440918,23.939998626708984,27.53999900817871
1766401362223630600,2.087630615234375,-11.279999732971191,24.18000030517578,28.619998931884766
1766401362233640400,2.097640380859375,-10.739999771118164,23.81999969482422,28.619998931884766
1766401362243650000,2.107650146484375,-10.979999542236328,23.15999984741211,29.219999313354492
1766401362253690400,2.1176904296875,-10.559999465942383,23.100000381469727,29.639999389648438
1766401362263639300,2.127639404296875,-10.079999923706055,22.85999870300293,30
1766401362273679400,2.137679443359375,-10.859999656677246,23.03999900817871,30.479999542236328
1766401362283689200,2.147689208984375,-11.399999618530273,23.34000015258789,30.35999870300293
1766401362333799200,2.197799072265625,-11.039999961853027,21.239999771118164,30.35999870300293
1766401362343808800,2.207808837890625,-11.639999389648438,21.35999870300293,30.479999542236328
1766401362353879600,2.217879638671875,-12.119999885559082,21.239999771118164,29.760000228881836
1766401362363889400,2.227889404296875,-12.65999984741211,21.18000030517578,28.979999542236328
1766401362373899300,2.237899169921875,-13.559999465942383,21.959999084472656,28.739999771118164
1766401362383908900,2.247908935546875,-12.84000015258789,22.139999389648438,28.260000228881836
1766401362393918700,2.257918701171875,-13.139999389648438,21.959999084472656,27.899999618530273
1766401362433958000,2.2979580078125,-15.539999961853027,22.439998626708984,28.3799991607666
1766401362443967500,2.307967529296875,-15.239999771118164,22.260000228881836,27.899999618530273
1766401362453947000,2.31794677734375,-15.59999942779541,21.719999313354492,28.19999885559082
1766401362463956500,2.32795654296875,-16.079999923706055,21.420000076293945,27.959999084472656
1766401362473966300,2.33796630859375,-15.719999313354492,21.35999870300293,27.65999984741211
1766401362483976200,2.34797607421875,-15.899999618530273,21.479999542236328,27.299999237060547
1766401362493985800,2.35798583984375,-15.899999618530273,22.020000457763672,26.939998626708984
1766401362503995600,2.36799560546875,-16.079999923706055,22.260000228881836,27.059999465942383
1766401362544065300,2.408065185546875,-19.020000457763672,22.85999870300293,25.979999542236328
1766401362554075000,2.418074951171875,-18.719999313354492,21.959999084472656,25.439998626708984
1766401362564084700,2.428084716796875,-18.719999313354492,21.239999771118164,25.3799991607666
1766401362574094600,2.438094482421875,-18.479999542236328,21.059999465942383,25.439998626708984
1766401362584104200,2.448104248046875,-17.940000534057617,20.69999885559082,25.739999771118164
1766401362594114000,2.458114013671875,-18.779998779296875,21.239999771118164,26.399999618530273
1766401362604154400,2.468154296875,-20.15999984741211,21.239999771118164,26.69999885559082
1766401362644224000,2.50822412109375,-20.8799991607666,21.119998931884766,25.979999542236328
1766401362654233600,2.518233642578125,-21,20.520000457763672,25.68000030517578
1766401362664243500,2.528243408203125,-21.119998931884766,20.15999984741211,25.920000076293945
1766401362674283800,2.53828369140625,-21.059999465942383,20.03999900817871,25.979999542236328
1766401362684293400,2.54829345703125,-20.8799991607666,19.920000076293945,26.279998779296875
1766401362694364200,2.5583642578125,-21.899999618530273,19.85999870300293,26.34000015258789
1766401362704343600,2.568343505859375,-22.260000228881836,20.15999984741211,25.979999542236328
1766401362714353200,2.578353271484375,-22.439998626708984,19.979999542236328,25.799999237060547
1766401362754392300,2.618392333984375,-21.84000015258789,18.239999771118164,25.31999969482422
1766401362764402200,2.628402099609375,-22.619998931884766,18.299999237060547,25.5
1766401362774411800,2.638411865234375,-23.459999084472656,18.479999542236328,25.920000076293945
1766401362784421600,2.648421630859375,-24.899999618530273,18.53999900817871,25.68000030517578
1766401362794431500,2.658431396484375,-25.079999923706055,18.65999984741211,25.739999771118164
1766401362804441000,2.668441162109375,-25.3799991607666,18.719999313354492,25.979999542236328
1766401362814451000,2.678450927734375,-26.03999900817871,18.420000076293945,26.51999855041504
1766401362834470400,2.698470458984375,-26.81999969482422,18.119998931884766,27.239999771118164
1766401362874479000,2.73847900390625,-25.139999389648438,18,28.739999771118164
1766401362884519400,2.74851953125,-25.85999870300293,17.81999969482422,28.439998626708984
1766401362894529000,2.758529052734375,-25.439998626708984,17.459999084472656,28.439998626708984
1766401362904539000,2.768538818359375,-26.279998779296875,17.34000015258789,28.559999465942383
1766401362914609700,2.778609619140625,-25.920000076293945,17.34000015258789,27.599998474121094
1766401362944639000,2.808638916015625,-27.420000076293945,18.119998931884766,28.139999389648438
1766401362954648600,2.818648681640625,-27.479999542236328,18.299999237060547,29.03999900817871
1766401362964658400,2.828658447265625,-26.69999885559082,18.53999900817871,29.399999618530273
1766401362974668300,2.838668212890625,-25.979999542236328,18.65999984741211,30.35999870300293
1766401362994718200,2.85871826171875,-25.31999969482422,18.65999984741211,30.53999900817871
1766401363004728000,2.86872802734375,-25.68000030517578,17.8799991607666,30.719999313354492
1766401363014738000,2.878738037109375,-26.099998474121094,17.279998779296875,30.17999839782715
1766401363044736500,2.908736572265625,-26.15999984741211,16.079999923706055,30.420000076293945
1766401363054746400,2.918746337890625,-26.34000015258789,16.5,30.53999900817871
1766401363064756200,2.928756103515625,-26.279998779296875,16.619998931884766,30.65999984741211
1766401363074796300,2.93879638671875,-26.579999923706055,16.979999542236328,30.719999313354492
1766401363084836600,2.948836669921875,-26.099998474121094,17.579999923706055,30.959999084472656
1766401363094846500,2.958846435546875,-25.439998626708984,17.03999900817871,31.079999923706055
1766401363104856300,2.968856201171875,-25.01999855041504,17.100000381469727,31.19999885559082
1766401363114866000,2.978865966796875,-25.139999389648438,16.85999870300293,30.959999084472656
1766401363124875800,2.988875732421875,-25.979999542236328,16.5,30.84000015258789
1766401363134885600,2.9988857421875,-26.34000015258789,15.839999198913574,30.65999984741211
1766401363164884200,3.02888427734375,-26.399999618530273,16.020000457763672,30.17999839782715
1766401363184904000,3.048904052734375,-25.3799991607666,16.68000030517578,30.420000076293945
1766401363194913500,3.05891357421875,-25.3799991607666,17.03999900817871,30.53999900817871
1766401363204923400,3.06892333984375,-24.420000076293945,16.619998931884766,29.939998626708984
1766401363214933000,3.07893310546875,-23.34000015258789,17.03999900817871,30.119998931884766
1766401363224912400,3.088912353515625,-22.799999237060547,17.279998779296875,30
1766401363234952700,3.09895263671875,-23.15999984741211,16.619998931884766,29.639999389648438
1766401363255002600,3.119002685546875,-25.260000228881836,16.799999237060547,28.979999542236328
1766401363264982000,3.12898193359375,-26.15999984741211,16.68000030517578,28.68000030517578
1766401363274991600,3.13899169921875,-26.03999900817871,16.619998931884766,28.920000076293945
1766401363285032000,3.149031982421875,-26.219999313354492,16.31999969482422,28.31999969482422
1766401363295041800,3.159041748046875,-25.5,16.19999885559082,28.5
1766401363305021000,3.16902099609375,-25.079999923706055,16.139999389648438,28.739999771118164
1766401363315030800,3.17903076171875,-24.18000030517578,16.440000534057617,28.559999465942383
1766401363325071000,3.189071044921875,-23.100000381469727,15.420000076293945,28.68000030517578
1766401363335080700,3.199080810546875,-23.81999969482422,15.539999961853027,28.559999465942383
1766401363345090600,3.209090576171875,-24.239999771118164,15.960000038146973,28.260000228881836
1766401363355100400,3.219100341796875,-24.899999618530273,16.020000457763672,28.139999389648438
1766401363385129700,3.249129638671875,-24.479999542236328,16.079999923706055,27.479999542236328
1766401363395200500,3.259200439453125,-23.760000228881836,16.440000534057617,28.01999855041504
1766401363405210000,3.269210205078125,-23.34000015258789,16.260000228881836,27.299999237060547
1766401363415281000,3.279281005859375,-23.34000015258789,16.619998931884766,26.81999969482422
1766401363425290800,3.289290771484375,-23.15999984741211,16.68000030517578,27.35999870300293
1766401363435331000,3.2993310546875,-23.69999885559082,16.19999885559082,27.119998931884766
1766401363445371400,3.309371337890625,-23.939998626708984,16.68000030517578,27.299999237060547
1766401363455381000,3.319381103515625,-24.779998779296875,16.979999542236328,27.53999900817871
1766401363485410300,3.349410400390625,-24.479999542236328,17.459999084472656,27.119998931884766
1766401363495420200,3.359420166015625,-23.34000015258789,17.100000381469727,27.479999542236328
1766401363505430000,3.369429931640625,-22.5,17.520000457763672,27.119998931884766
1766401363515439600,3.379439697265625,-21.959999084472656,17.34000015258789,27
1766401363525449500,3.389449462890625,-23.279998779296875,16.85999870300293,26.81999969482422
1766401363535459300,3.399459228515625,-23.939998626708984,16.920000076293945,26.34000015258789
1766401363545438500,3.4094384765625,-24.53999900817871,16.559999465942383,26.399999618530273
1766401363555448300,3.4194482421875,-25.01999855041504,16.799999237060547,26.579999923706055
1766401363565488600,3.429488525390625,-24.18000030517578,17.579999923706055,26.760000228881836
1766401363585508000,3.449508056640625,-23.939998626708984,18.299999237060547,26.939998626708984
1766401363595518000,3.45951806640625,-23.8799991607666,18.119998931884766,27
1766401363605527600,3.469527587890625,-24.299999237060547,17.8799991607666,26.760000228881836
1766401363615568000,3.47956787109375,-23.69999885559082,17.520000457763672,26.639999389648438
1766401363625577700,3.48957763671875,-23.219999313354492,17.279998779296875,26.219999313354492
1766401363635587300,3.49958740234375,-22.619998931884766,17.279998779296875,26.15999984741211
1766401363645566700,3.509566650390625,-21.479999542236328,17.219999313354492,26.399999618530273
1766401363655607000,3.51960693359375,-22.3799991607666,17.100000381469727,26.399999618530273
1766401363665616600,3.52961669921875,-22.920000076293945,16.979999542236328,26.69999885559082
1766401363705686300,3.569686279296875,-22.68000030517578,17.34000015258789,26.399999618530273
1766401363715757000,3.579757080078125,-22.31999969482422,18.18000030517578,26.939998626708984
1766401363725767000,3.589766845703125,-21.479999542236328,18,26.8799991607666
1766401363735776500,3.599776611328125,-22.5,18.059999465942383,26.03999900817871
1766401363755796200,3.619796142578125,-23.15999984741211,18.719999313354492,26.099998474121094
1766401363805906000,3.669906005859375,-21.420000076293945,19.3799991607666,25.619998931884766
1766401363825925600,3.689925537109375,-22.079999923706055,19.5,25.739999771118164
1766401363835935200,3.699935302734375,-22.31999969482422,19.079999923706055,25.5
1766401363845975600,3.7099755859375,-22.020000457763672,19.559999465942383,26.51999855041504
1766401363855985400,3.7199853515625,-21.719999313354492,19.979999542236328,27.059999465942383
1766401363865964500,3.729964599609375,-20.8799991607666,19.799999237060547,26.760000228881836
1766401363876004900,3.7400048828125,-20.760000228881836,19.31999969482422,26.81999969482422
1766401363896055000,3.760054931640625,-21.239999771118164,19.139999389648438,25.739999771118164
1766401363906034200,3.7700341796875,-21.779998779296875,19.19999885559082,25.85999870300293
1766401363916044000,3.7800439453125,-22.260000228881836,19.799999237060547,26.03999900817871
1766401363926053600,3.7900537109375,-22.260000228881836,19.260000228881836,25.3799991607666
1766401363936094000,3.800093994140625,-21.779998779296875,19.079999923706055,25.799999237060547
1766401363946073300,3.8100732421875,-20.760000228881836,19.68000030517578,26.099998474121094
1766401363956113400,3.820113525390625,-20.760000228881836,19.260000228881836,25.85999870300293
1766401363966123300,3.830123291015625,-20.639999389648438,19.920000076293945,26.459999084472656
1766401363976133000,3.840133056640625,-20.81999969482422,19.5,27.119998931884766
1766401363986142700,3.850142822265625,-21.779998779296875,19.439998626708984,26.639999389648438
1766401364006193000,3.87019287109375,-21.600000381469727,20.459999084472656,26.03999900817871
1766401364036191700,3.900191650390625,-21.119998931884766,20.579999923706055,25.68000030517578
1766401364046201300,3.910201416015625,-20.03999900817871,20.520000457763672,25.799999237060547
1766401364056211200,3.920211181640625,-18.959999084472656,20.760000228881836,25.68000030517578
1766401364066221000,3.930220947265625,-18.84000015258789,21.53999900817871,25.68000030517578
1766401364076261000,3.94026123046875,-18.84000015258789,21.600000381469727,25.619998931884766
1766401364086301400,3.950301513671875,-19.799999237060547,22.079999923706055,25.619998931884766
1766401364116330800,3.980330810546875,-20.219999313354492,21.059999465942383,25.01999855041504
1766401364126340600,3.990340576171875,-19.31999969482422,20.69999885559082,24.65999984741211
1766401364136350500,4.0003505859375,-19.139999389648438,20.579999923706055,24.059999465942383
1766401364146360000,4.010360107421875,-18.479999542236328,19.85999870300293,24.420000076293945
1766401364156370000,4.020369873046875,-18,18.899999618530273,24.779998779296875
1766401364166379500,4.030379638671875,-18.059999465942383,18.600000381469727,24.719999313354492
1766401364176419800,4.040419921875,-18.420000076293945,19.619998931884766,25.260000228881836
1766401364186399200,4.050399169921875,-19.19999885559082,20.34000015258789,25.260000228881836
1766401364196408800,4.060408935546875,-19.979999542236328,20.760000228881836,24.959999084472656
1766401364216428500,4.080428466796875,-20.34000015258789,19.920000076293945,24.84000015258789
1766401364256437000,4.12043701171875,-18.479999542236328,19.5,24.420000076293945
1766401364266446800,4.13044677734375,-18.53999900817871,19.020000457763672,24.059999465942383
1766401364276487200,4.140487060546875,-18.959999084472656,18.899999618530273,23.51999855041504
1766401364286496800,4.150496826171875,-19.799999237060547,18.719999313354492,23.639999389648438
1766401364296537000,4.160537109375,-20.15999984741211,19.5,24.239999771118164
1766401364326566400,4.19056640625,-20.639999389648438,19.799999237060547,23.69999885559082
1766401364336576300,4.200576171875,-20.399999618530273,19.559999465942383,24.239999771118164
1766401364346585900,4.2105859375,-20.34000015258789,19.19999885559082,23.51999855041504
1766401364356595700,4.220595703125,-20.279998779296875,19.19999885559082,23.8799991607666
1766401364366605600,4.23060546875,-19.85999870300293,19.3799991607666,24
1766401364386625000,4.250625,-18.18000030517578,20.279998779296875,23.69999885559082
1766401364396635000,4.260634765625,-17.69999885559082,20.639999389648438,23.81999969482422
1766401364426664200,4.290664306640625,-18.35999870300293,21,23.219999313354492
1766401364436673800,4.300673828125,-18.779998779296875,21.239999771118164,22.979999542236328
1766401364446683600,4.31068359375,-19.68000030517578,21.53999900817871,22.85999870300293
1766401364456693200,4.320693359375,-19.260000228881836,21.719999313354492,23.15999984741211
1766401364476743400,4.340743408203125,-17.69999885559082,21.479999542236328,23.03999900817871
1766401364486783700,4.35078369140625,-17.579999923706055,21.959999084472656,23.279998779296875
1766401364496793300,4.36079345703125,-17.81999969482422,21.779998779296875,22.979999542236328
1766401364506772700,4.370772705078125,-19.439998626708984,21.53999900817871,22.260000228881836
1766401364536863000,4.400863037109375,-18.53999900817871,20.760000228881836,22.5
1766401364546872800,4.410872802734375,-17.8799991607666,20.399999618530273,22.31999969482422
1766401364556913200,4.4209130859375,-18.35999870300293,20.459999084472656,22.68000030517578
1766401364566922800,4.4309228515625,-18.84000015258789,20.69999885559082,23.459999084472656
1766401364576932600,4.4409326171875,-19.020000457763672,21.53999900817871,23.81999969482422
1766401364586942500,4.4509423828125,-18.719999313354492,21.779998779296875,24.53999900817871
1766401364596952000,4.4609521484375,-18.53999900817871,21.719999313354492,24.84000015258789
1766401364606992400,4.470992431640625,-18.35999870300293,21.53999900817871,24.420000076293945
1766401364617002200,4.481002197265625,-18.600000381469727,21.059999465942383,24.18000030517578
1766401364637052200,4.50105224609375,-18,21,24.119998931884766
1766401364647062000,4.51106201171875,-17.760000228881836,21.119998931884766,24.299999237060547
1766401364657071900,4.52107177734375,-16.85999870300293,21,24.479999542236328
1766401364667081500,4.53108154296875,-15.899999618530273,20.69999885559082,24.84000015258789
1766401364677121800,4.541121826171875,-15.65999984741211,21.059999465942383,25.31999969482422
1766401364687131600,4.551131591796875,-15.719999313354492,20.939998626708984,25.5
1766401364697172000,4.561171875,-16.440000534057617,20.760000228881836,25.3799991607666
1766401364707181600,4.571181640625,-17.03999900817871,21.35999870300293,25.799999237060547
1766401364717222000,4.581221923828125,-17.219999313354492,21.059999465942383,26.03999900817871
1766401364737241300,4.601241455078125,-15.839999198913574,22.68000030517578,27.53999900817871
1766401364757230600,4.621230712890625,-14.399999618530273,23.279998779296875,27.35999870300293
1766401364767270700,4.631270751953125,-14.34000015258789,22.3799991607666,26.69999885559082
1766401364777280500,4.641280517578125,-14.09999942779541,22.3799991607666,26.459999084472656
1766401364787290400,4.651290283203125,-14.15999984741211,22.5,26.579999923706055
1766401364797300000,4.661300048828125,-14.039999961853027,22.139999389648438,26.8799991607666
1766401364807340300,4.67134033203125,-14.460000038146973,22.139999389648438,27.53999900817871
1766401364827390500,4.691390380859375,-14.039999961853027,22.020000457763672,28.139999389648438
1766401364887479600,4.7514794921875,-10.380000114440918,22.920000076293945,26.81999969482422
1766401364897489200,4.7614892578125,-11.399999618530273,23.279998779296875,25.979999542236328
1766401364907499000,4.7714990234375,-12.119999885559082,24.119998931884766,25.5
1766401364917539300,4.781539306640625,-13.25999927520752,25.01999855041504,25.260000228881836
1766401364927549200,4.791549072265625,-13.799999237060547,26.219999313354492,24.65999984741211
1766401364947599000,4.81159912109375,-13.319999694824219,27.65999984741211,22.439998626708984
1766401364957639400,4.821639404296875,-13.019999504089355,28.439998626708984,20.760000228881836
1766401364967649300,4.831649169921875,-13.079999923706055,29.219999313354492,19.920000076293945
1766401364977659000,4.841658935546875,-13.139999389648438,30.420000076293945,18.479999542236328
1766401364987668700,4.851668701171875,-12.65999984741211,31.139999389648438,17.399999618530273
1766401364997678600,4.8616787109375,-12.59999942779541,31.85999870300293,15.960000038146973
1766401365007718700,4.87171875,-11.699999809265137,32.459999084472656,14.639999389648438
1766401365017728500,4.881728515625,-11.460000038146973,33,12.84000015258789
1766401365027738400,4.89173828125,-11.34000015258789,32.880001068115234,11.09999942779541
1766401365037778700,4.90177880859375,-11.460000038146973,32.880001068115234,9.779999732971191
1766401365067838500,4.93183837890625,-13.25999927520752,33.41999816894531,4.980000019073486
1766401365087858000,4.95185791015625,-12.479999542236328,34.619998931884766,1.9199999570846558
1766401365097867800,4.96186767578125,-11.819999694824219,34.439998626708984,0.6599999666213989
1766401365107847000,4.971846923828125,-12.239999771118164,34.5,-1.0799999237060547
1766401365117856800,4.981856689453125,-12.899999618530273,33.779998779296875,-3
1766401365127866400,4.991866455078125,-13.199999809265137,32.939998626708984,-5.159999847412109
1766401365137876200,5.001876220703125,-13.559999465942383,32.52000045776367,-7.139999866485596
1766401365147886000,5.011885986328125,-13.559999465942383,31.85999870300293,-8.819999694824219
1766401365177945900,5.04194580078125,-12.899999618530273,29.760000228881836,-12.719999313354492
1766401365187955500,5.05195556640625,-13.4399995803833,28.85999870300293,-14.279999732971191
1766401365197965300,5.06196533203125,-14.34000015258789,28.260000228881836,-15.719999313354492
1766401365208005600,5.072005615234375,-15.299999237060547,27,-17.459999084472656
1766401365218015500,5.082015380859375,-15.119999885559082,25.920000076293945,-18.65999984741211
1766401365228025000,5.092025146484375,-14.639999389648438,24.600000381469727,-19.68000030517578
1766401365248105700,5.112105712890625,-14.579999923706055,22.799999237060547,-21.65999984741211
1766401365288145000,5.152144775390625,-15.479999542236328,17.34000015258789,-27.479999542236328
1766401365298185000,5.16218505859375,-15.119999885559082,16.020000457763672,-28.31999969482422
1766401365308194800,5.17219482421875,-15.059999465942383,14.75999927520752,-28.5
1766401365318204700,5.18220458984375,-15.539999961853027,13.319999694824219,-29.279998779296875
1766401365328214300,5.19221435546875,-16.3799991607666,11.699999809265137,-29.8799991607666
1766401365338224000,5.20222412109375,-17.459999084472656,10.260000228881836,-30.65999984741211
1766401365348234000,5.21223388671875,-17.639999389648438,9,-31.19999885559082
1766401365388242400,5.252242431640625,-17.15999984741211,3.059999942779541,-32.70000076293945
1766401365398252300,5.262252197265625,-16.979999542236328,1.7400000095367432,-32.7599983215332
1766401365408292600,5.272292724609375,-16.799999237060547,0.8399999737739563,-32.939998626708984
1766401365418302200,5.28230224609375,-16.440000534057617,-0.23999999463558197,-32.21999740600586
1766401365428312000,5.29231201171875,-16.19999885559082,-1.4399999380111694,-32.880001068115234
1766401365438352400,5.302352294921875,-15.839999198913574,-2.879999876022339,-33
1766401365448362000,5.312362060546875,-15.65999984741211,-3.5999999046325684,-32.939998626708984
1766401365458402300,5.32240234375,-16.139999389648438,-4.440000057220459,-33.36000061035156
1766401365488462000,5.352462158203125,-16.619998931884766,-5.87999963760376,-34.02000045776367
1766401365498441500,5.36244140625,-16.739999771118164,-6.239999771118164,-34.619998931884766
1766401365508451000,5.372451171875,-16.440000534057617,-6.960000038146973,-34.31999969482422
1766401365518461000,5.3824609375,-16.31999969482422,-7.079999923706055,-34.07999801635742
1766401365528531700,5.39253173828125,-16.5,-7.5,-34.2599983215332
1766401365538541600,5.40254150390625,-16.739999771118164,-7.619999885559082,-34.20000076293945
1766401365548459800,5.412459716796875,-17.279998779296875,-7.199999809265137,-34.13999938964844
1766401365558500000,5.4225,-16.559999465942383,-7.37999963760376,-34.07999801635742
1766401365568509700,5.432509765625,-16.440000534057617,-7.559999942779541,-34.20000076293945
1766401365578519600,5.44251953125,-15.839999198913574,-7.319999694824219,-33.71999740600586
1766401365588529400,5.452529296875,-15.839999198913574,-7.619999885559082,-33.84000015258789
1766401365598539000,5.4625390625,-16.68000030517578,-7.319999694824219,-34.31999969482422
1766401365608548900,5.472548828125,-16.739999771118164,-6.659999847412109,-33.959999084472656
1766401365618558700,5.482558837890625,-16.5,-6.71999979019165,-33.71999740600586
1766401365628568300,5.492568359375,-15.960000038146973,-6.839999675750732,-33.47999954223633
1766401365638578200,5.502578125,-15.539999961853027,-6.659999847412109,-32.880001068115234
1766401365648587800,5.512587890625,-15.299999237060547,-6.659999847412109,-33
1766401365658628000,5.522628173828125,-16.079999923706055,-6.599999904632568,-33.41999816894531
1766401365668607500,5.532607421875,-16.440000534057617,-5.87999963760376,-33.29999923706055
1766401365688657400,5.552657470703125,-16.85999870300293,-6.359999656677246,-34.2599983215332
1766401365698697700,5.56269775390625,-15.960000038146973,-5.940000057220459,-34.13999938964844
1766401365708707600,5.57270751953125,-15.059999465942383,-5.87999963760376,-34.439998626708984
1766401365718717200,5.58271728515625,-14.519999504089355,-5.400000095367432,-34.07999801635742
1766401365728757500,5.592757568359375,-14.75999927520752,-5.039999961853027,-33.84000015258789
1766401365738767400,5.602767333984375,-15.359999656677246,-5.039999961853027,-33.89999771118164
1766401365748746500,5.61274658203125,-16.260000228881836,-4.799999713897705,-34.31999969482422
1766401365768766200,5.63276611328125,-16.31999969482422,-3.8399999141693115,-34.20000076293945
1766401365798764800,5.662764892578125,-15.420000076293945,-3.299999952316284,-33.41999816894531
1766401365808805000,5.67280517578125,-15.239999771118164,-3.179999828338623,-33.84000015258789
1766401365818784500,5.682784423828125,-15.059999465942383,-2.5199999809265137,-34.13999938964844
1766401365828794000,5.692794189453125,-14.819999694824219,-2.3999998569488525,-34.380001068115234
1766401365838834400,5.70283447265625,-14.34000015258789,-2.1599998474121094,-34.380001068115234
1766401365848844300,5.71284423828125,-14.880000114440918,-1.7999999523162842,-34.380001068115234
1766401365868863700,5.73286376953125,-15.719999313354492,-1.4399999380111694,-33.71999740600586
1766401365908933400,5.772933349609375,-14.699999809265137,0.35999998450279236,-33.29999923706055
1766401365918943200,5.782943115234375,-14.219999313354492,1.1999999284744263,-32.81999969482422
1766401365928952800,5.792952880859375,-13.920000076293945,1.4399999380111694,-33.05999755859375
1766401365938962700,5.802962646484375,-14.460000038146973,2.819999933242798,-32.880001068115234
1766401365948972500,5.81297265625,-15.479999542236328,3.7799999713897705,-32.459999084472656
1766401365958982100,5.822982177734375,-15.719999313354492,4.139999866485596,-32.57999801635742
1766401365968992000,5.832991943359375,-16.3799991607666,5.400000095367432,-32.099998474121094
1766401365979001600,5.843001708984375,-16.079999923706055,5.579999923706055,-31.559999465942383
1766401365999021300,5.863021240234375,-16.139999389648438,6.539999961853027,-31.5
1766401366009031000,5.873031005859375,-16.139999389648438,7.799999713897705,-31.559999465942383
1766401366019040800,5.883040771484375,-16.85999870300293,8.819999694824219,-31.559999465942383
1766401366029050600,5.893050537109375,-17.279998779296875,9.84000015258789,-30.959999084472656
1766401366039060200,5.903060302734375,-17.760000228881836,10.619999885559082,-29.579999923706055
1766401366049070000,5.913070068359375,-18.299999237060547,11.34000015258789,-28.139999389648438
1766401366059080000,5.923079833984375,-18.119998931884766,12.179999351501465,-26.939998626708984
1766401366069089500,5.933089599609375,-17.69999885559082,13.739999771118164,-26.099998474121094
1766401366079129900,5.9431298828125,-17.69999885559082,15,-26.099998474121094
1766401366129178600,5.9931787109375,-21.239999771118164,20.939998626708984,-21.53999900817871
1766401366139188500,6.0031884765625,-22.139999389648438,21.959999084472656,-20.459999084472656
1766401366149198300,6.0131982421875,-23.100000381469727,22.079999923706055,-19.260000228881836
1766401366159208000,6.0232080078125,-23.579999923706055,22.19999885559082,-18.35999870300293
1766401366169248300,6.033248291015625,-23.8799991607666,22.739999771118164,-16.5
1766401366179258000,6.043258056640625,-23.639999389648438,22.439998626708984,-14.579999923706055
1766401366189237200,6.0532373046875,-23.579999923706055,23.219999313354492,-13.079999923706055
1766401366199247000,6.0632470703125,-24.84000015258789,23.579999923706055,-10.859999656677246
1766401366239316700,6.103316650390625,-29.399999618530273,24.119998931884766,-4.139999866485596
1766401366249387500,6.113387451171875,-29.81999969482422,23.219999313354492,-3.059999942779541
1766401366259397000,6.123397216796875,-30,23.579999923706055,-1.9799998998641968
1766401366269407000,6.133406982421875,-30.299999237060547,24,0.47999998927116394
1766401366279416800,6.143416748046875,-30.239999771118164,23.69999885559082,2.2200000286102295
1766401366289426400,6.153426513671875,-30.899999618530273,24.299999237060547,4.859999656677246
1766401366309476600,6.1734765625,-29.579999923706055,22.920000076293945,8.15999984741211
1766401366319486500,6.183486572265625,-28.739999771118164,22.439998626708984,10.079999923706055
1766401366329557200,6.19355712890625,-27.53999900817871,21.84000015258789,11.34000015258789
1766401366339566800,6.20356689453125,-28.3799991607666,21.420000076293945,12.779999732971191
1766401366349576700,6.21357666015625,-28.559999465942383,21.35999870300293,13.559999465942383
1766401366359617000,6.223616943359375,-28.68000030517578,22.020000457763672,14.279999732971191
1766401366369626600,6.233626708984375,-28.139999389648438,21.600000381469727,15.479999542236328
1766401366379667000,6.2436669921875,-27.479999542236328,20.69999885559082,16.19999885559082
1766401366389615600,6.25361572265625,-27.239999771118164,19.920000076293945,17.399999618530273
1766401366399656000,6.263656005859375,-26.760000228881836,18.719999313354492,18.959999084472656
1766401366429746400,6.293746337890625,-27.18000030517578,17.639999389648438,22.19999885559082
1766401366449766000,6.313765869140625,-26.8799991607666,16.68000030517578,23.279998779296875
1766401366459775700,6.323775634765625,-26.579999923706055,16.19999885559082,23.639999389648438
1766401366469785300,6.333785400390625,-26.8799991607666,15.779999732971191,23.8799991607666
1766401366479795200,6.343795166015625,-26.459999084472656,15.960000038146973,24.84000015258789
1766401366489805000,6.35380517578125,-25.31999969482422,15.839999198913574,25.85999870300293
1766401366499814700,6.363814697265625,-24.65999984741211,15.059999465942383,26.639999389648438
1766401366519864800,6.38386474609375,-22.19999885559082,13.139999389648438,27.65999984741211
1766401366529874400,6.39387451171875,-22.439998626708984,12.179999351501465,27.959999084472656
1766401366539884300,6.40388427734375,-23.459999084472656,12.179999351501465,28.3799991607666
1766401366549894100,6.41389404296875,-24.239999771118164,11.9399995803833,28.85999870300293
1766401366559873300,6.423873291015625,-24.899999618530273,11.579999923706055,28.3799991607666
1766401366569913600,6.43391357421875,-24.420000076293945,12.119999885559082,28.799999237060547
1766401366579923500,6.44392333984375,-23.34000015258789,11.639999389648438,29.51999855041504
1766401366599943000,6.46394287109375,-22.5,11.819999694824219,30.719999313354492
1766401366609952800,6.473952880859375,-22.85999870300293,10.979999542236328,31.19999885559082
1766401366630002700,6.494002685546875,-21.420000076293945,9.59999942779541,32.040000915527344
1766401366649991700,6.51399169921875,-19.68000030517578,8.819999694824219,32.52000045776367
1766401366660001500,6.52400146484375,-18.779998779296875,8.639999389648438,32.81999969482422
1766401366669980700,6.533980712890625,-18.119998931884766,8.460000038146973,33.05999755859375
1766401366679990500,6.543990478515625,-17.520000457763672,7.859999656677246,33.41999816894531
1766401366690000100,6.554000244140625,-16.3799991607666,7.079999923706055,33.47999954223633
1766401366700010000,6.564010009765625,-17.459999084472656,6.779999732971191,33.71999740600586
1766401366709958700,6.573958740234375,-17.100000381469727,6.179999828338623,34.13999938964844
1766401366719999000,6.5839990234375,-17.34000015258789,5.87999963760376,34.439998626708984
1766401366760038100,6.6240380859375,-15.420000076293945,4.679999828338623,36.65999984741211
1766401366770047700,6.6340478515625,-14.34000015258789,4.019999980926514,37.13999938964844
1766401366780088000,6.644088134765625,-13.4399995803833,3.7799999713897705,36.89999771118164
1766401366790098000,6.654097900390625,-12.539999961853027,3.059999942779541,37.5
1766401366800107800,6.664107666015625,-12.239999771118164,2.3999998569488525,37.5
1766401366810178600,6.674178466796875,-12.420000076293945,1.4399999380111694,37.20000076293945
1766401366820188200,6.684188232421875,-12.960000038146973,0.9599999785423279,37.79999923706055
1766401366840177200,6.70417724609375,-12.300000190734863,-0.11999999731779099,38.099998474121094
1766401366850217500,6.714217529296875,-11.880000114440918,-0.29999998211860657,38.939998626708984
1766401366860227300,6.724227294921875,-11.09999942779541,-0.7799999713897705,39.23999786376953
1766401366870206500,6.73420654296875,-10.380000114440918,-1.7400000095367432,39.779998779296875
1766401366880246800,6.744246826171875,-9.960000038146973,-2.819999933242798,39.540000915527344
1766401366890287000,6.754287109375,-9.359999656677246,-3.5999999046325684,40.13999938964844
1766401366900297000,6.764296875,-9.899999618530273,-4.679999828338623,39.84000015258789
1766401366910276000,6.774276123046875,-10.5,-5.819999694824219,39.05999755859375
1766401366920347000,6.784346923828125,-9.359999656677246,-6.839999675750732,39.119998931884766
1766401366930356700,6.794356689453125,-8.699999809265137,-7.679999828338623,38.87999725341797
1766401366960386000,6.824385986328125,-6.059999942779541,-10.859999656677246,39
1766401366970395600,6.834395751953125,-6,-11.460000038146973,38.52000045776367
1766401366980405500,6.844405517578125,-5.759999752044678,-12.179999351501465,38.459999084472656
1766401366990415400,6.854415283203125,-6.059999942779541,-13.019999504089355,38.15999984741211
1766401367000425000,6.864425048828125,-5.819999694824219,-13.019999504089355,37.79999923706055
1766401367010434800,6.874434814453125,-5.699999809265137,-13.859999656677246,37.68000030517578
1766401367020505600,6.884505615234375,-5.639999866485596,-14.639999389648438,36.599998474121094
1766401367030485000,6.894485107421875,-4.619999885559082,-15.179999351501465,35.57999801635742
1766401367040525000,6.904525146484375,-4.559999942779541,-16.440000534057617,34.68000030517578
1766401367080533800,6.94453369140625,-0.6599999666213989,-18.65999984741211,33.65999984741211
1766401367090543400,6.95454345703125,-1.2599999904632568,-19.5,32.81999969482422
1766401367100614100,6.9646142578125,-1.0199999809265137,-20.15999984741211,31.920000076293945
1766401367110593500,6.974593505859375,-1.1399999856948853,-20.760000228881836,31.619998931884766
1766401367130643500,6.9946435546875,-1.0799999237060547,-21.479999542236328,30.239999771118164
1766401367140653300,7.0046533203125,-1.1999999284744263,-21.84000015258789,30.059999465942383
1766401367150663200,7.0146630859375,-0.5999999642372131,-21.84000015258789,29.459999084472656
1766401367190732800,7.05473291015625,0,-21.65999984741211,30
1766401367200742400,7.064742431640625,-0.5999999642372131,-21.18000030517578,29.760000228881836
1766401367210752300,7.074752197265625,-1.3799999952316284,-21.479999542236328,28.85999870300293
1766401367220761900,7.084761962890625,-1.9199999570846558,-21.119998931884766,29.15999984741211
1766401367230771700,7.094771728515625,-2.5199999809265137,-20.639999389648438,28.799999237060547
1766401367240812000,7.10481201171875,-2.0999999046325684,-21.239999771118164,28.260000228881836
1766401367260862000,7.124862060546875,-2.819999933242798,-21.059999465942383,28.68000030517578
1766401367280912100,7.144912109375,-3.359999895095825,-20.760000228881836,28.619998931884766
1766401367300931600,7.164931640625,-2.3999998569488525,-20.8799991607666,28.559999465942383
1766401367310911000,7.174910888671875,-2.93999981880188,-20.81999969482422,28.31999969482422
1766401367320951300,7.184951416015625,-2.1599998474121094,-20.399999618530273,28.979999542236328
1766401367330961000,7.1949609375,-2.6399998664855957,-20.459999084472656,29.219999313354492
1766401367340970800,7.204970703125,-3.299999952316284,-19.979999542236328,29.219999313354492
1766401367350950000,7.214949951171875,-4.259999752044678,-19.799999237060547,29.69999885559082
1766401367360990200,7.224990234375,-5.279999732971191,-19.85999870300293,29.51999855041504
1766401367401090300,7.26509033203125,-4.319999694824219,-19.020000457763672,31.19999885559082
1766401367411130600,7.275130615234375,-3.419999837875366,-19.020000457763672,30.899999618530273
1766401367431150000,7.295150146484375,-1.1999999284744263,-20.459999084472656,31.19999885559082
1766401367441190400,7.3051904296875,-0.11999999731779099,-21,30.35999870300293
1766401367451200300,7.3152001953125,-1.0199999809265137,-21.479999542236328,30.059999465942383
1766401367461240600,7.325240478515625,-1.7400000095367432,-20.939998626708984,29.939998626708984
1766401367491270000,7.355269775390625,-2.3999998569488525,-19.68000030517578,29.939998626708984
1766401367501279500,7.365279541015625,-1.9799998998641968,-19.979999542236328,30.299999237060547
1766401367511289300,7.375289306640625,-2.1599998474121094,-19.739999771118164,30.239999771118164
1766401367521299200,7.38529931640625,-1.6799999475479126,-19.85999870300293,29.8799991607666
1766401367531339300,7.39533935546875,-2.1599998474121094,-19.920000076293945,30.53999900817871
1766401367541349000,7.40534912109375,-2.0399999618530273,-19.260000228881836,30.420000076293945
1766401367551359000,7.41535888671875,-1.9799998998641968,-19.3799991607666,29.69999885559082
1766401367561399300,7.4253994140625,-1.559999942779541,-19.079999923706055,30.299999237060547
1766401367571409000,7.435408935546875,-1.1399999856948853,-19.139999389648438,29.51999855041504
1766401367591428400,7.455428466796875,-0.35999998450279236,-19.19999885559082,30.119998931884766
1766401367611509000,7.475509033203125,-0.11999999731779099,-18.959999084472656,29.760000228881836
1766401367621549300,7.48554931640625,0.29999998211860657,-19.079999923706055,29.639999389648438
1766401367631498000,7.495498046875,0.9599999785423279,-19.020000457763672,29.399999618530273
1766401367641538300,7.505538330078125,1.8600000143051147,-19.739999771118164,29.939998626708984
1766401367651578600,7.51557861328125,2.6399998664855957,-19.85999870300293,30
1766401367661588500,7.52558837890625,4.079999923706055,-20.100000381469727,30.17999839782715
1766401367671598000,7.53559814453125,5.039999961853027,-19.739999771118164,30
1766401367681638400,7.545638427734375,6,-19.079999923706055,29.69999885559082
1766401367701688600,7.5656884765625,5.639999866485596,-18.35999870300293,29.51999855041504
1766401367711698200,7.5756982421875,5.159999847412109,-18.65999984741211,29.099998474121094
1766401367721738500,7.585738525390625,4.799999713897705,-18.600000381469727,28.799999237060547
1766401367731748400,7.595748291015625,5.279999732971191,-18.779998779296875,28.5
1766401367741788700,7.60578857421875,5.87999963760376,-19.139999389648438,28.979999542236328
1766401367751798300,7.61579833984375,6.71999979019165,-19.139999389648438,29.579999923706055
1766401367761838600,7.625838623046875,7.259999752044678,-19.5,29.81999969482422
1766401367771848400,7.635848388671875,7.679999828338623,-19.68000030517578,29.639999389648438
1766401367791868000,7.655867919921875,8.039999961853027,-19.260000228881836,27.779998779296875
1766401367801908200,7.665908203125,8.039999961853027,-19.559999465942383,27.65999984741211
1766401367811918000,7.67591796875,8.220000267028809,-19.19999885559082,27.719999313354492
1766401367821927700,7.685927734375,7.799999713897705,-18.959999084472656,28.5
1766401367831937500,7.6959375,7.559999942779541,-19.5,28.68000030517578
1766401367841977900,7.705977783203125,7.199999809265137,-18.84000015258789,28.920000076293945
1766401367852018200,7.71601806640625,7.559999942779541,-19.020000457763672,29.099998474121094
1766401367862027800,7.72602783203125,8.09999942779541,-18.959999084472656,28.85999870300293
1766401367882108400,7.7461083984375,9.719999313354492,-19.139999389648438,28.739999771118164
1766401367912198700,7.77619873046875,9.300000190734863,-19.3799991607666,27.239999771118164
1766401367922208500,7.78620849609375,8.9399995803833,-18.899999618530273,26.8799991607666
1766401367932248800,7.796248779296875,8.460000038146973,-19.260000228881836,26.760000228881836
1766401367942289200,7.8062890625,9,-19.439998626708984,26.69999885559082
1766401367952298800,7.816298828125,8.34000015258789,-19.31999969482422,27.119998931884766
1766401367962308600,7.82630859375,8.09999942779541,-19.559999465942383,27.119998931884766
1766401367982389200,7.84638916015625,9.359999656677246,-18.299999237060547,28.619998931884766
1766401368012479500,7.8764794921875,10.199999809265137,-18.059999465942383,28.739999771118164
1766401368022489300,7.8864892578125,9.960000038146973,-18.059999465942383,27.599998474121094
1766401368032468500,7.896468505859375,9.65999984741211,-17.639999389648438,27.779998779296875
1766401368042508800,7.9065087890625,8.639999389648438,-18,27.479999542236328
1766401368052518700,7.9165185546875,9.239999771118164,-18.719999313354492,27.35999870300293
1766401368062528300,7.9265283203125,9.179999351501465,-18.899999618530273,28.3799991607666
1766401368072568600,7.936568603515625,9.779999732971191,-19.19999885559082,28.739999771118164
1766401368082578400,7.946578369140625,11.34000015258789,-19.31999969482422,28.19999885559082
1766401368112607700,7.976607666015625,11.15999984741211,-18.299999237060547,27.959999084472656
1766401368122617300,7.986617431640625,10.199999809265137,-18.35999870300293,28.139999389648438
1766401368132688100,7.996688232421875,9.779999732971191,-18.059999465942383,28.439998626708984
1766401368142698000,8.006697998046874,9.359999656677246,-18.53999900817871,28.19999885559082
1766401368152677400,8.016677490234375,9,-18.479999542236328,28.31999969482422
1766401368162687000,8.02668701171875,8.460000038146973,-17.520000457763672,28.920000076293945
1766401368172727300,8.036727294921874,8.220000267028809,-18.18000030517578,28.5
1766401368182737200,8.046737060546874,8.09999942779541,-17.940000534057617,28.68000030517578
1766401368192746800,8.056746826171874,7.859999656677246,-18.119998931884766,28.799999237060547
1766401368222837200,8.086837158203124,7.5,-18.600000381469727,28.559999465942383
1766401368232846800,8.096846923828124,7.5,-18.35999870300293,28.739999771118164
1766401368242887200,8.10688720703125,7.440000057220459,-18.299999237060547,29.099998474121094
1766401368252927500,8.116927490234374,6.960000038146973,-17.81999969482422,29.399999618530273
1766401368262967800,8.1269677734375,6.960000038146973,-17.15999984741211,29.219999313354492
1766401368272977700,8.136977783203125,7.319999694824219,-17.03999900817871,28.85999870300293
1766401368293058000,8.15705810546875,9.719999313354492,-17.459999084472656,28.739999771118164
1766401368303068000,8.16706787109375,10.079999923706055,-17.459999084472656,29.399999618530273
1766401368313108200,8.177108154296874,9.359999656677246,-17.279998779296875,29.939998626708984
1766401368333127700,8.197127685546874,8.699999809265137,-16.619998931884766,30.35999870300293
1766401368353086200,8.217086181640624,9.719999313354492,-16.920000076293945,29.51999855041504
1766401368363096000,8.227095947265624,10.4399995803833,-17.219999313354492,28.19999885559082
1766401368373105700,8.237105712890624,10.739999771118164,-17.219999313354492,28.079999923706055
1766401368383115500,8.247115478515624,11.639999389648438,-16.619998931884766,28.85999870300293
1766401368393125400,8.25712548828125,11.579999923706055,-17.34000015258789,28.5
1766401368403135000,8.267135009765624,10.619999885559082,-17.34000015258789,28.85999870300293
1766401368413144800,8.277144775390624,10.019999504089355,-16.979999542236328,29.579999923706055
1766401368453214500,8.31721435546875,10.199999809265137,-17.15999984741211,29.51999855041504
1766401368463254500,8.327254638671874,10.920000076293945,-17.639999389648438,29.15999984741211
1766401368483335200,8.347335205078124,9.119999885559082,-18.18000030517578,29.099998474121094
1766401368493345000,8.357344970703124,8.399999618530273,-18.53999900817871,27.959999084472656
1766401368503385300,8.36738525390625,7.319999694824219,-19.139999389648438,27.35999870300293
1766401368513364500,8.377364501953124,8.519999504089355,-18.779998779296875,27.779998779296875
1766401368523404800,8.38740478515625,8.760000228881836,-18.299999237060547,28.31999969482422
1766401368553464600,8.417464599609374,9.059999465942383,-19.31999969482422,28.439998626708984
1766401368563474400,8.427474365234374,8.880000114440918,-19.739999771118164,27.420000076293945
1766401368573484000,8.437484130859374,8.880000114440918,-19.439998626708984,26.760000228881836
1766401368583524400,8.4475244140625,9.119999885559082,-19.799999237060547,26.399999618530273
1766401368593534200,8.4575341796875,9.359999656677246,-19.979999542236328,25.85999870300293
1766401368603544000,8.4675439453125,9.59999942779541,-19.619998931884766,25.85999870300293
1766401368613584100,8.477584228515624,9.899999618530273,-19.799999237060547,25.5
1766401368623594000,8.487593994140624,10.260000228881836,-19.85999870300293,26.219999313354492
1766401368643613400,8.507613525390624,11.880000114440918,-20.459999084472656,26.15999984741211
1766401368673704000,8.537703857421874,12.59999942779541,-20.34000015258789,24.899999618530273
1766401368693784300,8.557784423828124,13.380000114440918,-20.69999885559082,25.439998626708984
1766401368703824600,8.56782470703125,13.019999504089355,-20.760000228881836,25.619998931884766
1766401368713804000,8.577803955078124,12.479999542236328,-20.579999923706055,25.31999969482422
1766401368723844400,8.58784423828125,11.460000038146973,-20.69999885559082,25.559999465942383
1766401368733854000,8.59785400390625,9.779999732971191,-20.639999389648438,25.19999885559082
1766401368753873700,8.617873779296875,10.679999351501465,-20.760000228881836,26.03999900817871
1766401368763913700,8.627913818359374,10.679999351501465,-20.399999618530273,26.51999855041504
1766401368773954000,8.6379541015625,11.219999313354492,-20.15999984741211,27.18000030517578
1766401368783964000,8.6479638671875,10.679999351501465,-20.100000381469727,26.939998626708984
1766401368793973800,8.657973876953125,10.260000228881836,-19.439998626708984,26.69999885559082
1766401368803983400,8.6679833984375,10.079999923706055,-19.19999885559082,26.099998474121094
1766401368814054100,8.67805419921875,9.779999732971191,-19.260000228881836,25.85999870300293
1766401368824064000,8.68806396484375,9.179999351501465,-19.3799991607666,25.920000076293945
1766401368834073900,8.698073974609375,8.039999961853027,-19.619998931884766,26.459999084472656
1766401368874204400,8.738204345703124,7.019999980926514,-19.920000076293945,26.34000015258789
1766401368884244700,8.74824462890625,6.899999618530273,-19.3799991607666,26.579999923706055
1766401368894254300,8.75825439453125,6.960000038146973,-18.719999313354492,26.81999969482422
1766401368904264200,8.76826416015625,7.37999963760376,-18.779998779296875,27.299999237060547
1766401368914274000,8.778274169921875,6.960000038146973,-18.18000030517578,27.420000076293945
1766401368924283600,8.78828369140625,6.960000038146973,-18.420000076293945,26.8799991607666
1766401368934324000,8.798323974609374,6.779999732971191,-18.959999084472656,27.239999771118164
1766401368974363100,8.838363037109374,6.299999713897705,-18,28.01999855041504
1766401368984403500,8.848403564453125,6.839999675750732,-18.059999465942383,28.739999771118164
1766401369004423000,8.8684228515625,8.460000038146973,-18.420000076293945,27.959999084472656
1766401369014432500,8.8784326171875,8.15999984741211,-18.959999084472656,27.599998474121094
1766401369024442400,8.8884423828125,7.799999713897705,-18.84000015258789,27.119998931884766
1766401369044492500,8.908492431640624,6.839999675750732,-18.65999984741211,27.899999618530273
1766401369064542500,8.92854248046875,7.319999694824219,-18.420000076293945,27.959999084472656
1766401369094571800,8.95857177734375,9,-19.559999465942383,27.599998474121094
1766401369104581600,8.96858154296875,9.479999542236328,-19.799999237060547,27.059999465942383
1766401369124631600,8.988631591796874,7.919999599456787,-19.619998931884766,26.760000228881836
1766401369144651000,9.008651123046874,6.059999942779541,-19.85999870300293,26.579999923706055
1766401369174711000,9.0387109375,6.599999904632568,-18.600000381469727,26.939998626708984
1766401369184720600,9.048720703125,8.039999961853027,-19.31999969482422,27.239999771118164
1766401369194730500,9.05873046875,8.880000114440918,-19.559999465942383,27
1766401369204770800,9.068770751953124,8.9399995803833,-19.68000030517578,27
1766401369214780400,9.078780517578124,9.179999351501465,-20.34000015258789,27.53999900817871
1766401369224790300,9.088790283203124,8.039999961853027,-19.5,27.479999542236328
1766401369234830600,9.09883056640625,7.259999752044678,-19.85999870300293,26.81999969482422
1766401369244840400,9.10884033203125,6.960000038146973,-20.219999313354492,26.34000015258789
1766401369254850000,9.11885009765625,7.079999923706055,-20.219999313354492,26.459999084472656
1766401369274869800,9.138869873046875,8.34000015258789,-20.81999969482422,26.219999313354492
1766401369294919700,9.158919677734374,8.760000228881836,-22.020000457763672,25.19999885559082
1766401369304929500,9.168929443359374,7.799999713897705,-21.899999618530273,25.5
1766401369314939100,9.178939208984374,7.440000057220459,-21.899999618530273,25.3799991607666
1766401369324949000,9.188948974609374,6.839999675750732,-22.079999923706055,25.01999855041504
1766401369334958800,9.198958740234374,6.779999732971191,-21.239999771118164,25.799999237060547
1766401369344968400,9.208968505859374,7.019999980926514,-21.53999900817871,26.099998474121094
1766401369354978300,9.218978271484374,7.440000057220459,-21.84000015258789,26.03999900817871
1766401369374997800,9.238997802734374,8.34000015258789,-21.65999984741211,25.85999870300293
1766401369405027000,9.269027099609374,6.299999713897705,-21.899999618530273,25.3799991607666
1766401369415097900,9.279097900390624,6,-22.439998626708984,25.559999465942383
1766401369425138200,9.28913818359375,6.239999771118164,-22.979999542236328,25.31999969482422
1766401369435148000,9.29914794921875,6.059999942779541,-23.51999855041504,25.139999389648438
1766401369445157600,9.30915771484375,6.779999732971191,-23.399999618530273,25.5
1766401369455167500,9.31916748046875,7.259999752044678,-23.8799991607666,24.959999084472656
1766401369485288400,9.349288330078124,7.139999866485596,-24.35999870300293,25.68000030517578
1766401369495298000,9.359298095703124,6.71999979019165,-24,25.979999542236328
1766401369505338400,9.36933837890625,6.359999656677246,-23.939998626708984,25.68000030517578
1766401369515378700,9.379378662109374,5.699999809265137,-24,25.31999969482422
1766401369525419000,9.3894189453125,6.179999828338623,-23.81999969482422,25.139999389648438
1766401369535428600,9.3994287109375,6.179999828338623,-24.119998931884766,24.959999084472656
1766401369545469000,9.409468994140624,6,-23.81999969482422,24.899999618530273
1766401369555478800,9.419478759765624,6.059999942779541,-23.639999389648438,25.3799991607666
1766401369565519000,9.42951904296875,5.940000057220459,-24.299999237060547,24.53999900817871
1766401369575528700,9.43952880859375,6.359999656677246,-24.299999237060547,24.53999900817871
1766401369605558000,9.46955810546875,6.899999618530273,-23.579999923706055,24.299999237060547
1766401369615568000,9.47956787109375,6.420000076293945,-23.51999855041504,24.18000030517578
1766401369625577700,9.48957763671875,6.059999942779541,-24,23.939998626708984
1766401369635587300,9.49958740234375,5.579999923706055,-24.65999984741211,23.8799991607666
1766401369645597200,9.50959716796875,5.639999866485596,-24.35999870300293,24.35999870300293
1766401369655607000,9.51960693359375,5.699999809265137,-24.899999618530273,24.479999542236328
1766401369665616600,9.52961669921875,5.699999809265137,-24.719999313354492,24.420000076293945
1766401369675657000,9.539656982421874,6.179999828338623,-24.779998779296875,24.600000381469727
1766401369685666800,9.549666748046874,7.019999980926514,-25.31999969482422,24.53999900817871
1766401369705686300,9.569686279296874,6.539999961853027,-25.619998931884766,24
1766401369715726600,9.5797265625,6.119999885559082,-25.139999389648438,23.81999969482422
1766401369725797400,9.58979736328125,5.21999979019165,-25.01999855041504,23.69999885559082
1766401369735807200,9.59980712890625,5.039999961853027,-24.84000015258789,24.35999870300293
1766401369745847300,9.609847412109374,5.099999904632568,-25.31999969482422,24.059999465942383
1766401369765867000,9.629866943359374,5.519999980926514,-25.5,23.69999885559082
1766401369775937800,9.639937744140624,5.940000057220459,-25.31999969482422,23.279998779296875
1766401369805967000,9.669967041015624,7.319999694824219,-25.3799991607666,23.15999984741211
1766401369825986600,9.689986572265624,6.299999713897705,-24.719999313354492,23.51999855041504
1766401369846067200,9.710067138671874,5.579999923706055,-24.119998931884766,23.760000228881836
1766401369856107500,9.720107421875,5.460000038146973,-24.53999900817871,23.459999084472656
1766401369866147800,9.73014794921875,5.940000057220459,-24.719999313354492,23.639999389648438
1766401369876157400,9.740157470703124,6.179999828338623,-25.139999389648438,23.279998779296875
1766401369886167300,9.750167236328124,6.299999713897705,-24.65999984741211,23.579999923706055
1766401369906186800,9.770186767578124,6.779999732971191,-24.479999542236328,23.639999389648438
1766401369916196600,9.780196533203124,6.539999961853027,-24.059999465942383,23.81999969482422
1766401369926206200,9.790206298828124,6.659999847412109,-23.939998626708984,24.18000030517578
1766401369936216000,9.800216064453124,6.299999713897705,-23.579999923706055,23.8799991607666
1766401369946226000,9.810225830078124,6.899999618530273,-23.51999855041504,24.35999870300293
1766401369956205000,9.820205078125,7.079999923706055,-23.760000228881836,24.059999465942383
1766401369966245400,9.830245361328124,7.139999866485596,-24.600000381469727,23.34000015258789
1766401369976255200,9.840255126953124,6.839999675750732,-25.079999923706055,22.619998931884766
1766401369986295300,9.85029541015625,5.940000057220459,-25.439998626708984,22.739999771118164
1766401370016385800,9.8803857421875,5.099999904632568,-25.31999969482422,22.799999237060547
1766401370026395400,9.8903955078125,5.87999963760376,-25.19999885559082,23.100000381469727
1766401370036405200,9.9004052734375,5.819999694824219,-24.84000015258789,23.51999855041504
1766401370046445600,9.910445556640624,6.420000076293945,-24.779998779296875,23.459999084472656
1766401370056486000,9.92048583984375,6.659999847412109,-24.959999084472656,24
1766401370066495500,9.93049560546875,6.420000076293945,-24.959999084472656,23.34000015258789
1766401370076535800,9.940535888671874,6.239999771118164,-24.779998779296875,23.219999313354492
1766401370086545700,9.950545654296874,5.339999675750732,-24.65999984741211,23.100000381469727
1766401370096555500,9.960555419921874,5.099999904632568,-24.84000015258789,22.739999771118164
1766401370116575000,9.980574951171874,4.380000114440918,-25.139999389648438,23.03999900817871
1766401370126584800,9.990584716796874,4.920000076293945,-25.31999969482422,23.219999313354492
1766401370136594400,10.000594482421874,4.859999656677246,-25.079999923706055,23.15999984741211
1766401370146604300,10.010604248046874,5.579999923706055,-25.439998626708984,23.399999618530273
1766401370156614100,10.0206142578125,6.480000019073486,-24.779998779296875,23.459999084472656
1766401370176633600,10.040633544921874,7.559999942779541,-25.19999885559082,23.279998779296875
1766401370186674000,10.050673828125,6.839999675750732,-25.079999923706055,22.920000076293945
1766401370196683500,10.06068359375,6.420000076293945,-25.439998626708984,22.260000228881836
1766401370206723800,10.070723876953124,5.579999923706055,-25.619998931884766,22.3799991607666
1766401370246854400,10.1108544921875,6.71999979019165,-25.260000228881836,22.559999465942383
1766401370256894700,10.120894775390624,6.779999732971191,-25.079999923706055,22.31999969482422
1766401370266904600,10.130904541015624,6.480000019073486,-25.260000228881836,23.100000381469727
1766401370286954500,10.15095458984375,5.460000038146973,-25.5,22.85999870300293
1766401370296964400,10.16096435546875,4.980000019073486,-25.920000076293945,22.5
1766401370307004700,10.171004638671874,5.759999752044678,-25.85999870300293,22.079999923706055
1766401370317014500,10.1810146484375,6.480000019073486,-26.51999855041504,22.020000457763672
1766401370337095000,10.201094970703124,7.739999771118164,-26.03999900817871,21.65999984741211
1766401370347165700,10.211165771484374,7.079999923706055,-26.219999313354492,21.299999237060547
1766401370357175600,10.221175537109374,6.299999713897705,-25.559999465942383,21.35999870300293
1766401370367185400,10.231185302734374,5.099999904632568,-25.619998931884766,21.899999618530273
1766401370377225500,10.2412255859375,5.099999904632568,-25.5,22.079999923706055
1766401370387265800,10.251265869140624,4.679999828338623,-25.439998626708984,22.439998626708984
1766401370397275600,10.261275634765624,4.319999694824219,-25.85999870300293,22.3799991607666
1766401370407316000,10.27131591796875,4.739999771118164,-25.559999465942383,22.020000457763672
1766401370437375700,10.301375732421874,7.019999980926514,-26.639999389648438,21.84000015258789
1766401370447416000,10.311416015625,6.71999979019165,-27,22.020000457763672
1766401370457425700,10.32142578125,5.579999923706055,-26.760000228881836,21.779998779296875
1766401370467466000,10.331466064453124,5.039999961853027,-26.34000015258789,21.53999900817871
1766401370477475800,10.341475830078124,4.679999828338623,-25.3799991607666,22.139999389648438
1766401370487485700,10.351485595703124,4.079999923706055,-25.5,21.899999618530273
1766401370497495300,10.361495361328124,4.139999866485596,-25.799999237060547,21.959999084472656
1766401370517545500,10.38154541015625,3.5399999618530273,-26.34000015258789,22.19999885559082
1766401370557645600,10.4216455078125,5.699999809265137,-26.279998779296875,22.139999389648438
1766401370567655200,10.4316552734375,5.279999732971191,-26.69999885559082,21.53999900817871
1766401370577665000,10.4416650390625,5.099999904632568,-26.459999084472656,21.65999984741211
1766401370587675000,10.4516748046875,5.279999732971191,-26.8799991607666,21.959999084472656
1766401370597684500,10.4616845703125,4.799999713897705,-26.639999389648438,21.959999084472656
1766401370607663900,10.471663818359374,4.259999752044678,-26.51999855041504,21.899999618530273
1766401370617704200,10.4817041015625,3.9599997997283936,-26.51999855041504,21.899999618530273
1766401370647764000,10.511763916015624,4.980000019073486,-24.959999084472656,22.619998931884766
1766401370657773600,10.521773681640624,5.819999694824219,-24.65999984741211,22.979999542236328
1766401370667783400,10.531783447265624,6.359999656677246,-24.65999984741211,23.579999923706055
1766401370687833600,10.55183349609375,6.779999732971191,-24.420000076293945,24.299999237060547
1766401370697843200,10.56184326171875,6.059999942779541,-23.939998626708984,24.719999313354492
1766401370707883500,10.571883544921874,6.119999885559082,-23.639999389648438,24.239999771118164
1766401370717893400,10.581893310546874,4.980000019073486,-23.34000015258789,24.35999870300293
1766401370757963000,10.621962890625,6,-21.84000015258789,25.5
1766401370767972600,10.63197265625,6.359999656677246,-21.420000076293945,25.3799991607666
1766401370788053200,10.65205322265625,8.699999809265137,-20.8799991607666,25.31999969482422
1766401370798063000,10.66206298828125,8.15999984741211,-20.15999984741211,25.31999969482422
1766401370808103200,10.672103271484374,7.859999656677246,-19.85999870300293,25.979999542236328
1766401370818113000,10.682113037109374,7.139999866485596,-19.260000228881836,26.459999084472656
1766401370828183800,10.692183837890624,7.37999963760376,-19.3799991607666,26.399999618530273
1766401370848203300,10.712203369140624,8.519999504089355,-19.5,25.799999237060547
1766401370868223000,10.732222900390624,8.9399995803833,-19.619998931884766,25.260000228881836
1766401370878232600,10.742232666015624,8.9399995803833,-19.619998931884766,25.19999885559082
1766401370888242400,10.752242431640624,8.699999809265137,-19.799999237060547,25.3799991607666
1766401370898252300,10.762252197265624,7.739999771118164,-19.619998931884766,25.619998931884766
1766401370908262000,10.772261962890624,8.039999961853027,-20.03999900817871,25.139999389648438
1766401370918271700,10.782271728515624,8.460000038146973,-19.559999465942383,25.5
1766401370928281600,10.792281494140624,9.65999984741211,-19.5,25.439998626708984
1766401370938321700,10.80232177734375,9.539999961853027,-19.19999885559082,25.619998931884766
1766401370978391300,10.842391357421874,8.519999504089355,-18.779998779296875,26.279998779296875
1766401370988401200,10.852401123046874,8.579999923706055,-18.84000015258789,25.920000076293945
1766401370998441500,10.86244140625,8.460000038146973,-19.260000228881836,25.559999465942383
1766401371008451000,10.872451171875,8.9399995803833,-19.19999885559082,25.799999237060547
1766401371018461000,10.8824609375,9.899999618530273,-19.19999885559082,25.619998931884766
1766401371028440300,10.8924404296875,10.4399995803833,-19.139999389648438,26.15999984741211
1766401371038480400,10.90248046875,11.039999961853027,-19.020000457763672,26.34000015258789
1766401371078580500,10.94258056640625,8.579999923706055,-19.5,25.68000030517578
1766401371088590300,10.95259033203125,8.15999984741211,-19.739999771118164,25.439998626708984
1766401371098600200,10.96260009765625,9,-20.219999313354492,25.439998626708984
1766401371108609800,10.97260986328125,8.9399995803833,-20.15999984741211,25.68000030517578
1766401371118650000,10.982650146484374,9.479999542236328,-20.399999618530273,26.15999984741211
1766401371138669600,11.002669677734374,9.059999465942383,-21.299999237060547,26.399999618530273
1766401371148679400,11.012679443359374,8.09999942779541,-22.079999923706055,26.099998474121094
1766401371188718600,11.052718505859374,6.420000076293945,-21.479999542236328,25.5
1766401371198759000,11.062759033203125,6.119999885559082,-21.959999084472656,25.260000228881836
1766401371208768500,11.0727685546875,6.239999771118164,-21.899999618530273,25.439998626708984
1766401371218778400,11.0827783203125,6.960000038146973,-22.020000457763672,25.739999771118164
1766401371228788000,11.0927880859375,7.559999942779541,-21.479999542236328,26.279998779296875
1766401371238828300,11.102828369140624,7.859999656677246,-21.600000381469727,26.760000228881836
1766401371248868600,11.11286865234375,7.619999885559082,-22.559999465942383,26.399999618530273
1766401371258878500,11.12287841796875,7.079999923706055,-23.939998626708984,25.979999542236328
1766401371288938200,11.152938232421874,6,-24.65999984741211,24.53999900817871
1766401371298948000,11.162947998046874,5.639999866485596,-24.059999465942383,24.18000030517578
1766401371318967600,11.182967529296874,6.239999771118164,-24.779998779296875,24.18000030517578
1766401371328977400,11.192977294921874,5.639999866485596,-25.799999237060547,24
1766401371339017500,11.203017578125,4.799999713897705,-26.459999084472656,24.18000030517578
1766401371349057800,11.213057861328124,3.8399999141693115,-26.760000228881836,23.639999389648438
1766401371359067600,11.223067626953124,3.419999837875366,-26.69999885559082,22.979999542236328
1766401371389097000,11.253096923828124,3.5999999046325684,-26.81999969482422,22.5
1766401371399137300,11.26313720703125,3.240000009536743,-27.119998931884766,22.799999237060547
1766401371409177600,11.273177490234374,3,-27.420000076293945,22.5
1766401371419187200,11.283187255859374,3.059999942779541,-27.420000076293945,22.619998931884766
1766401371429227500,11.2932275390625,2.879999876022339,-27.35999870300293,23.279998779296875
1766401371439267800,11.303267822265624,3.240000009536743,-27.119998931884766,23.51999855041504
1766401371449308200,11.31330810546875,4.019999980926514,-26.34000015258789,24.059999465942383
1766401371459379000,11.32337890625,4.199999809265137,-26.760000228881836,24.18000030517578
1766401371499417900,11.36341796875,3.419999837875366,-27.65999984741211,23.69999885559082
1766401371509397200,11.373397216796874,3.119999885559082,-27.53999900817871,24.35999870300293
1766401371519437600,11.3834375,2.819999933242798,-27.239999771118164,24.420000076293945
1766401371529447200,11.393447265625,2.2200000286102295,-26.459999084472656,24.479999542236328
1766401371539457000,11.40345703125,2.879999876022339,-26.51999855041504,24.35999870300293
1766401371549467000,11.413466796875,3.5399999618530273,-25.739999771118164,24.299999237060547
1766401371569486300,11.433486328125,3.5399999618530273,-26.03999900817871,23.219999313354492
1766401371599515600,11.463515625,1.7400000095367432,-25.85999870300293,23.279998779296875
1766401371609525500,11.473525390625,2.1599998474121094,-26.279998779296875,23.639999389648438
1766401371619535000,11.48353515625,1.6799999475479126,-25.559999465942383,23.939998626708984
1766401371629575400,11.493575439453124,1.7999999523162842,-26.099998474121094,24.059999465942383
1766401371639615700,11.50361572265625,1.9799998998641968,-26.760000228881836,24.18000030517578
1766401371649625600,11.51362548828125,1.9799998998641968,-26.69999885559082,24.600000381469727
1766401371659635200,11.52363525390625,1.559999942779541,-27.059999465942383,24.65999984741211
1766401371669614600,11.533614501953124,1.3799999952316284,-26.8799991607666,24.299999237060547
1766401371719693800,11.58369384765625,1.1999999284744263,-27.119998931884766,23.639999389648438
1766401371729734100,11.593734130859374,2.3399999141693115,-27.35999870300293,23.459999084472656
1766401371739744000,11.603743896484374,2.700000047683716,-27,22.739999771118164
1766401371749753600,11.613753662109374,3.240000009536743,-27.119998931884766,22.799999237060547
1766401371759763500,11.623763427734374,3.5399999618530273,-27.18000030517578,23.34000015258789
1766401371769773300,11.633773193359374,2.879999876022339,-26.939998626708984,23.34000015258789
1766401371779783000,11.643782958984374,2.2200000286102295,-26.399999618530273,24.239999771118164
1766401371829892900,11.693892822265624,1.559999942779541,-26.099998474121094,23.939998626708984
1766401371839902700,11.70390283203125,0.9599999785423279,-26.03999900817871,23.939998626708984
1766401371849942800,11.71394287109375,1.3199999332427979,-25.739999771118164,24.420000076293945
1766401371859983000,11.723983154296874,1.1999999284744263,-25.799999237060547,24.479999542236328
1766401371870023400,11.7340234375,1.8600000143051147,-26.15999984741211,24.899999618530273
1766401371879972000,11.74397216796875,1.9199999570846558,-26.099998474121094,25.139999389648438
1766401371910001400,11.77400146484375,1.559999942779541,-25.19999885559082,25.31999969482422
1766401371930021000,11.794021240234375,1.4399999380111694,-25.01999855041504,24.779998779296875
1766401371940030700,11.80403076171875,2.4600000381469727,-25.079999923706055,24.899999618530273
1766401371950071000,11.814071044921874,2.1599998474121094,-24.959999084472656,24.779998779296875
1766401371960081000,11.824080810546874,1.9199999570846558,-24.959999084472656,24.420000076293945
1766401371970090500,11.834090576171874,1.2599999904632568,-25.139999389648438,24.299999237060547
1766401371980100400,11.844100341796874,0.5999999642372131,-25.799999237060547,23.579999923706055
1766401372000119800,11.864119873046874,2.2799999713897705,-26.639999389648438,24.119998931884766
1766401372010129700,11.874129638671874,2.759999990463257,-26.8799991607666,24.119998931884766
1766401372050199300,11.91419921875,0.41999998688697815,-25.739999771118164,23.279998779296875
1766401372060209000,11.924208984375,0.23999999463558197,-26.279998779296875,23.34000015258789
1766401372070218800,11.93421875,0.8399999737739563,-25.979999542236328,23.579999923706055
1766401372080198000,11.944197998046874,0.8999999761581421,-26.219999313354492,23.51999855041504
1766401372090269000,11.95426904296875,0.7799999713897705,-26.03999900817871,23.81999969482422
1766401372120267500,11.984267578125,2.700000047683716,-25.979999542236328,24.119998931884766
1766401372130307800,11.994307861328124,3.059999942779541,-26.219999313354492,24
1766401372140348200,12.00434814453125,3.119999885559082,-26.459999084472656,23.399999618530273
1766401372150388500,12.014388427734374,2.4600000381469727,-26.760000228881836,22.979999542236328
1766401372160337200,12.024337158203124,1.559999942779541,-27.119998931884766,22.739999771118164
1766401372170377500,12.03437744140625,1.6200000047683716,-27,22.559999465942383
1766401372180387300,12.04438720703125,0.9599999785423279,-26.459999084472656,22.85999870300293
1766401372190397000,12.05439697265625,1.5,-26.579999923706055,23.279998779296875
1766401372210447000,12.074447021484374,1.7400000095367432,-26.939998626708984,23.760000228881836
1766401372250516700,12.114516845703125,1.7400000095367432,-26.8799991607666,22.619998931884766
1766401372260526300,12.1245263671875,1.7999999523162842,-27.059999465942383,23.279998779296875
1766401372270566700,12.134566650390624,1.6799999475479126,-27.299999237060547,22.739999771118164
1766401372280576500,12.144576416015624,1.559999942779541,-27.599998474121094,23.459999084472656
1766401372290616800,12.154616943359375,1.8600000143051147,-27.479999542236328,23.69999885559082
1766401372300626400,12.16462646484375,1.6799999475479126,-27.059999465942383,22.619998931884766
1766401372330686200,12.194686279296874,2.93999981880188,-27.479999542236328,21.479999542236328
1766401372340696000,12.204696044921874,2.93999981880188,-28.31999969482422,21.899999618530273
1766401372350736400,12.214736328125,2.3999998569488525,-28.079999923706055,22.260000228881836
1766401372360746000,12.22474609375,1.9799998998641968,-28.01999855041504,21.779998779296875
1766401372370786300,12.234786376953124,1.9799998998641968,-27.84000015258789,21.65999984741211
1766401372380796200,12.244796142578124,2.2799999713897705,-28.01999855041504,21.059999465942383
1766401372400815600,12.264815673828124,1.7400000095367432,-28.619998931884766,20.639999389648438
1766401372420835300,12.28483544921875,2.2799999713897705,-28.3799991607666,21.719999313354492
1766401372440854800,12.304854736328124,3.7799999713897705,-28.3799991607666,22.559999465942383
1766401372450864400,12.314864501953124,3.4800000190734863,-28.5,22.85999870300293
1766401372460904700,12.32490478515625,2.5199999809265137,-28.739999771118164,22.260000228881836
1766401372470914600,12.33491455078125,2.4600000381469727,-29.459999084472656,22.139999389648438
1766401372480924400,12.34492431640625,1.9799998998641968,-29.279998779296875,22.260000228881836
1766401372490964700,12.35496484375,1.9199999570846558,-29.34000015258789,21.65999984741211
1766401372501004800,12.3650048828125,2.6399998664855957,-29.34000015258789,21.779998779296875
1766401372541074400,12.405074462890624,4.799999713897705,-27.719999313354492,21.779998779296875
1766401372551084300,12.415084228515624,4.259999752044678,-27.779998779296875,21.420000076293945
1766401372561094000,12.425093994140624,3.8399999141693115,-28.260000228881836,21.959999084472656
1766401372581144000,12.44514404296875,2.93999981880188,-28.079999923706055,21.84000015258789
1766401372591154000,12.45515380859375,3.059999942779541,-27.420000076293945,22.920000076293945
1766401372601163500,12.46516357421875,2.819999933242798,-26.8799991607666,22.979999542236328
1766401372611173400,12.47517333984375,2.6399998664855957,-26.760000228881836,23.219999313354492
1766401372621183200,12.485183349609375,2.2200000286102295,-27.299999237060547,22.920000076293945
1766401372651243000,12.515242919921874,6.239999771118164,-29.279998779296875,21.779998779296875
1766401372661283300,12.525283447265625,7.319999694824219,-29.03999900817871,22.260000228881836
1766401372671323400,12.535323486328124,6.659999847412109,-28.799999237060547,21.779998779296875
1766401372681333200,12.545333251953124,6.179999828338623,-28.139999389648438,21.65999984741211
1766401372691343000,12.555343017578124,5.759999752044678,-27.719999313354492,22.020000457763672
1766401372701383400,12.565383544921875,5.339999675750732,-27.479999542236328,21.899999618530273
1766401372711393000,12.57539306640625,6.359999656677246,-27.119998931884766,22.439998626708984
1766401372751493000,12.6154931640625,6.659999847412109,-26.760000228881836,22.31999969482422
1766401372761503000,12.6255029296875,7.139999866485596,-26.459999084472656,22.19999885559082
1766401372771543300,12.635543212890624,7.859999656677246,-26.639999389648438,22.619998931884766
1766401372781553000,12.645552978515624,8.399999618530273,-26.279998779296875,23.219999313354492
1766401372791562800,12.655562744140624,7.440000057220459,-26.459999084472656,23.459999084472656
1766401372801603000,12.66560302734375,6.659999847412109,-26.459999084472656,23.639999389648438
1766401372811613000,12.675613037109375,6.059999942779541,-26.69999885559082,23.15999984741211
1766401372821622500,12.68562255859375,5.400000095367432,-26.51999855041504,22.68000030517578
1766401372861722600,12.72572265625,6.239999771118164,-26.459999084472656,22.260000228881836
1766401372881803300,12.74580322265625,7.5,-26.939998626708984,23.399999618530273
1766401372891813000,12.755813232421875,8.699999809265137,-26.8799991607666,23.579999923706055
1766401372911893500,12.7758935546875,9.059999465942383,-27.059999465942383,23.579999923706055
1766401372921903400,12.7859033203125,7.859999656677246,-26.8799991607666,23.51999855041504
1766401372931943700,12.795943603515624,7.37999963760376,-26.579999923706055,23.51999855041504
1766401372961973000,12.825972900390624,5.699999809265137,-25.439998626708984,23.51999855041504
1766401372971982600,12.835982666015624,5.279999732971191,-24.959999084472656,23.760000228881836
1766401372981992400,12.845992431640624,5.699999809265137,-25.31999969482422,23.81999969482422
1766401372992002300,12.856002197265624,5.639999866485596,-25.5,23.8799991607666
1766401373002012000,12.866011962890624,5.87999963760376,-25.260000228881836,24.18000030517578
1766401373012052200,12.87605224609375,5.940000057220459,-24.899999618530273,24.65999984741211
1766401373022092500,12.886092529296874,5.460000038146973,-24.35999870300293,24.420000076293945
1766401373032102400,12.896102294921874,4.440000057220459,-23.760000228881836,24.479999542236328
1766401373052121900,12.916121826171874,5.039999961853027,-24.899999618530273,24.18000030517578
1766401373062131700,12.926131591796874,5.940000057220459,-24.899999618530273,25.139999389648438
1766401373072171800,12.936171875,6.839999675750732,-25.079999923706055,25.079999923706055
1766401373082181600,12.946181640625,6.359999656677246,-25.079999923706055,24.600000381469727
1766401373092191500,12.95619140625,5.639999866485596,-24.53999900817871,24.899999618530273
1766401373102231800,12.966231689453124,4.859999656677246,-24.53999900817871,24.719999313354492
1766401373112241400,12.976241455078124,4.199999809265137,-24.299999237060547,25.139999389648438
1766401373122251300,12.986251220703124,4.440000057220459,-23.8799991607666,25.559999465942383
1766401373132291600,12.99629150390625,4.619999885559082,-23.51999855041504,25.5
1766401373142332000,13.006331787109374,4.920000076293945,-22.85999870300293,25.799999237060547
1766401373162351400,13.026351318359374,5.819999694824219,-22.68000030517578,26.03999900817871
1766401373172361200,13.036361328125,6.599999904632568,-22.5,25.85999870300293
1766401373192441600,13.056441650390624,8.039999961853027,-23.03999900817871,25.3799991607666
1766401373242521000,13.10652099609375,7.619999885559082,-22.19999885559082,24.84000015258789
1766401373252530700,13.11653076171875,8.519999504089355,-21.899999618530273,25.439998626708984
1766401373272580900,13.136580810546874,10.319999694824219,-22.139999389648438,26.399999618530273
1766401373282590500,13.146590576171874,9.59999942779541,-22.799999237060547,26.03999900817871
1766401373302671000,13.166671142578124,7.37999963760376,-23.219999313354492,26.219999313354492
1766401373312742000,13.176741943359374,6.659999847412109,-23.15999984741211,25.3799991607666
1766401373332761600,13.19676171875,7.739999771118164,-22.85999870300293,25.920000076293945
1766401373342801700,13.2068017578125,7.859999656677246,-23.100000381469727,25.3799991607666
1766401373402829800,13.266829833984374,6.960000038146973,-21.899999618530273,25.799999237060547
1766401373432889600,13.2968896484375,8.279999732971191,-22.559999465942383,25.85999870300293
1766401373482999600,13.34699951171875,7.199999809265137,-21.719999313354492,26.15999984741211
1766401373493039900,13.357039794921874,6.899999618530273,-21.600000381469727,25.979999542236328
1766401373503049500,13.367049560546874,6.899999618530273,-21.719999313354492,25.619998931884766
1766401373513151000,13.37715087890625,7.199999809265137,-22.31999969482422,25.68000030517578
1766401373523130000,13.387130126953124,7.739999771118164,-22.439998626708984,25.799999237060547
1766401373533170400,13.39717041015625,7.859999656677246,-22.3799991607666,26.219999313354492
1766401373543210800,13.407210693359374,7.319999694824219,-22.31999969482422,26.15999984741211
1766401373553251000,13.4172509765625,6.960000038146973,-21.299999237060547,26.399999618530273
1766401373583280400,13.4472802734375,6.539999961853027,-21.299999237060547,26.279998779296875
1766401373603330300,13.467330322265624,7.139999866485596,-22.19999885559082,25.5
1766401373613370600,13.47737060546875,6.839999675750732,-22.19999885559082,25.739999771118164
1766401373623411000,13.487410888671874,7.319999694824219,-22.31999969482422,25.31999969482422
1766401373633420500,13.497420654296874,7.799999713897705,-22.5,26.279998779296875
1766401373643430400,13.507430419921874,8.039999961853027,-21.899999618530273,26.579999923706055
1766401373653470700,13.517470703125,8.15999984741211,-22.619998931884766,25.85999870300293
1766401373663511000,13.527510986328124,8.15999984741211,-23.100000381469727,26.459999084472656
1766401373683561000,13.54756103515625,6.839999675750732,-23.51999855041504,24.719999313354492
1766401373693601300,13.557601318359374,6.960000038146973,-23.03999900817871,24.899999618530273
1766401373703641600,13.5676416015625,7.199999809265137,-22.020000457763672,24
1766401373713682000,13.577681884765624,6.899999618530273,-22.19999885559082,24
1766401373723691800,13.58769189453125,7.440000057220459,-22.19999885559082,24.959999084472656
1766401373733701400,13.597701416015624,7.139999866485596,-22.19999885559082,25.920000076293945
1766401373743741700,13.60774169921875,6.359999656677246,-22.559999465942383,26.51999855041504
1766401373753782000,13.617781982421874,6.480000019073486,-23.03999900817871,27.119998931884766
1766401373763792000,13.6277919921875,5.579999923706055,-23.219999313354492,26.81999969482422
1766401373793851600,13.6578515625,4.739999771118164,-22.19999885559082,24.959999084472656
1766401373813901600,13.677901611328124,5.579999923706055,-22.139999389648438,25.31999969482422
1766401373823942000,13.68794189453125,5.639999866485596,-22.3799991607666,25.139999389648438
1766401373833951700,13.69795166015625,6.179999828338623,-22.439998626708984,25.5
1766401373843992000,13.707991943359374,6.71999979019165,-22.3799991607666,25.68000030517578
1766401373854001700,13.718001708984374,7.259999752044678,-22.68000030517578,25.739999771118164
1766401373864011500,13.728011474609374,7.980000019073486,-22.85999870300293,25.920000076293945
1766401373884031000,13.748031005859374,6.839999675750732,-22.559999465942383,25.68000030517578
1766401373894040800,13.758040771484374,6.359999656677246,-22.3799991607666,25.559999465942383
1766401373914090800,13.7780908203125,5.400000095367432,-22.31999969482422,25.19999885559082
1766401373924070100,13.788070068359374,5.279999732971191,-22.5,25.01999855041504
1766401373934110500,13.7981103515625,5.460000038146973,-22.68000030517578,25.01999855041504
1766401373944150500,13.808150634765624,4.679999828338623,-22.31999969482422,24.65999984741211
1766401373954160400,13.818160400390624,6.059999942779541,-23.03999900817871,25.079999923706055
1766401373964170200,13.828170166015624,6.960000038146973,-23.579999923706055,25.559999465942383
1766401373994260500,13.858260498046874,7.559999942779541,-23.34000015258789,25.31999969482422
1766401374004270300,13.868270263671874,7.259999752044678,-23.219999313354492,24.959999084472656
1766401374014341000,13.878341064453124,6.359999656677246,-23.100000381469727,25.3799991607666
1766401374024381400,13.88838134765625,6.239999771118164,-22.739999771118164,25.559999465942383
1766401374034391000,13.89839111328125,5.759999752044678,-22.979999542236328,24.899999618530273
1766401374044401000,13.90840087890625,5.639999866485596,-23.100000381469727,25.31999969482422
1766401374054441200,13.918441162109374,5.579999923706055,-23.399999618530273,25.139999389648438
1766401374064450800,13.928450927734374,6.299999713897705,-23.100000381469727,25.01999855041504
1766401374074491100,13.9384912109375,6.239999771118164,-22.5,25.19999885559082
1766401374104520400,13.9685205078125,5.639999866485596,-22.979999542236328,24.479999542236328
1766401374114530300,13.9785302734375,6.420000076293945,-23.03999900817871,24.959999084472656
1766401374124540200,13.9885400390625,7.37999963760376,-23.34000015258789,25.19999885559082
1766401374144590000,14.008590087890624,8.760000228881836,-22.85999870300293,25.5
1766401374154630400,14.01863037109375,8.399999618530273,-22.739999771118164,25.31999969482422
1766401374164640300,14.02864013671875,7.199999809265137,-22.139999389648438,25.079999923706055
1766401374174649900,14.03864990234375,7.5,-21.959999084472656,25.079999923706055
1766401374204679200,14.06867919921875,7.559999942779541,-22.5,24.719999313354492
1766401374214689000,14.07868896484375,7.440000057220459,-22.020000457763672,24.779998779296875
1766401374234739000,14.098739013671874,7.619999885559082,-21.53999900817871,24.53999900817871
1766401374244748800,14.108748779296874,7.5,-21.779998779296875,24.779998779296875
1766401374254789000,14.1187890625,6.779999732971191,-22.31999969482422,24.479999542236328
1766401374264829400,14.128829345703124,6.420000076293945,-22.260000228881836,24.119998931884766
1766401374274869800,14.138869873046875,7.440000057220459,-22.020000457763672,24.119998931884766
1766401374284879400,14.14887939453125,7.980000019073486,-21.600000381469727,24.479999542236328
1766401374324949000,14.188948974609374,9.119999885559082,-22.260000228881836,24.779998779296875
1766401374334958800,14.198958740234374,8.039999961853027,-22.260000228881836,24.899999618530273
1766401374344999000,14.2089990234375,7.619999885559082,-22.139999389648438,24.899999618530273
1766401374355008800,14.2190087890625,7.440000057220459,-22.31999969482422,24.899999618530273
1766401374365018600,14.2290185546875,6.779999732971191,-22.31999969482422,25.139999389648438
1766401374375028200,14.2390283203125,7.079999923706055,-21.959999084472656,24.899999618530273
1766401374385068500,14.249068603515624,6.659999847412109,-22.020000457763672,24.65999984741211
1766401374395078400,14.259078369140624,6.839999675750732,-21.899999618530273,24.65999984741211
1766401374415128300,14.27912841796875,8.460000038146973,-22.439998626708984,24.84000015258789
1766401374425168600,14.289168701171874,8.519999504089355,-21.959999084472656,25.139999389648438
1766401374435209000,14.299208984375,7.679999828338623,-22.079999923706055,24.84000015258789
1766401374445218800,14.30921875,7.019999980926514,-22.31999969482422,24.719999313354492
1766401374455228400,14.319228515625,6.059999942779541,-21.719999313354492,24.65999984741211
1766401374465238300,14.32923828125,5.87999963760376,-21.119998931884766,25.439998626708984
1766401374475248000,14.339248046875,5.940000057220459,-20.81999969482422,25.739999771118164
1766401374485288400,14.349288330078124,5.400000095367432,-20.34000015258789,25.68000030517578
1766401374505308000,14.369307861328124,6.659999847412109,-19.920000076293945,25.619998931884766
1766401374515317800,14.37931787109375,7.319999694824219,-19.799999237060547,25.85999870300293
1766401374525327400,14.389327392578124,8.639999389648438,-19.19999885559082,26.099998474121094
1766401374535367700,14.39936767578125,9,-19.5,26.279998779296875
1766401374545408000,14.409407958984374,9.059999465942383,-19.31999969482422,26.51999855041504
1766401374555417900,14.41941796875,8.639999389648438,-18.959999084472656,26.399999618530273
1766401374565427500,14.429427490234374,7.679999828338623,-19.260000228881836,26.51999855041504
1766401374585477600,14.4494775390625,6.480000019073486,-19.260000228881836,26.219999313354492
1766401374595487200,14.4594873046875,6.599999904632568,-19.260000228881836,26.760000228881836
1766401374615537400,14.479537353515624,6.059999942779541,-18.239999771118164,27.65999984741211
1766401374625577700,14.48957763671875,5.87999963760376,-18.600000381469727,27.779998779296875
1766401374635487500,14.499487548828125,5.639999866485596,-17.81999969482422,28.01999855041504
1766401374645497000,14.5094970703125,6.839999675750732,-18.35999870300293,28.19999885559082
1766401374655537400,14.519537353515625,6.899999618530273,-18.479999542236328,28.559999465942383
1766401374665547300,14.52954736328125,7.37999963760376,-18.479999542236328,28.079999923706055
1766401374675587600,14.539587646484375,6.71999979019165,-18.959999084472656,27.599998474121094
1766401374685597200,14.54959716796875,5.699999809265137,-18.719999313354492,26.69999885559082
1766401374695607000,14.55960693359375,5.099999904632568,-18.84000015258789,26.279998779296875
1766401374705617000,14.569616943359375,5.159999847412109,-18.119998931884766,26.459999084472656
1766401374725697300,14.589697265625,6.119999885559082,-18.65999984741211,26.459999084472656
1766401374735707100,14.59970703125,6.359999656677246,-19.020000457763672,25.979999542236328
1766401374745747500,14.60974755859375,7.37999963760376,-19.31999969482422,26.34000015258789
1766401374755757300,14.61975732421875,8.09999942779541,-19.31999969482422,26.939998626708984
1766401374765767000,14.629766845703125,8.220000267028809,-19.799999237060547,26.34000015258789
1766401374775807200,14.63980712890625,9.479999542236328,-19.559999465942383,26.69999885559082
1766401374785817000,14.649817138671875,7.679999828338623,-20.34000015258789,26.15999984741211
1766401374795887900,14.659887939453125,6.480000019073486,-20.279998779296875,25.619998931884766
1766401374805897500,14.6698974609375,6.299999713897705,-20.81999969482422,25.619998931884766
1766401374835957500,14.69995751953125,5.639999866485596,-20.760000228881836,26.219999313354492
1766401374845997600,14.70999755859375,5.940000057220459,-20.520000457763672,26.03999900817871
1766401374856007400,14.72000732421875,7.079999923706055,-21.18000030517578,26.219999313354492
1766401374866047700,14.7300478515625,7.5,-21.899999618530273,26.34000015258789
1766401374876057600,14.7400576171875,7.919999599456787,-22.3799991607666,25.5
1766401374886067200,14.750067138671875,7.37999963760376,-22.5,26.099998474121094
1766401374896107500,14.760107421875,6.179999828338623,-22.260000228881836,26.099998474121094
1766401374936177200,14.80017724609375,3.8399999141693115,-23.639999389648438,25.31999969482422
1766401374946186800,14.810186767578125,4.199999809265137,-23.03999900817871,25.5
1766401374956196600,14.820196533203125,4.799999713897705,-23.15999984741211,24.779998779296875
1766401374966206500,14.83020654296875,4.799999713897705,-24.18000030517578,24.299999237060547
1766401374976216000,14.840216064453125,6.059999942779541,-24.420000076293945,24.299999237060547
1766401374986317600,14.850317626953125,5.940000057220459,-25.079999923706055,23.8799991607666
1766401374996296700,14.860296630859375,6.059999942779541,-25.920000076293945,23.760000228881836
1766401375006306600,14.870306640625,5.819999694824219,-25.979999542236328,23.8799991607666
1766401375016347000,14.880346923828125,5.21999979019165,-26.459999084472656,23.459999084472656
1766401375066456600,14.93045654296875,6.179999828338623,-27.959999084472656,22.079999923706055
1766401375076466400,14.940466552734375,6.779999732971191,-28.68000030517578,21.959999084472656
1766401375086476300,14.950476318359375,6.359999656677246,-28.19999885559082,21.959999084472656
1766401375096516400,14.960516357421875,6.599999904632568,-28.139999389648438,22.31999969482422
1766401375106526200,14.970526123046875,6.539999961853027,-27.53999900817871,22.439998626708984
1766401375116536000,14.9805361328125,6.119999885559082,-27.779998779296875,22.19999885559082
1766401375126545700,14.990545654296875,6.779999732971191,-28.5,22.020000457763672
1766401375156605700,15.020605712890625,6.179999828338623,-27.65999984741211,21.959999084472656
1766401375166615300,15.030615234375,5.759999752044678,-26.639999389648438,21.779998779296875
1766401375176625200,15.040625244140625,6.420000076293945,-26.760000228881836,22.739999771118164
1766401375186604300,15.050604248046875,6.539999961853027,-27.059999465942383,22.619998931884766
1766401375196644600,15.06064453125,6.899999618530273,-27,23.100000381469727
1766401375206624000,15.0706240234375,7.079999923706055,-26.8799991607666,23.279998779296875
1766401375216633600,15.080633544921875,7.980000019073486,-26.279998779296875,22.979999542236328
1766401375226613000,15.090613037109375,8.09999942779541,-26.15999984741211,22.979999542236328
1766401375246663000,15.110662841796875,7.859999656677246,-25.19999885559082,22.979999542236328
1766401375256703200,15.120703125,7.440000057220459,-24.479999542236328,23.03999900817871
1766401375266682400,15.130682373046875,6.779999732971191,-24.18000030517578,23.279998779296875
1766401375276753400,15.14075341796875,6.659999847412109,-24,23.639999389648438
1766401375286763000,15.150762939453125,6.059999942779541,-24,23.8799991607666
1766401375296772900,15.16077294921875,5.099999904632568,-24.420000076293945,23.939998626708984
1766401375306813200,15.170813232421875,5.460000038146973,-24.18000030517578,24.899999618530273
1766401375316822800,15.18082275390625,5.87999963760376,-24.239999771118164,25.139999389648438
1766401375326832600,15.19083251953125,6,-23.939998626708984,25.3799991607666
1766401375366932700,15.2309326171875,6.839999675750732,-23.459999084472656,25.920000076293945
1766401375376942600,15.240942626953125,6.779999732971191,-22.799999237060547,25.739999771118164
1766401375386952200,15.2509521484375,7.139999866485596,-22.31999969482422,25.979999542236328
1766401375396992500,15.260992431640625,6.539999961853027,-22.139999389648438,25.799999237060547
1766401375407002400,15.27100244140625,7.319999694824219,-21.600000381469727,25.920000076293945
1766401375417012000,15.281011962890625,7.199999809265137,-22.139999389648438,26.399999618530273
1766401375427021800,15.291021728515625,6.480000019073486,-21.53999900817871,26.639999389648438
1766401375437031700,15.30103173828125,6.71999979019165,-21.35999870300293,26.81999969482422
1766401375447041300,15.311041259765625,6.119999885559082,-20.8799991607666,26.8799991607666
1766401375467091500,15.331091552734375,6.480000019073486,-20.8799991607666,26.15999984741211
1766401375477162200,15.341162353515625,6.299999713897705,-20.760000228881836,26.099998474121094
1766401375487172000,15.351172119140625,6.299999713897705,-20.939998626708984,25.85999870300293
1766401375497181700,15.361181640625,6.480000019073486,-20.69999885559082,26.34000015258789
1766401375507191600,15.371191650390625,5.21999979019165,-19.739999771118164,26.459999084472656
1766401375517231900,15.38123193359375,5.400000095367432,-19.439998626708984,26.81999969482422
1766401375527241500,15.391241455078125,5.759999752044678,-19.439998626708984,26.8799991607666
1766401375537281800,15.40128173828125,5.400000095367432,-19.559999465942383,26.939998626708984
1766401375547291600,15.411291748046875,6.119999885559082,-19.68000030517578,26.8799991607666
1766401375577351400,15.441351318359375,6.179999828338623,-19.3799991607666,27
1766401375587361300,15.451361328125,6.71999979019165,-19.260000228881836,27
1766401375597401600,15.461401611328125,7.739999771118164,-19.559999465942383,27
1766401375607411200,15.4714111328125,7.980000019073486,-19.3799991607666,27.299999237060547
1766401375617421000,15.481421142578125,7.559999942779541,-19.3799991607666,27.18000030517578
1766401375627430700,15.4914306640625,7.199999809265137,-19.739999771118164,26.81999969482422
1766401375637440500,15.5014404296875,6.480000019073486,-19.260000228881836,27.059999465942383
1766401375647450400,15.511450439453125,5.940000057220459,-19.85999870300293,26.51999855041504
1766401375677540600,15.54154052734375,5.699999809265137,-19.439998626708984,25.85999870300293
1766401375687550500,15.551550537109375,6,-19.619998931884766,26.459999084472656
1766401375707570000,15.57156982421875,7.319999694824219,-19.020000457763672,27.84000015258789
1766401375717610200,15.5816103515625,7.799999713897705,-18.53999900817871,28.19999885559082
1766401375727620000,15.5916201171875,8.220000267028809,-18.420000076293945,27.119998931884766
1766401375737691000,15.60169091796875,7.739999771118164,-19.079999923706055,26.459999084472656
1766401375747700500,15.611700439453125,7.980000019073486,-19.260000228881836,26.03999900817871
1766401375757740800,15.62174072265625,7.259999752044678,-19.3799991607666,26.15999984741211
1766401375777791000,15.641791015625,6.839999675750732,-18.65999984741211,27.18000030517578
1766401375787770000,15.65177001953125,6.659999847412109,-18.420000076293945,27.479999542236328
1766401375797810400,15.661810546875,7.739999771118164,-18.600000381469727,27.299999237060547
1766401375807820300,15.6718203125,7.919999599456787,-18.719999313354492,28.01999855041504
1766401375817830000,15.681829833984375,7.980000019073486,-18.779998779296875,28.01999855041504
1766401375827839700,15.69183984375,8.279999732971191,-19.31999969482422,27.779998779296875
