time,seconds_elapsed,z,y,x
1766401358187253800,-1.948746337890625,0.1388636976480484,2.255337953567505,0.6560112833976746
1766401358207303700,-1.9286962890625,0.629675030708313,-0.5219359993934631,-0.043095629662275314
1766401358227384300,-1.90861572265625,0.3902548849582672,0.019153613597154617,0.016759412363171577
1766401358237394200,-1.898605712890625,-0.10773907601833344,-0.38546648621559143,-0.13407529890537262
1766401358247403800,-1.88859619140625,-0.12210428714752197,-0.10534487664699554,0.028730420395731926
1766401358257413600,-1.87858642578125,-0.22505496442317963,-0.21787235140800476,-0.12449848651885986
1766401358267454000,-1.868546142578125,-0.07182604819536209,-0.7015010714530945,-0.40222588181495667
1766401358277494300,-1.858505615234375,0.06464344263076782,-0.4692635238170624,-0.15801730751991272
1766401358287504000,-1.84849609375,0.026336219161748886,-0.24420857429504395,-0.28969839215278625
1766401358297513700,-1.838486328125,0.05027823522686958,-0.014365210197865963,-0.13168109953403473
1766401358357572400,-1.778427734375,0.16998831927776337,-0.4668693244457245,-0.08140286058187485
1766401358377591800,-1.758408203125,0,-0.3495534360408783,-0.09816227108240128
1766401358387632000,-1.748367919921875,-0.028730420395731926,-0.2801215946674347,-0.08858546614646912
1766401358397641700,-1.738358154296875,0.07182604819536209,0.10534487664699554,-0.07900865375995636
1766401358427793200,-1.708206787109375,0.1628057211637497,0.08140286058187485,-0.08379705995321274
1766401358437803000,-1.698197021484375,0.19153612852096558,0.004788403399288654,0.002394201699644327
1766401358447843300,-1.68815673828125,0.20350714027881622,-0.0454898327589035,-0.033518824726343155
1766401358457883600,-1.678116455078125,0.08379705995321274,-0.1867477297782898,0.13407529890537262
1766401358467893200,-1.668106689453125,0.10534487664699554,-0.21787235140800476,0.002394201699644327
1766401358477903000,-1.658096923828125,0.07661445438861847,-0.1604115068912506,-0.040701430290937424
1766401358487913000,-1.648087158203125,0.07900865375995636,-0.1388636976480484,-0.12689268589019775
1766401358507932400,-1.628067626953125,0.11971008777618408,-0.002394201699644327,-0.09816227108240128
1766401358537931300,-1.59806884765625,0.1843535304069519,-0.10773907601833344,-0.10295066982507706
1766401358547940900,-1.58805908203125,0.23702596127986908,-0.20350714027881622,-0.12449848651885986
1766401358557920300,-1.578079833984375,0.24899697303771973,-0.2082955539226532,-0.15562310814857483
1766401358567929900,-1.568070068359375,0.2082955539226532,-0.19393034279346466,-0.15322890877723694
1766401358577939700,-1.558060302734375,0.15562310814857483,-0.15562310814857483,0.033518824726343155
1766401358587949600,-1.548050537109375,-0.009576806798577309,-0.20350714027881622,-0.15083470940589905
1766401358597959200,-1.538040771484375,0.035913024097681046,-0.047884032130241394,-0.0933738648891449
1766401358607969000,-1.528031005859375,0.023942016065120697,-0.028730420395731926,-0.11971008777618408
1766401358617948200,-1.5180517578125,0.07182604819536209,-0.12210428714752197,-0.13407529890537262
1766401358648008200,-1.48799169921875,0.2106897532939911,-0.011971008032560349,-0.10295066982507706
1766401358658017800,-1.477982177734375,0.14604631066322327,-0.08858546614646912,-0.038307227194309235
1766401358668027600,-1.467972412109375,0.09576806426048279,-0.27054479718208313,-0.16519992053508759
1766401358678037200,-1.457962646484375,0.043095629662275314,-0.043095629662275314,0.05985504388809204
1766401358688047000,-1.447952880859375,0.0694318488240242,-0.2346317619085312,-0.009576806798577309
1766401358698057000,-1.437943115234375,0.08619125932455063,-0.08140286058187485,-0.011971008032560349
1766401358708066600,-1.427933349609375,0.021547814831137657,-0.10055647045373917,-0.0694318488240242
1766401358718076400,-1.417923583984375,0.07182604819536209,-0.035913024097681046,-0.11252748221158981
1766401358728086300,-1.407913818359375,0.14365209639072418,-0.002394201699644327,-0.05746084079146385
1766401358748166700,-1.387833251953125,0.23942017555236816,-0.0694318488240242,-0.14844051003456116
1766401358758176500,-1.377823486328125,0.2992752194404602,-0.019153613597154617,-0.09816227108240128
1766401358768186400,-1.367813720703125,0.15322890877723694,-0.14365209639072418,-0.026336219161748886
1766401358778226700,-1.357773193359375,0.15562310814857483,-0.1412578970193863,-0.028730420395731926
1766401358788266800,-1.347733154296875,0.1388636976480484,-0.14844051003456116,-0.06224924325942993
1766401358798276600,-1.337723388671875,0.08858546614646912,-0.12689268589019775,-0.06703764945268631
1766401358808317000,-1.32768310546875,-0.002394201699644327,-0.09816227108240128,-0.016759412363171577
1766401358818326800,-1.317673095703125,0.009576806798577309,-0.031124621629714966,-0.08858546614646912
1766401358858365700,-1.27763427734375,0.2059013396501541,-0.2298433631658554,-0.13168109953403473
1766401358868375600,-1.26762451171875,0.15322890877723694,-0.12449848651885986,-0.11252748221158981
1766401358878385200,-1.25761474609375,0.18914192914962769,-0.043095629662275314,-0.1173158809542656
1766401358888395000,-1.24760498046875,0.07182604819536209,-0.05027823522686958,0.0071826050989329815
1766401358898374400,-1.23762548828125,0.05746084079146385,-0.05267243832349777,-0.06224924325942993
1766401358908384000,-1.227615966796875,0.07661445438861847,-0.16759411990642548,-0.040701430290937424
1766401358918424300,-1.21757568359375,0.07900865375995636,-0.19871874153614044,-0.06703764945268631
1766401358948484000,-1.187515869140625,0.09576806426048279,-0.011971008032560349,-0.002394201699644327
1766401358968503600,-1.167496337890625,0.18914192914962769,-0.05267243832349777,-0.043095629662275314
1766401358978513400,-1.157486572265625,0.10773907601833344,-0.22744916379451752,-0.10773907601833344
1766401358998532900,-1.137467041015625,0.1149216815829277,-0.07182604819536209,-0.05267243832349777
1766401359018583000,-1.1174169921875,0.10773907601833344,-0.033518824726343155,-0.10773907601833344
1766401359028593000,-1.107406982421875,0.1388636976480484,-0.019153613597154617,-0.026336219161748886
1766401359038602500,-1.0973974609375,0.1843535304069519,0.05027823522686958,-0.19871874153614044
1766401359048612400,-1.0873876953125,0.24181437492370605,0.06224924325942993,-0.0933738648891449
1766401359068693000,-1.06730712890625,0.2513911724090576,-0.05027823522686958,-0.047884032130241394
1766401359078702600,-1.05729736328125,0.05506663769483566,-0.17956513166427612,-0.05506663769483566
1766401359088712400,-1.04728759765625,0.09816227108240128,-0.19153612852096558,-0.002394201699644327
1766401359108793000,-1.02720703125,0.15801730751991272,-0.014365210197865963,-0.07422025501728058
1766401359118802700,-1.017197265625,0.16759411990642548,-0.06464344263076782,-0.026336219161748886
1766401359128812500,-1.0071875,0.20111294090747833,0.038307227194309235,-0.07422025501728058
1766401359138883300,-0.99711669921875,0.15562310814857483,-0.026336219161748886,0
1766401359148893200,-0.98710693359375,0.22266076505184174,-0.08619125932455063,-0.06464344263076782
1766401359188932000,-0.94706787109375,0.16519992053508759,0,-0.17477671802043915
1766401359219022600,-0.916977294921875,0.20111294090747833,-0.13407529890537262,-0.0933738648891449
1766401359229032200,-0.9069677734375,0.090979665517807,-0.18914192914962769,-0.15083470940589905
1766401359239042000,-0.8969580078125,0.15083470940589905,0.047884032130241394,-0.033518824726343155
1766401359339261700,-0.79673828125,0.1628057211637497,-0.12689268589019775,-0.11971008777618408
1766401359369291000,-0.766708984375,0.14365209639072418,-0.17956513166427612,-0.0071826050989329815
1766401359379300900,-0.75669921875,0.10295066982507706,-0.040701430290937424,-0.011971008032560349
1766401359389341200,-0.746658935546875,0.1412578970193863,0.05506663769483566,0.019153613597154617
1766401359399350800,-0.736649169921875,0.10295066982507706,-0.038307227194309235,-0.0071826050989329815
1766401359409360600,-0.726639404296875,0.0454898327589035,0.016759412363171577,-0.06464344263076782
1766401359419401000,-0.71659912109375,0.08619125932455063,-0.05267243832349777,-0.011971008032560349
1766401359429410600,-0.70658935546875,0.16759411990642548,-0.1843535304069519,0.06224924325942993
1766401359439420400,-0.69657958984375,0.20111294090747833,-0.2777273952960968,-0.07900865375995636
1766401359449430300,-0.68656982421875,0.22026655077934265,-0.1149216815829277,-0.13407529890537262
1766401359459439900,-0.67656005859375,0.12689268589019775,-0.019153613597154617,-0.15562310814857483
1766401359479490000,-0.656510009765625,0.2106897532939911,-0.038307227194309235,-0.031124621629714966
1766401359489530400,-0.6464697265625,0.20350714027881622,-0.07422025501728058,-0.07661445438861847
1766401359499540000,-0.6364599609375,0.17717093229293823,-0.05746084079146385,-0.009576806798577309
1766401359509549800,-0.6264501953125,0.16998831927776337,-0.06464344263076782,-0.019153613597154617
1766401359519559700,-0.6164404296875,0.19871874153614044,-0.08858546614646912,-0.038307227194309235
1766401359529569300,-0.6064306640625,0.10295066982507706,-0.09816227108240128,-0.1412578970193863
1766401359539579100,-0.5964208984375,0.2059013396501541,0.11013327538967133,0.0071826050989329815
1766401359549589000,-0.586410888671875,0.19632454216480255,0.016759412363171577,0.004788403399288654
1766401359559598600,-0.5764013671875,0.1412578970193863,-0.0933738648891449,-0.1412578970193863
1766401359589628000,-0.5463720703125,0.20111294090747833,-0.19871874153614044,-0.0933738648891449
1766401359599668200,-0.536331787109375,0.21547815203666687,-0.21308395266532898,-0.15322890877723694
1766401359609708500,-0.52629150390625,0.20111294090747833,-0.11013327538967133,-0.06703764945268631
1766401359619718100,-0.51628173828125,0.12689268589019775,-0.1412578970193863,-0.1364694982767105
1766401359629697500,-0.506302490234375,0.0933738648891449,-0.2106897532939911,-0.040701430290937424
1766401359639768300,-0.496231689453125,0.11013327538967133,-0.0694318488240242,-0.031124621629714966
1766401359649778200,-0.486221923828125,0.05027823522686958,-0.016759412363171577,-0.031124621629714966
1766401359659757300,-0.47624267578125,0.023942016065120697,0.038307227194309235,-0.13407529890537262
1766401359669767200,-0.46623291015625,0.12449848651885986,-0.002394201699644327,-0.004788403399288654
1766401359709836800,-0.4261630859375,0.19393034279346466,-0.10773907601833344,-0.043095629662275314
1766401359719846400,-0.416153564453125,0.09816227108240128,-0.14604631066322327,-0.08140286058187485
1766401359729856300,-0.406143798828125,0.15322890877723694,0.026336219161748886,-0.031124621629714966
1766401359739865900,-0.396134033203125,0.1149216815829277,-0.05506663769483566,-0.05506663769483566
1766401359749906200,-0.38609375,0.12449848651885986,0,-0.06703764945268631
1766401359759916000,-0.376083984375,0.181959331035614,-0.035913024097681046,-0.090979665517807
1766401359769926000,-0.36607421875,0.15083470940589905,-0.021547814831137657,-0.08379705995321274
1766401359789975800,-0.346024169921875,0.11013327538967133,-0.14844051003456116,-0.1412578970193863
1766401359799985700,-0.336014404296875,0.05746084079146385,-0.21787235140800476,-0.08379705995321274
1766401359809995300,-0.326004638671875,0.12689268589019775,-0.1867477297782898,-0.1628057211637497
1766401359820005000,-0.315994873046875,0.07900865375995636,-0.2322375625371933,-0.05506663769483566
1766401359830045400,-0.30595458984375,0.16759411990642548,-0.15801730751991272,-0.023942016065120697
1766401359840055300,-0.29594482421875,0.11013327538967133,-0.0694318488240242,-0.090979665517807
1766401359850065000,-0.28593505859375,0.05027823522686958,-0.07900865375995636,-0.08140286058187485
1766401359860074800,-0.27592529296875,0.021547814831137657,-0.1149216815829277,-0.10295066982507706
1766401359870115000,-0.265885009765625,0.09816227108240128,-0.0454898327589035,-0.0694318488240242
1766401359880124700,-0.255875244140625,0.1388636976480484,-0.08858546614646912,-0.05267243832349777
1766401359920133400,-0.21586669921875,0.19393034279346466,-0.272938996553421,0.002394201699644327
1766401359930143000,-0.20585693359375,0.2561795711517334,-0.19632454216480255,-0.08379705995321274
1766401359940152800,-0.19584716796875,0.2059013396501541,-0.15801730751991272,-0.011971008032560349
1766401359950162700,-0.18583740234375,0.17717093229293823,-0.13407529890537262,-0.05506663769483566
1766401359960203000,-0.175796875,0.09576806426048279,-0.12449848651885986,-0.023942016065120697
1766401359970212600,-0.165787353515625,0.12449848651885986,-0.014365210197865963,-0.07900865375995636
1766401360000242000,-0.135758056640625,0.2537853717803955,-0.014365210197865963,0.035913024097681046
1766401360010251800,-0.125748291015625,0.20111294090747833,-0.19393034279346466,-0.11971008777618408
1766401360020231000,-0.11576904296875,0.22505496442317963,-0.2059013396501541,-0.12210428714752197
1766401360030240800,-0.10575927734375,0.1843535304069519,-0.06703764945268631,-0.11971008777618408
1766401360040250600,-0.095749267578125,0.15562310814857483,-0.22505496442317963,-0.15322890877723694
1766401360050290700,-0.085709228515625,0.22026655077934265,-0.12210428714752197,-0.12210428714752197
1766401360070310400,-0.065689697265625,0.10295066982507706,-0.05506663769483566,-0.10773907601833344
1766401360080350700,-0.055649169921875,0.07900865375995636,0,-0.12928688526153564
1766401360090360300,-0.0456396484375,0.12689268589019775,-0.08619125932455063,-0.19153612852096558
1766401360120389600,-0.0156103515625,0.22026655077934265,-0.16998831927776337,-0.026336219161748886
1766401360130399500,-0.0056005859375,0.14604631066322327,-0.2298433631658554,-0.023942016065120697
1766401360140378600,0.004378662109375,0.07900865375995636,-0.035913024097681046,-0.05506663769483566
1766401360150388500,0.014388427734375,0.14844051003456116,-0.0933738648891449,-0.08619125932455063
1766401360160398000,0.024398193359375,0.19393034279346466,-0.17956513166427612,-0.1364694982767105
1766401360170408000,0.034407958984375,0.26336219906806946,-0.17238251864910126,-0.05746084079146385
1766401360180417800,0.044417724609375,0.1867477297782898,-0.11252748221158981,-0.028730420395731926
1766401360200467700,0.0644677734375,0.16998831927776337,-0.035913024097681046,-0.06224924325942993
1766401360210477600,0.0744775390625,0.12928688526153564,0.05506663769483566,0.019153613597154617
1766401360220487400,0.0844873046875,0.12928688526153564,0.05985504388809204,0.014365210197865963
1766401360230497000,0.0944970703125,0.05746084079146385,-0.033518824726343155,-0.0454898327589035
1766401360240507000,0.1045068359375,0.1388636976480484,0.035913024097681046,0.11013327538967133
1766401360250516700,0.114516845703125,0.047884032130241394,-0.10534487664699554,0.0454898327589035
1766401360260526300,0.1245263671875,0.2298433631658554,-0.09816227108240128,0.0071826050989329815
1766401360270536200,0.1345361328125,0.2944868206977844,0.05506663769483566,0.06224924325942993
1766401360280515300,0.144515380859375,0.3519476354122162,-0.16759411990642548,-0.08379705995321274
1766401360290555600,0.1545556640625,0.3974374830722809,-0.21547815203666687,-0.1412578970193863
1766401360300565500,0.1645654296875,0.37828385829925537,-0.1364694982767105,-0.12210428714752197
1766401360340696000,0.204696044921875,-0.09816227108240128,-0.43095630407333374,0.42377370595932007
1766401360360776700,0.224776611328125,0.1412578970193863,0.16998831927776337,-0.0694318488240242
1766401360370786300,0.234786376953125,0.08619125932455063,-0.1604115068912506,0.05267243832349777
1766401360380796200,0.244796142578125,0.19871874153614044,0.1412578970193863,0.08619125932455063
1766401360390806000,0.254805908203125,0.17717093229293823,0.14604631066322327,0.20111294090747833
1766401360420865800,0.28486572265625,0.4644751250743866,0.12689268589019775,-0.05506663769483566
1766401360430875400,0.29487548828125,0.5937620401382446,0.016759412363171577,-0.17477671802043915
1766401360440915700,0.304915771484375,0.6320692300796509,-0.011971008032560349,-0.23942017555236816
1766401360450925600,0.314925537109375,0.6153098344802856,-0.2513911724090576,-0.28730419278144836
1766401360460935400,0.324935302734375,0.5267243981361389,-0.5410895943641663,-0.26575639843940735
1766401360470914600,0.33491455078125,0.3232172429561615,-0.5817909836769104,-0.272938996553421
1766401360480985300,0.3449853515625,0.22505496442317963,-0.3902548849582672,-0.20111294090747833
1766401360490995200,0.3549951171875,0.15083470940589905,-0.2082955539226532,-0.11013327538967133
1766401360501004800,0.3650048828125,0.016759412363171577,-0.22266076505184174,-0.15083470940589905
1766401360531034000,0.3950341796875,-0.15801730751991272,0,0.12689268589019775
1766401360541044000,0.4050439453125,-0.05985504388809204,0.12210428714752197,0.23942017555236816
1766401360551084300,0.415084228515625,-0.19393034279346466,-0.31842881441116333,0.028730420395731926
1766401360571134200,0.43513427734375,-0.07900865375995636,0.033518824726343155,0.06224924325942993
1766401360581144000,0.44514404296875,-0.2082955539226532,-0.047884032130241394,0.08619125932455063
1766401360591154000,0.45515380859375,-0.2849099934101105,-0.14365209639072418,0.0933738648891449
1766401360601163500,0.46516357421875,-0.21547815203666687,0.023942016065120697,0.16998831927776337
1766401360631254000,0.49525390625,-0.24181437492370605,0.023942016065120697,0.30885201692581177
1766401360651304000,0.515303955078125,-0.15562310814857483,-0.2585737705230713,0.13407529890537262
1766401360661313800,0.525313720703125,-0.08619125932455063,-0.033518824726343155,0.08858546614646912
1766401360671354000,0.53535400390625,0.019153613597154617,-0.07182604819536209,-0.028730420395731926
1766401360681363700,0.54536376953125,0.1149216815829277,0.06464344263076782,0.047884032130241394
1766401360691404000,0.555404052734375,0.19393034279346466,0.20350714027881622,0.17717093229293823
1766401360701414000,0.565413818359375,0.17238251864910126,0.2059013396501541,0.26815059781074524
1766401360711423500,0.575423583984375,0.031124621629714966,0.304063618183136,0.21787235140800476
1766401360731443200,0.595443115234375,0.06464344263076782,0.26815059781074524,-0.10773907601833344
1766401360751462700,0.615462646484375,0.45010992884635925,-0.24181437492370605,-0.2585737705230713
1766401360761472500,0.625472412109375,0.5746083855628967,-0.24181437492370605,-0.1149216815829277
1766401360771482000,0.635482177734375,0.5291185975074768,-0.07422025501728058,-0.23942017555236816
1766401360781492000,0.645491943359375,0.47644615173339844,0.2346317619085312,-0.17956513166427612
1766401360791501800,0.655501708984375,0.5841852426528931,0.48602294921875,-0.2992752194404602
1766401360801511400,0.665511474609375,0.6488286852836609,0.6177040338516235,-0.14844051003456116
1766401360811551700,0.6755517578125,0.5363011956214905,-0.2849099934101105,0.016759412363171577
1766401360831602000,0.695601806640625,0.45010992884635925,-0.3232172429561615,-0.1149216815829277
1766401360841611500,0.705611572265625,0.35673606395721436,-0.004788403399288654,0.21787235140800476
1766401360851682300,0.715682373046875,0.0933738648891449,-0.038307227194309235,-0.1412578970193863
1766401360861692200,0.725692138671875,-0.023942016065120697,1.3311761617660522,0.09576806426048279
1766401360871732500,0.735732421875,0.031124621629714966,2.099714994430542,0.2585737705230713
1766401360881742000,0.7457421875,0.06464344263076782,0.7565677165985107,0.05985504388809204
1766401360901731300,0.7657314453125,-0.016759412363171577,-2.937685489654541,-0.36152446269989014
1766401360911741000,0.775740966796875,0.17238251864910126,-2.3271639347076416,-0.06703764945268631
1766401360941770200,0.805770263671875,-0.29209262132644653,-0.9624691009521484,0.004788403399288654
1766401360951810600,0.815810546875,-0.49799394607543945,-0.1604115068912506,-0.05746084079146385
1766401360961851000,0.825850830078125,-0.5363011956214905,0.6967126727104187,-0.1149216815829277
1766401360971860500,0.835860595703125,-0.6847416758537292,0.4620809257030487,0.12449848651885986
1766401360981870300,0.845870361328125,-0.33997663855552673,-0.9792284965515137,-0.0454898327589035
1766401360991880200,0.855880126953125,-0.040701430290937424,-1.8962076902389526,-0.08619125932455063
1766401361001889800,0.865889892578125,0.13407529890537262,-1.556231141090393,-0.45010992884635925
1766401361011899600,0.875899658203125,0.0454898327589035,-1.4844050407409668,-0.48602294921875
1766401361021879000,0.885879150390625,-0.6631938815116882,-1.9345149993896484,-0.2992752194404602
1766401361061918000,0.92591796875,-0.3758896589279175,-1.0845733880996704,0.09816227108240128
1766401361071927800,0.935927734375,-0.43335050344467163,-1.170764684677124,-0.17956513166427612
1766401361081968000,0.945968017578125,-0.1173158809542656,-1.1563993692398071,-0.31603461503982544
1766401361091977700,0.955977783203125,0.15801730751991272,-1.0414776802062988,-0.2082955539226532
1766401361101987600,0.965987548828125,0.15083470940589905,-0.8331822156906128,-0.17477671802043915
1766401361122037500,0.98603759765625,-0.2298433631658554,-0.9816226959228516,-0.2082955539226532
1766401361132047400,0.99604736328125,-0.14844051003456116,-1.1540051698684692,-0.3232172429561615
1766401361152066800,1.01606689453125,-0.181959331035614,-1.5275006294250488,-0.4884171485900879
1766401361162107100,1.026107177734375,-0.36152446269989014,-1.6352397203445435,-0.18914192914962769
1766401361172117000,1.036116943359375,-0.7661445140838623,-1.4939818382263184,-0.3208230137825012
1766401361182126600,1.046126708984375,-0.9481038451194763,-1.1683704853057861,-0.6057330369949341
1766401361192136400,1.056136474609375,-0.8092401623725891,-0.8451532125473022,-0.5506663918495178
1766401361202146300,1.066146240234375,-0.272938996553421,-0.8810662031173706,-0.45010992884635925
1766401361212156000,1.076156005859375,0.0454898327589035,-0.950498104095459,-0.43095630407333374
1766401361222165800,1.086165771484375,0.16519992053508759,-0.9864110946655273,-0.1149216815829277
1766401361232175600,1.096175537109375,0.3758896589279175,-0.9241618514060974,-0.0694318488240242
1766401361242185200,1.106185302734375,0.2777273952960968,-0.6847416758537292,0.26096799969673157
1766401361272245200,1.136245361328125,-0.8954314589500427,-0.011971008032560349,1.0438719987869263
1766401361282194000,1.14619384765625,-1.400607943534851,0.304063618183136,1.2737152576446533
1766401361292234200,1.156234130859375,-1.699883222579956,0.31603461503982544,0.7757213711738586
1766401361302243800,1.166243896484375,-1.800439715385437,0.31364041566848755,0.5027823448181152
1766401361312223200,1.17622314453125,-2.322375535964966,0.48602294921875,0.2777273952960968
1766401361332273200,1.196273193359375,-2.250549554824829,1.436521053314209,0.22744916379451752
1766401361352323300,1.2163232421875,-1.8339585065841675,1.8531121015548706,0.011971008032560349
1766401361382352600,1.2463525390625,-2.4803929328918457,1.98958158493042,-0.3232172429561615
1766401361392362200,1.2563623046875,-2.3750481605529785,2.300827741622925,-0.3232172429561615
1766401361402341600,1.266341552734375,-2.360682964324951,2.403778553009033,-0.2777273952960968
1766401361412382000,1.2763818359375,-1.9800047874450684,2.4444799423217773,-0.2849099934101105
1766401361422391600,1.2863916015625,-1.4628572463989258,2.5498247146606445,-0.24899697303771973
1766401361432401400,1.2964013671875,-0.9648633003234863,2.6671407222747803,-0.2346317619085312
1766401361442441700,1.306441650390625,-0.4572925269603729,2.9281086921691895,-0.47165772318840027
1766401361482541800,1.346541748046875,-0.5674257874488831,2.3558945655822754,-0.1412578970193863
1766401361492551400,1.356551513671875,-0.5482721924781799,2.762908697128296,-0.07182604819536209
1766401361502500400,1.366500244140625,-0.33518823981285095,2.6886885166168213,-0.07422025501728058
1766401361512479500,1.3764794921875,-0.22266076505184174,2.6001031398773193,-0.016759412363171577
1766401361522519800,1.386519775390625,-0.10295066982507706,2.5689783096313477,0.08379705995321274
1766401361532529700,1.39652978515625,0.08619125932455063,2.626439332962036,0.08379705995321274
1766401361542539300,1.406539306640625,-0.12449848651885986,2.875436305999756,0.14844051003456116
1766401361562558700,1.426558837890625,-0.14604631066322327,1.625662922859192,-0.2537853717803955
1766401361572599000,1.43659912109375,-0.35434186458587646,0.8978256583213806,-0.10055647045373917
1766401361582609000,1.44660888671875,-0.2849099934101105,-0.028730420395731926,-0.0694318488240242
1766401361592649200,1.456649169921875,-0.05746084079146385,0.13407529890537262,0.08140286058187485
1766401361602659000,1.4666591796875,0.3064578175544739,0.6536170840263367,0.37828385829925537
1766401361612699100,1.47669921875,0.38067805767059326,0.7829039692878723,0.7924807667732239
1766401361622709000,1.486708984375,0.2968810200691223,0.6967126727104187,0.7948749661445618
1766401361632718800,1.49671875,0.2849099934101105,0.3734954595565796,0.6033388376235962
1766401361642789600,1.50678955078125,0.5051765441894531,-0.0071826050989329815,0.5410895943641663
1766401361652799200,1.51679931640625,0.7326257228851318,-0.028730420395731926,0.646434485912323
1766401361672788200,1.536788330078125,1.1252747774124146,-0.05027823522686958,0.19871874153614044
1766401361682828500,1.54682861328125,1.237802267074585,-0.38067805767059326,-0.021547814831137657
1766401361692838400,1.55683837890625,1.0965443849563599,-0.5650315880775452,-0.14604631066322327
1766401361712857900,1.57685791015625,0.29209262132644653,-0.4165911078453064,-0.031124621629714966
1766401361722898200,1.586898193359375,0.10534487664699554,0.26096799969673157,0.1388636976480484
1766401361732908000,1.596907958984375,0.5267243981361389,0.8236053586006165,0.047884032130241394
1766401361742917600,1.606917724609375,0.5722141861915588,0.6607996821403503,-0.2825157940387726
1766401361752927500,1.616927490234375,0.35913026332855225,0.6153098344802856,-0.24899697303771973
1766401361762967800,1.6269677734375,0.3711012601852417,1.3335703611373901,-0.2777273952960968
1766401361782987300,1.6469873046875,0.13168109953403473,1.357512354850769,-0.3447650372982025
1766401361803037400,1.667037353515625,-0.4165911078453064,0.871489405632019,-1.278503656387329
1766401361813047000,1.677047119140625,-0.569819986820221,1.0989385843276978,-1.1468225717544556
1766401361823057000,1.687056884765625,-1.0965443849563599,1.4963760375976562,-0.7422025203704834
1766401361843106800,1.70710693359375,-2.427720546722412,-0.6488286852836609,-1.0414776802062988
1766401361853116700,1.71711669921875,-2.1332337856292725,-1.678335428237915,-1.1109095811843872
1766401361863126500,1.72712646484375,-1.6519991159439087,-1.5203180313110352,-0.9481038451194763
1766401361883146000,1.74714599609375,-1.2713210582733154,-0.8092401623725891,-0.9169792532920837
1766401361893155800,1.75715576171875,-1.501164436340332,-0.9959878921508789,-1.1516109704971313
1766401361903165400,1.76716552734375,-1.7549498081207275,-1.0247182846069336,-0.9576807022094727
1766401361913175300,1.77717529296875,-1.3263877630233765,-0.6751648783683777,-0.7661445140838623
1766401361923215600,1.787215576171875,-0.9959878921508789,-0.7948749661445618,-0.8259995579719543
1766401361933256000,1.797255859375,-0.7422025203704834,-0.7757213711738586,-1.094150185585022
1766401361943265500,1.807265625,-0.9624691009521484,-1.2617442607879639,-0.9864110946655273
1766401361953275400,1.817275390625,-1.158793568611145,-1.9967641830444336,-1.039083480834961
1766401361963285200,1.82728515625,-1.525106430053711,-2.717418909072876,-0.8978256583213806
1766401361973294800,1.837294921875,-1.8555063009262085,-2.7916390895843506,-0.8451532125473022
1766401361993314600,1.857314453125,-1.8387469053268433,-2.0039467811584473,-0.6943184733390808
1766401362003324200,1.86732421875,-1.4915876388549805,-1.9943699836730957,-0.31842881441116333
1766401362013334000,1.877333984375,-1.1755530834197998,-1.9512743949890137,-0.06224924325942993
1766401362023343900,1.88734375,-0.6440402865409851,-1.3718775510787964,0.031124621629714966
1766401362033353500,1.897353515625,-0.08619125932455063,-0.6536170840263367,0.16519992053508759
1766401362043393800,1.907393798828125,0.21308395266532898,0.26336219906806946,0.24899697303771973
1766401362063413200,1.927413330078125,0.545877993106842,2.0685901641845703,0.30885201692581177
1766401362073392600,1.937392578125,0.727837324142456,2.5785553455352783,0.15801730751991272
1766401362083433000,1.947432861328125,0.8882488012313843,2.7533318996429443,0.033518824726343155
1766401362113431600,1.977431640625,0.5171475410461426,2.207453966140747,-0.16519992053508759
1766401362123472000,1.987471923828125,0.28730419278144836,2.1092917919158936,-0.2561795711517334
1766401362133481700,1.997481689453125,0.12928688526153564,1.8698714971542358,-0.38307225704193115
1766401362143491600,2.00749169921875,0.043095629662275314,1.802833914756775,-0.47165772318840027
1766401362153470700,2.017470703125,0.023942016065120697,1.5825673341751099,-0.45489832758903503
1766401362163511000,2.027510986328125,-0.11971008777618408,1.170764684677124,-0.6440402865409851
1766401362173520600,2.037520751953125,-0.18914192914962769,0.7398083209991455,-0.8068459630012512
1766401362203580700,2.06758056640625,0.002394201699644327,-0.1412578970193863,-1.091755986213684
1766401362213620700,2.077620849609375,-0.0694318488240242,-0.5003881454467773,-1.5203180313110352
1766401362223630600,2.087630615234375,-0.17956513166427612,-0.8427590131759644,-1.699883222579956
1766401362233640400,2.097640380859375,-0.17477671802043915,-1.0031704902648926,-1.7501614093780518
1766401362243650000,2.107650146484375,-0.1628057211637497,-1.1180921792984009,-1.5538369417190552
1766401362253690400,2.1176904296875,-0.043095629662275314,-1.1444283723831177,-1.4652514457702637
1766401362263639300,2.127639404296875,0.05506663769483566,-1.0678139925003052,-1.2856862545013428
1766401362273679400,2.137679443359375,0.10534487664699554,-0.9552865028381348,-0.9265560507774353
1766401362283689200,2.147689208984375,0.20350714027881622,-0.8212111592292786,-0.6440402865409851
1766401362333799200,2.197799072265625,-0.011971008032560349,-0.16998831927776337,0.12689268589019775
1766401362343808800,2.207808837890625,0.10295066982507706,0.09816227108240128,-0.014365210197865963
1766401362353879600,2.217879638671875,0.07182604819536209,0.3447650372982025,-0.2561795711517334
1766401362363889400,2.227889404296875,0.1388636976480484,0.5626373887062073,-0.37828385829925537
1766401362373899300,2.237899169921875,0.11971008777618408,0.5985504388809204,-0.3974374830722809
1766401362383908900,2.247908935546875,0.19871874153614044,0.8690952062606812,-0.6751648783683777
1766401362393918700,2.257918701171875,0.14844051003456116,1.0438719987869263,-0.8667010068893433
1766401362433958000,2.2979580078125,-0.17477671802043915,0.5051765441894531,-0.5602431893348694
1766401362443967500,2.307967529296875,-0.24181437492370605,0.4405331015586853,-0.524330198764801
1766401362453947000,2.31794677734375,-0.272938996553421,0.6105214357376099,-0.6129156351089478
1766401362463956500,2.32795654296875,-0.43095630407333374,0.7445967197418213,-0.7110779285430908
1766401362483976200,2.34797607421875,-0.6919242739677429,0.9409212470054626,-1.161187767982483
1766401362493985800,2.35798583984375,-0.8331822156906128,0.9911994934082031,-1.4963760375976562
1766401362503995600,2.36799560546875,-0.8571242094039917,0.8906430602073669,-1.702277421951294
1766401362544065300,2.408065185546875,-0.6799532771110535,0.8259995579719543,-1.0079588890075684
1766401362554075000,2.418074951171875,-0.7613561153411865,0.8738836050033569,-0.8786720037460327
1766401362564084700,2.428084716796875,-0.8786720037460327,0.8236053586006165,-0.7613561153411865
1766401362574094600,2.438094482421875,-0.9911994934082031,0.6799532771110535,-0.5889736413955688
1766401362584104200,2.448104248046875,-1.194706678390503,0.6919242739677429,-0.6248866319656372
1766401362594114000,2.458114013671875,-1.3263877630233765,0.5123591423034668,-0.6512228846549988
1766401362604154400,2.468154296875,-1.3192051649093628,0.45489832758903503,-0.5770025849342346
1766401362644224000,2.50822412109375,-0.5363011956214905,0.31603461503982544,-0.021547814831137657
1766401362654233600,2.518233642578125,-0.3471592366695404,0.30885201692581177,-0.05267243832349777
1766401362664243500,2.528243408203125,-0.3064578175544739,0.3495534360408783,-0.12210428714752197
1766401362674283800,2.53828369140625,-0.36152446269989014,0.47884035110473633,0.047884032130241394
1766401362694364200,2.5583642578125,-0.4213795065879822,0.16998831927776337,0.09816227108240128
1766401362704343600,2.568343505859375,-0.48602294921875,0.07661445438861847,-0.13407529890537262
1766401362714353200,2.578353271484375,-0.5003881454467773,-0.0454898327589035,-0.3495534360408783
1766401362754392300,2.618392333984375,0.026336219161748886,-0.3519476354122162,-1.0438719987869263
1766401362764402200,2.628402099609375,-0.002394201699644327,-0.3280056416988373,-1.170764684677124
1766401362774411800,2.638411865234375,-0.09816227108240128,-0.35434186458587646,-1.1994950771331787
1766401362784421600,2.648421630859375,-0.2585737705230713,-0.5841852426528931,-1.2976573705673218
1766401362794431500,2.658431396484375,-0.304063618183136,-0.9074024558067322,-1.599326729774475
1766401362804441000,2.668441162109375,-0.22266076505184174,-1.1228805780410767,-1.7860745191574097
1766401362814451000,2.678450927734375,-0.07182604819536209,-1.235408067703247,-1.8914192914962769
1766401362824460800,2.688460693359375,-0.043095629662275314,-1.2713210582733154,-1.9081788063049316
1766401362844510700,2.7085107421875,0.19393034279346466,-1.4772224426269531,-1.7549498081207275
1766401362874479000,2.73847900390625,0.49799394607543945,-1.4844050407409668,-1.6160861253738403
1766401362884519400,2.74851953125,0.6177040338516235,-1.357512354850769,-1.6304513216018677
1766401362894529000,2.758529052734375,0.6799532771110535,-1.3623007535934448,-1.7956513166427612
1766401362904539000,2.768538818359375,0.8403648138046265,-1.3838485479354858,-1.7621324062347412
1766401362914609700,2.778609619140625,0.9696516990661621,-1.403002142906189,-1.656787633895874
1766401362944639000,2.808638916015625,0.9145850539207458,-1.3096283674240112,-1.2425906658172607
1766401362954648600,2.818648681640625,0.9193734526634216,-1.3192051649093628,-1.2641384601593018
1766401362964658400,2.828658447265625,1.0127472877502441,-1.4173674583435059,-1.4676456451416016
1766401362974668300,2.838668212890625,1.1085153818130493,-1.659181833267212,-1.6424223184585571
1766401362994718200,2.85871826171875,1.2545616626739502,-1.7956513166427612,-1.8602946996688843
1766401363004728000,2.86872802734375,1.2090718746185303,-1.843535304069519,-1.699883222579956
1766401363014738000,2.878738037109375,1.3479355573654175,-1.7597382068634033,-1.8100165128707886
1766401363044736500,2.908736572265625,1.4173674583435059,-1.800439715385437,-1.8363527059555054
1766401363054746400,2.918746337890625,1.2066776752471924,-1.8100165128707886,-1.6879122257232666
1766401363064756200,2.928756103515625,1.0654197931289673,-1.7908629179000854,-1.5753847360610962
1766401363074796300,2.93879638671875,1.0749965906143188,-1.8100165128707886,-1.5729905366897583
1766401363084836600,2.948836669921875,1.1252747774124146,-1.8986018896102905,-1.3455413579940796
1766401363094846500,2.958846435546875,1.1971008777618408,-1.7357962131500244,-1.2018892765045166
1766401363104856300,2.968856201171875,1.235408067703247,-1.7118542194366455,-1.3000515699386597
1766401363114866000,2.978865966796875,1.4389152526855469,-1.7166426181793213,-1.359906554222107
1766401363124875800,2.988875732421875,1.4867992401123047,-1.644816517829895,-1.2425906658172607
1766401363134885600,2.9988857421875,1.338358759880066,-1.5418659448623657,-1.1755530834197998
1766401363164884200,3.02888427734375,1.015141487121582,-1.237802267074585,-0.8403648138046265
1766401363184904000,3.048904052734375,0.9600749015808105,-1.1252747774124146,-0.8307880163192749
1766401363194913500,3.05891357421875,1.039083480834961,-1.139639973640442,-0.7661445140838623
1766401363204923400,3.06892333984375,1.1109095811843872,-1.0654197931289673,-0.727837324142456
1766401363214933000,3.07893310546875,1.0797849893569946,-0.9792284965515137,-0.7134721279144287
1766401363224912400,3.088912353515625,1.0749965906143188,-0.9648633003234863,-0.7374141216278076
1766401363234952700,3.09895263671875,0.9289502501487732,-0.9026140570640564,-0.667982280254364
1766401363255002600,3.119002685546875,0.7493851184844971,-1.0319008827209473,-0.5363011956214905
1766401363264982000,3.12898193359375,0.7805097699165344,-1.05105459690094,-0.49559974670410156
1766401363274991600,3.13899169921875,0.7469909191131592,-0.9385270476341248,-0.3998316824436188
1766401363285032000,3.149031982421875,0.6751648783683777,-0.9217676520347595,-0.3998316824436188
1766401363295041800,3.159041748046875,0.6248866319656372,-0.9097966551780701,-0.40462008118629456
1766401363305021000,3.16902099609375,0.5482721924781799,-0.8044517636299133,-0.3208230137825012
1766401363315030800,3.17903076171875,0.38307225704193115,-0.6129156351089478,-0.3687070608139038
1766401363325071000,3.189071044921875,0.31364041566848755,-0.5770025849342346,-0.1867477297782898
1766401363335080700,3.199080810546875,0.16759411990642548,-0.6248866319656372,-0.05027823522686958
1766401363345090600,3.209090576171875,0.028730420395731926,-0.5817909836769104,0.016759412363171577
1766401363365110000,3.229110107421875,-0.009576806798577309,-0.2513911724090576,0.18914192914962769
1766401363385129700,3.249129638671875,-0.023942016065120697,-0.08379705995321274,0.2801215946674347
1766401363395200500,3.259200439453125,-0.07422025501728058,-0.11971008777618408,0.2849099934101105
1766401363405210000,3.269210205078125,-0.2537853717803955,-0.11013327538967133,0.2849099934101105
1766401363415281000,3.279281005859375,-0.2801215946674347,0.028730420395731926,0.3256114423274994
1766401363425290800,3.289290771484375,-0.3519476354122162,0.09816227108240128,0.395043283700943
1766401363435331000,3.2993310546875,-0.4141969084739685,0.028730420395731926,0.3064578175544739
1766401363445371400,3.309371337890625,-0.4429273009300232,0.11013327538967133,0.19393034279346466
1766401363455381000,3.319381103515625,-0.38307225704193115,-0.09816227108240128,0.12928688526153564
1766401363485410300,3.349410400390625,-0.38307225704193115,-0.31364041566848755,-0.16519992053508759
1766401363495420200,3.359420166015625,-0.2968810200691223,-0.3016694188117981,-0.2825157940387726
1766401363505430000,3.369429931640625,-0.2849099934101105,-0.33039984107017517,-0.43335050344467163
1766401363515439600,3.379439697265625,-0.2513911724090576,-0.3232172429561615,-0.5147533416748047
1766401363525449500,3.389449462890625,-0.2513911724090576,-0.3998316824436188,-0.5985504388809204
1766401363535459300,3.399459228515625,-0.2944868206977844,-0.49799394607543945,-0.5841852426528931
1766401363545438500,3.4094384765625,-0.27054479718208313,-0.5722141861915588,-0.5961562395095825
1766401363555448300,3.4194482421875,-0.28969839215278625,-0.5482721924781799,-0.7326257228851318
1766401363565488600,3.429488525390625,-0.19632454216480255,-0.6105214357376099,-0.811634361743927
1766401363585508000,3.449508056640625,-0.16519992053508759,-0.6536170840263367,-0.7613561153411865
1766401363595518000,3.45951806640625,-0.035913024097681046,-0.7972691655158997,-0.7876923680305481
1766401363605527600,3.469527587890625,0.021547814831137657,-0.8092401623725891,-0.8547300100326538
1766401363615568000,3.47956787109375,0.15801730751991272,-0.912190854549408,-0.8786720037460327
1766401363625577700,3.48957763671875,0.2537853717803955,-0.9074024558067322,-0.7852981686592102
1766401363635587300,3.49958740234375,0.22505496442317963,-0.9409212470054626,-0.7805097699165344
1766401363645566700,3.509566650390625,0.3208230137825012,-0.9911994934082031,-0.7374141216278076
1766401363655607000,3.51960693359375,0.44532153010368347,-0.9217676520347595,-0.6416460275650024
1766401363665616600,3.52961669921875,0.5195417404174805,-0.7541735172271729,-0.7110779285430908
1766401363705686300,3.569686279296875,0.727837324142456,-0.22744916379451752,-0.9959878921508789
1766401363715757000,3.579757080078125,0.8355764150619507,-0.1604115068912506,-0.7996633648872375
1766401363725767000,3.589766845703125,0.8978256583213806,-0.10773907601833344,-0.8834604024887085
1766401363735776500,3.599776611328125,0.9720458984375,0.12449848651885986,-0.8259995579719543
1766401363755796200,3.619796142578125,0.9050082564353943,0.5363011956214905,-0.8331822156906128
1766401363805906000,3.669906005859375,0.6105214357376099,0.6272808313369751,-0.5817909836769104
1766401363825925600,3.689925537109375,0.44532153010368347,0.26575639843940735,-0.8643068075180054
1766401363835935200,3.699935302734375,0.47884035110473633,-0.043095629662275314,-1.1324573755264282
1766401363845975600,3.7099755859375,0.5147533416748047,-0.07422025501728058,-1.338358759880066
1766401363855985400,3.7199853515625,0.42616790533065796,-0.06703764945268631,-1.5059528350830078
1766401363865964500,3.729964599609375,0.2849099934101105,-0.1867477297782898,-1.656787633895874
1766401363876004900,3.7400048828125,0.26336219906806946,-0.33518823981285095,-1.659181833267212
1766401363896055000,3.760054931640625,0.304063618183136,-0.3878606855869293,-1.6759412288665771
1766401363906034200,3.7700341796875,0.3064578175544739,-0.40222588181495667,-1.6903064250946045
1766401363916044000,3.7800439453125,0.33518823981285095,-0.4429273009300232,-1.6424223184585571
1766401363926053600,3.7900537109375,0.2968810200691223,-0.5386953949928284,-1.5969325304031372
1766401363936094000,3.800093994140625,0.22026655077934265,-0.5961562395095825,-1.5753847360610962
1766401363946073300,3.8100732421875,0.2537853717803955,-0.5889736413955688,-1.3311761617660522
1766401363956113400,3.820113525390625,0.2322375625371933,-0.5937620401382446,-1.0845733880996704
1766401363966123300,3.830123291015625,0.2992752194404602,-0.5626373887062073,-0.8331822156906128
1766401363976133000,3.840133056640625,0.36152446269989014,-0.4692635238170624,-0.5410895943641663
1766401363986142700,3.850142822265625,0.3878606855869293,-0.3974374830722809,-0.5099649429321289
1766401363996183000,3.86018310546875,0.43095630407333374,-0.3208230137825012,-0.3878606855869293
1766401364016202800,3.88020263671875,0.44771572947502136,-0.2537853717803955,-0.12449848651885986
1766401364036191700,3.900191650390625,0.524330198764801,-0.07661445438861847,0.33039984107017517
1766401364046201300,3.910201416015625,0.5147533416748047,0.06224924325942993,0.608127236366272
1766401364056211200,3.920211181640625,0.5482721924781799,0.19632454216480255,0.7134721279144287
1766401364066221000,3.930220947265625,0.5147533416748047,0.24181437492370605,0.7565677165985107
1766401364076261000,3.94026123046875,0.44771572947502136,0.2585737705230713,0.8667010068893433
1766401364086301400,3.950301513671875,0.44532153010368347,0.2346317619085312,0.9002198576927185
1766401364116330800,3.980330810546875,0.30885201692581177,0.15801730751991272,1.0606313943862915
1766401364126340600,3.990340576171875,0.2513911724090576,0.10773907601833344,1.048660397529602
1766401364136350500,4.0003505859375,0.2968810200691223,0.07182604819536209,0.9457096457481384
1766401364146360000,4.010360107421875,0.272938996553421,-0.040701430290937424,0.7733271718025208
1766401364156370000,4.020369873046875,0.23702596127986908,-0.009576806798577309,0.7445967197418213
1766401364166379500,4.030379638671875,0.23702596127986908,-0.08858546614646912,0.6248866319656372
1766401364176419800,4.040419921875,0.24181437492370605,-0.1628057211637497,0.4908113479614258
1766401364186399200,4.050399169921875,0.1867477297782898,-0.2106897532939911,0.42856210470199585
1766401364196408800,4.060408935546875,0.15322890877723694,-0.2801215946674347,0.3447650372982025
1766401364206418700,4.070418701171875,0.05027823522686958,-0.2849099934101105,0.2753331959247589
1766401364216428500,4.080428466796875,-0.028730420395731926,-0.3208230137825012,0.10773907601833344
1766401364256437000,4.12043701171875,-0.21547815203666687,-0.3471592366695404,-0.3711012601852417
1766401364266446800,4.13044677734375,-0.2944868206977844,-0.47644615173339844,-0.3734954595565796
1766401364276487200,4.140487060546875,-0.23702596127986908,-0.44532153010368347,-0.31842881441116333
1766401364286496800,4.150496826171875,-0.3447650372982025,-0.3878606855869293,-0.4213795065879822
1766401364296537000,4.160537109375,-0.4908113479614258,-0.3256114423274994,-0.35913026332855225
1766401364306547000,4.170546875,-0.6224924325942993,-0.31124621629714966,-0.3471592366695404
1766401364326566400,4.19056640625,-0.9768342971801758,-0.3687070608139038,-0.45010992884635925
1766401364336576300,4.200576171875,-1.0295066833496094,-0.304063618183136,-0.40462008118629456
1766401364346585900,4.2105859375,-1.0678139925003052,-0.2082955539226532,-0.5913678407669067
1766401364356595700,4.220595703125,-1.0103530883789062,0.009576806798577309,-0.6105214357376099
1766401364366605600,4.23060546875,-0.9911994934082031,0.1364694982767105,-0.6703764796257019
1766401364386625000,4.250625,-1.0342950820922852,0.6727706789970398,-0.6440402865409851
1766401364396635000,4.260634765625,-1.0199298858642578,0.8355764150619507,-0.4644751250743866
1766401364426664200,4.290664306640625,-0.608127236366272,0.9576807022094727,0.031124621629714966
1766401364436673800,4.300673828125,-0.3902548849582672,1.0223240852355957,0.2322375625371933
1766401364446683600,4.31068359375,-0.24420857429504395,1.01753568649292,0.3208230137825012
1766401364456693200,4.320693359375,-0.1149216815829277,0.9457096457481384,0.4405331015586853
1766401364476743400,4.340743408203125,-0.035913024097681046,0.8643068075180054,0.5985504388809204
1766401364486783700,4.35078369140625,-0.021547814831137657,0.8140285611152649,0.6200982332229614
1766401364496793300,4.36079345703125,0.05027823522686958,0.667982280254364,0.6153098344802856
1766401364506772700,4.370772705078125,0.10773907601833344,0.6607996821403503,0.5722141861915588
1766401364536863000,4.400863037109375,0.30885201692581177,0.37828385829925537,0.2059013396501541
1766401364546872800,4.410872802734375,0.3232172429561615,0.28969839215278625,0.040701430290937424
1766401364556913200,4.4209130859375,0.3208230137825012,0.22505496442317963,0.0694318488240242
1766401364566922800,4.4309228515625,0.3423708379268646,0.1149216815829277,-0.019153613597154617
1766401364576932600,4.4409326171875,0.3758896589279175,-0.09576806426048279,-0.2059013396501541
1766401364586942500,4.4509423828125,0.3878606855869293,-0.26336219906806946,-0.21547815203666687
1766401364596952000,4.4609521484375,0.44532153010368347,-0.49799394607543945,-0.507570743560791
1766401364606992400,4.470992431640625,0.43095630407333374,-0.5937620401382446,-0.7924807667732239
1766401364617002200,4.481002197265625,0.3902548849582672,-0.768538773059845,-1.2617442607879639
1766401364637052200,4.50105224609375,0.16759411990642548,-0.9145850539207458,-1.7046716213226318
1766401364647062000,4.51106201171875,0.16519992053508759,-1.0414776802062988,-1.946485996246338
1766401364657071900,4.52107177734375,0.24420857429504395,-1.2617442607879639,-2.207453966140747
1766401364667081500,4.53108154296875,0.3208230137825012,-1.4748282432556152,-2.140416383743286
1766401364677121800,4.541121826171875,0.35434186458587646,-1.6041151285171509,-2.1978771686553955
1766401364687131600,4.551131591796875,0.3878606855869293,-1.702277421951294,-2.1930887699127197
1766401364697172000,4.561171875,0.31364041566848755,-1.821987509727478,-2.121262788772583
1766401364707181600,4.571181640625,0.40940847992897034,-1.98958158493042,-1.9919757843017578
1766401364717222000,4.581221923828125,0.586579442024231,-2.121262788772583,-1.8746598958969116
1766401364737241300,4.601241455078125,0.9911994934082031,-2.252943754196167,-1.8076223134994507
1766401364757230600,4.621230712890625,1.1683704853057861,-2.1140801906585693,-1.381454348564148
1766401364767270700,4.631270751953125,1.2018892765045166,-2.03507137298584,-1.1013327836990356
1766401364777280500,4.641280517578125,1.2401964664459229,-1.8411411046981812,-0.646434485912323
1766401364787290400,4.651290283203125,1.414973258972168,-1.7118542194366455,-0.10773907601833344
1766401364797300000,4.661300048828125,1.436521053314209,-1.6136919260025024,0.1867477297782898
1766401364807340300,4.67134033203125,1.5275006294250488,-1.6400281190872192,0.5219359993934631
1766401364827390500,4.691390380859375,1.6759412288665771,-3.2968156337738037,0.3663128614425659
1766401364837400000,4.701400146484375,2.0614075660705566,-5.568912982940674,-0.3758896589279175
1766401364887479600,4.7514794921875,1.778891921043396,-7.208941459655762,-2.47560453414917
1766401364897489200,4.7614892578125,2.7222073078155518,-6.4380083084106445,-2.276885747909546
1766401364907499000,4.7714990234375,3.732560396194458,-6.53377628326416,-1.965639591217041
1766401364917539300,4.781539306640625,4.46518611907959,-6.708553314208984,-1.479616641998291
1766401364927549200,4.791549072265625,4.934449672698975,-7.070077419281006,-0.9528923034667969
1766401364937589200,4.80158935546875,4.757278919219971,-6.998251438140869,-0.22505496442317963
1766401364957639400,4.821639404296875,4.261679172515869,-7.12035608291626,1.1013327836990356
1766401364967649300,4.831649169921875,4.065354347229004,-7.2113356590271,1.4700398445129395
1766401364977659000,4.841658935546875,3.9815573692321777,-6.598419666290283,1.7142484188079834
1766401364987668700,4.851668701171875,3.957615375518799,-5.353435039520264,2.3750481605529785
1766401364997678600,4.8616787109375,3.952826976776123,-5.032611846923828,2.7509377002716064
1766401365007718700,4.87171875,3.555389642715454,-4.659116744995117,3.136404275894165
1766401365017728500,4.881728515625,3.6152446269989014,-4.352658748626709,3.4332852363586426
1766401365027738400,4.89173828125,3.7158010005950928,-3.643975019454956,3.955221176147461
1766401365037778700,4.90177880859375,3.821146011352539,-2.1571757793426514,4.400542736053467
1766401365067838500,4.93183837890625,3.9671921730041504,-1.4844050407409668,4.683058738708496
1766401365087858000,4.95185791015625,4.2329487800598145,-0.790086567401886,3.8762125968933105
1766401365097867800,4.96186767578125,4.165910720825195,-1.0414776802062988,3.3494882583618164
1766401365107847000,4.971846923828125,3.797203779220581,-0.6631938815116882,2.959233283996582
1766401365117856800,4.981856689453125,3.2848446369171143,-0.5291185975074768,2.6599581241607666
1766401365127866400,4.991866455078125,2.765302896499634,-0.6416460275650024,2.27209734916687
1766401365137876200,5.001876220703125,1.8746598958969116,-0.608127236366272,2.1571757793426514
1766401365147886000,5.011885986328125,1.194706678390503,-0.2298433631658554,1.9393033981323242
1766401365177945900,5.04194580078125,0.3663128614425659,-0.629675030708313,1.3455413579940796
1766401365187955500,5.05195556640625,-0.07422025501728058,-1.436521053314209,1.6400281190872192
1766401365197965300,5.06196533203125,-0.5410895943641663,-2.8874073028564453,1.5634137392044067
1766401365208005600,5.072005615234375,-0.646434485912323,-2.9161376953125,1.115697979927063
1766401365218015500,5.082015380859375,-0.8451532125473022,-3.7636849880218506,0.545877993106842
1766401365228025000,5.092025146484375,-1.359906554222107,-4.0749311447143555,-0.38067805767059326
1766401365248105700,5.112105712890625,-2.250549554824829,-2.63362193107605,-1.2066776752471924
1766401365288145000,5.152144775390625,-2.6384103298187256,-1.4987702369689941,-3.0310592651367188
1766401365298185000,5.16218505859375,-2.6815059185028076,-1.3335703611373901,-3.1723172664642334
1766401365308194800,5.17219482421875,-2.911349296569824,-1.4460978507995605,-3.471592426300049
1766401365318204700,5.18220458984375,-3.155557870864868,-0.8595184087753296,-3.622427225112915
1766401365328214300,5.19221435546875,-3.3207578659057617,-0.07182604819536209,-3.581725835800171
1766401365338224000,5.20222412109375,-3.1459810733795166,0.7948749661445618,-3.2154128551483154
1766401365348234000,5.21223388671875,-3.0861260890960693,1.2617442607879639,-3.1076738834381104
1766401365358243600,5.22224365234375,-2.868253707885742,1.070208191871643,-3.4308910369873047
1766401365388242400,5.252242431640625,-2.7126305103302,1.745373010635376,-4.129997730255127
1766401365398252300,5.262252197265625,-2.6216509342193604,2.389413356781006,-4.220977783203125
1766401365408292600,5.272292724609375,-2.6001031398773193,2.75812029838562,-4.355052947998047
1766401365418302200,5.28230224609375,-2.626439332962036,3.4572272300720215,-4.24970817565918
1766401365428312000,5.29231201171875,-2.4684219360351562,3.646369218826294,-4.302380561828613
1766401365438352400,5.302352294921875,-2.499546527862549,3.665522813796997,-4.400542736053467
1766401365448362000,5.312362060546875,-2.736572504043579,3.426102638244629,-4.211400985717773
1766401365458402300,5.32240234375,-2.8850131034851074,2.8874073028564453,-3.9408559799194336
1766401365488462000,5.352462158203125,-1.8626888990402222,4.113238334655762,-2.87064790725708
1766401365498441500,5.36244140625,-1.7334020137786865,4.110844135284424,-2.209848165512085
1766401365508451000,5.372451171875,-1.6184803247451782,3.6583402156829834,-2.1475989818573
1766401365518461000,5.3824609375,-1.6376339197158813,3.845088005065918,-2.10210919380188
1766401365528531700,5.39253173828125,-1.9105730056762695,3.797203779220581,-1.501164436340332
1766401365538541600,5.40254150390625,-2.1595699787139893,3.6128504276275635,-0.8810662031173706
1766401365548459800,5.412459716796875,-2.382230758666992,3.1483752727508545,-0.768538773059845
1766401365558500000,5.4225,-2.0877439975738525,3.026270866394043,-0.8547300100326538
1766401365568509700,5.432509765625,-1.5322890281677246,2.7916390895843506,-1.091755986213684
1766401365578519600,5.44251953125,-1.1109095811843872,2.4181437492370605,-0.8427590131759644
1766401365588529400,5.452529296875,-0.9217676520347595,1.3862427473068237,-0.33279404044151306
1766401365598539000,5.4625390625,-1.213860273361206,0.7350199222564697,0.35434186458587646
1766401365608548900,5.472548828125,-1.4484920501708984,0.9433154463768005,0.5506663918495178
1766401365618558700,5.482558837890625,-1.886630892753601,1.213860273361206,0.7876923680305481
1766401365628568300,5.492568359375,-2.3511061668395996,1.1013327836990356,0.730231523513794
1766401365638578200,5.502578125,-2.6168625354766846,1.1851298809051514,0.5626373887062073
1766401365648587800,5.512587890625,-2.5977089405059814,1.1779472827911377,0.3663128614425659
1766401365658628000,5.522628173828125,-2.4444799423217773,1.3239935636520386,0.8882488012313843
1766401365668607500,5.532607421875,-2.4684219360351562,1.6208745241165161,1.4891934394836426
1766401365688657400,5.552657470703125,-2.300827741622925,1.9704279899597168,2.612074136734009
1766401365698697700,5.56269775390625,-2.5115175247192383,1.3958195447921753,3.00711727142334
1766401365708707600,5.57270751953125,-2.0925323963165283,0.9265560507774353,2.6623523235321045
1766401365718717200,5.58271728515625,-1.678335428237915,0.5889736413955688,2.185906171798706
1766401365728757500,5.592757568359375,-1.3886369466781616,0.0933738648891449,1.9153614044189453
1766401365738767400,5.602767333984375,-1.0271124839782715,0.035913024097681046,1.723825216293335
1766401365748746500,5.61274658203125,-0.4381389021873474,0.730231523513794,1.2976573705673218
1766401365758756400,5.62275634765625,-0.06224924325942993,0.9983820915222168,0.706289529800415
1766401365768766200,5.63276611328125,-0.3280056416988373,0.40462008118629456,0.545877993106842
1766401365798764800,5.662764892578125,0.11971008777618408,0.30885201692581177,0.15322890877723694
1766401365808805000,5.67280517578125,0.569819986820221,0.4836287498474121,-0.10773907601833344
1766401365818784500,5.682784423828125,0.47644615173339844,-0.016759412363171577,-0.24660277366638184
1766401365828794000,5.692794189453125,0.3519476354122162,-0.1867477297782898,-0.16998831927776337
1766401365838834400,5.70283447265625,0.5339069962501526,0.10055647045373917,-0.040701430290937424
1766401365848844300,5.71284423828125,0.1388636976480484,-0.33997663855552673,-0.31842881441116333
1766401365868863700,5.73286376953125,-0.5650315880775452,-0.6871358752250671,-0.5578489899635315
1766401365878873600,5.74287353515625,-0.3758896589279175,0.7326257228851318,-0.6200982332229614
1766401365908933400,5.772933349609375,0.1173158809542656,0.6153098344802856,-1.9967641830444336
1766401365918943200,5.782943115234375,0.05746084079146385,0.6631938815116882,-1.9345149993896484
1766401365928952800,5.792952880859375,0.4836287498474121,0.8068459630012512,-1.6184803247451782
1766401365938962700,5.802962646484375,0.5937620401382446,0.47165772318840027,-1.4484920501708984
1766401365948972500,5.81297265625,1.137245774269104,0.3711012601852417,-1.9488801956176758
1766401365958982100,5.822982177734375,1.647210717201233,0.7541735172271729,-2.674323320388794
1766401365968992000,5.832991943359375,0.933738648891449,0.40701428055763245,-2.6815059185028076
1766401365979001600,5.843001708984375,0.24420857429504395,-0.06703764945268631,-3.224989652633667
1766401365989011500,5.853011474609375,0.3256114423274994,-0.3926490843296051,-3.56017804145813
1766401365999021300,5.863021240234375,0.6033388376235962,-0.5602431893348694,-3.315969467163086
1766401366009031000,5.873031005859375,0.9457096457481384,-0.6033388376235962,-3.337517261505127
1766401366019040800,5.883040771484375,1.2234370708465576,-0.6105214357376099,-3.641580820083618
1766401366029050600,5.893050537109375,1.278503656387329,-0.545877993106842,-3.8570590019226074
1766401366039060200,5.903060302734375,1.2258312702178955,-0.24660277366638184,-3.9456443786621094
1766401366049070000,5.913070068359375,1.0103530883789062,-0.6057330369949341,-4.20421838760376
1766401366059080000,5.923079833984375,0.8523358106613159,-0.6105214357376099,-4.534617900848389
1766401366069089500,5.933089599609375,0.8092401623725891,-0.5578489899635315,-4.369418144226074
1766401366079129900,5.9431298828125,1.0055646896362305,-0.011971008032560349,-3.9432501792907715
1766401366129178600,5.9931787109375,0.6488286852836609,-1.699883222579956,-4.252102375030518
1766401366139188500,6.0031884765625,0.667982280254364,-1.7549498081207275,-3.8522706031799316
1766401366149198300,6.0131982421875,1.1444283723831177,-1.357512354850769,-3.6750996112823486
1766401366159208000,6.0232080078125,1.4245500564575195,-1.9249382019042969,-3.3877954483032227
1766401366169248300,6.033248291015625,1.3239935636520386,-2.470816135406494,-3.1483752727508545
1766401366179258000,6.043258056640625,1.0678139925003052,-2.1380221843719482,-3.0119056701660156
1766401366189237200,6.0532373046875,0.8427590131759644,-1.3623007535934448,-2.4851813316345215
1766401366199247000,6.0632470703125,0.6919242739677429,-0.9002198576927185,-1.900996208190918
1766401366239316700,6.103316650390625,1.5634137392044067,-0.6775590777397156,-1.5969325304031372
1766401366249387500,6.113387451171875,1.7334020137786865,-2.0829553604125977,-1.8315643072128296
1766401366259397000,6.123397216796875,1.7836803197860718,-3.5458126068115234,-1.7070658206939697
1766401366269407000,6.133406982421875,1.4915876388549805,-3.804386615753174,-1.2186486721038818
1766401366279416800,6.143416748046875,0.8643068075180054,-3.0573954582214355,-0.5626373887062073
1766401366289426400,6.153426513671875,0.33518823981285095,-1.8555063009262085,0.12210428714752197
1766401366309476600,6.1734765625,-0.026336219161748886,0.19393034279346466,1.0127472877502441
1766401366319486500,6.183486572265625,0.4596867263317108,-1.2976573705673218,1.0462661981582642
1766401366329557200,6.19355712890625,0.33997663855552673,-2.7964274883270264,0.8188169598579407
1766401366339566800,6.20356689453125,0.26815059781074524,-3.9001545906066895,1.0534487962722778
1766401366349576700,6.21357666015625,0.2849099934101105,-5.504269599914551,1.2425906658172607
1766401366359617000,6.223616943359375,0.1173158809542656,-6.045359134674072,1.2234370708465576
1766401366369626600,6.233626708984375,-0.14604631066322327,-5.372588634490967,1.359906554222107
1766401366379667000,6.2436669921875,-0.47644615173339844,-3.8067808151245117,1.7286136150360107
1766401366389615600,6.25361572265625,-0.5913678407669067,-2.188300371170044,2.0685901641845703
1766401366399656000,6.263656005859375,-0.629675030708313,-2.7437551021575928,1.6280571222305298
1766401366429746400,6.293746337890625,-0.507570743560791,-4.896142482757568,0.6129156351089478
1766401366449766000,6.313765869140625,-0.44532153010368347,-3.3063924312591553,1.5610195398330688
1766401366459775700,6.323775634765625,-0.35673606395721436,-3.998316764831543,1.3120225667953491
1766401366469785300,6.333785400390625,-0.43335050344467163,-4.955997467041016,1.1085153818130493
1766401366479795200,6.343795166015625,-0.4596867263317108,-5.612008571624756,1.1252747774124146
1766401366489805000,6.35380517578125,-0.23702596127986908,-5.044582843780518,1.3982137441635132
1766401366499814700,6.363814697265625,0.05267243832349777,-4.218583583831787,1.6759412288665771
1766401366509824500,6.373824462890625,0.2753331959247589,-3.421314239501953,1.7621324062347412
1766401366519864800,6.38386474609375,0.2753331959247589,-2.8203697204589844,1.900996208190918
1766401366529874400,6.39387451171875,0.5315127968788147,-2.4013843536376953,2.140416383743286
1766401366539884300,6.40388427734375,0.730231523513794,-2.049436569213867,2.2864625453948975
1766401366549894100,6.41389404296875,0.7757213711738586,-2.073378562927246,2.0925323963165283
1766401366559873300,6.423873291015625,0.44532153010368347,-2.293645143508911,1.5083470344543457
1766401366569913600,6.43391357421875,-0.021547814831137657,-2.736572504043579,0.9457096457481384
1766401366579923500,6.44392333984375,-0.272938996553421,-2.6216509342193604,0.4908113479614258
1766401366599943000,6.46394287109375,-0.011971008032560349,-1.867477297782898,-0.2777273952960968
1766401366609952800,6.473952880859375,-0.07661445438861847,-1.4317326545715332,-0.6512228846549988
1766401366630002700,6.494002685546875,-0.05027823522686958,-1.1252747774124146,-0.8595184087753296
1766401366649991700,6.51399169921875,0.15801730751991272,-1.2090718746185303,-1.623268723487854
1766401366660001500,6.52400146484375,0.24420857429504395,-1.2258312702178955,-1.922544002532959
1766401366669980700,6.533980712890625,0.090979665517807,-1.1851298809051514,-1.9800047874450684
1766401366679990500,6.543990478515625,-0.14365209639072418,-0.8978256583213806,-1.6879122257232666
1766401366690000100,6.554000244140625,-0.19871874153614044,-0.9217676520347595,-1.3862427473068237
1766401366700010000,6.564010009765625,-0.1843535304069519,-1.6280571222305298,-1.5969325304031372
1766401366709958700,6.573958740234375,-0.2585737705230713,-2.03507137298584,-1.9608511924743652
1766401366730008800,6.5940087890625,-0.1628057211637497,-1.4437036514282227,-1.6160861253738403
1766401366760038100,6.6240380859375,-0.9409212470054626,-0.7326257228851318,-1.338358759880066
1766401366770047700,6.6340478515625,-1.4891934394836426,-0.9600749015808105,-1.1085153818130493
1766401366780088000,6.644088134765625,-2.341529369354248,-1.1994950771331787,-1.015141487121582
1766401366790098000,6.654097900390625,-2.9472622871398926,-1.5658079385757446,-1.259350061416626
1766401366800107800,6.664107666015625,-3.0789434909820557,-1.1899182796478271,-1.3958195447921753
1766401366810178600,6.674178466796875,-2.762908697128296,-0.5937620401382446,-1.039083480834961
1766401366820188200,6.684188232421875,-2.3774423599243164,-0.1388636976480484,-0.6584054827690125
1766401366840177200,6.70417724609375,-1.338358759880066,-0.24899697303771973,-0.6847416758537292
1766401366850217500,6.714217529296875,-1.2042834758758545,-0.14844051003456116,-0.7996633648872375
1766401366860227300,6.724227294921875,-1.460463047027588,-0.5386953949928284,-0.6919242739677429
1766401366870206500,6.73420654296875,-1.7501614093780518,-0.7422025203704834,-0.8044517636299133
1766401366880246800,6.744246826171875,-1.381454348564148,-0.4812345504760742,-1.0534487962722778
1766401366890287000,6.754287109375,-1.0247182846069336,-0.4644751250743866,-0.9624691009521484
1766401366900297000,6.764296875,-0.5219359993934631,-0.7924807667732239,-0.9193734526634216
1766401366910276000,6.774276123046875,0.06224924325942993,-0.8236053586006165,-1.094150185585022
1766401366920347000,6.784346923828125,0.5267243981361389,-1.4508862495422363,-1.2641384601593018
1766401366930356700,6.794356689453125,0.8020575642585754,-2.0446481704711914,-1.4389152526855469
1766401366960386000,6.824385986328125,1.0103530883789062,-2.2816741466522217,-0.5386953949928284
1766401366970395600,6.834395751953125,0.6919242739677429,-2.3558945655822754,-0.7086837291717529
1766401366980405500,6.844405517578125,0.1388636976480484,-2.4420857429504395,-0.5171475410461426
1766401366990415400,6.854415283203125,0.31364041566848755,-2.693476915359497,-0.363918662071228
1766401367000425000,6.864425048828125,0.395043283700943,-2.782062292098999,0.07661445438861847
1766401367010434800,6.874434814453125,0.05985504388809204,-3.825934410095215,0.5099649429321289
1766401367020505600,6.884505615234375,0.6823474764823914,-3.8570590019226074,0.8259995579719543
1766401367030485000,6.894485107421875,1.256955862045288,-3.866635799407959,0.7038952708244324
1766401367040525000,6.904525146484375,1.5275006294250488,-3.8810009956359863,1.2473790645599365
1766401367080533800,6.94453369140625,3.442862033843994,-2.7269957065582275,2.006340980529785
1766401367090543400,6.95454345703125,3.6343982219696045,-3.7708675861358643,2.0925323963165283
1766401367100614100,6.9646142578125,2.1045033931732178,-3.804386615753174,2.4396915435791016
1766401367110593500,6.974593505859375,11.006145477294922,-2.2409727573394775,2.6192567348480225
1766401367130643500,6.9946435546875,9.552865028381348,-8.233659744262695,1.039083480834961
1766401367140653300,7.0046533203125,7.580042362213135,-3.773261785507202,0.5841852426528931
1766401367150663200,7.0146630859375,6.361393928527832,-4.426878929138184,3.3734302520751953
1766401367190732800,7.05473291015625,3.691859006881714,1.0319008827209473,-0.19153612852096558
1766401367200742400,7.064742431640625,5.652710437774658,-2.1978771686553955,-1.0462661981582642
1766401367210752300,7.074752197265625,7.2783732414245605,-2.3774423599243164,-1.4245500564575195
1766401367220761900,7.084761962890625,6.878541469573975,-0.9864110946655273,-1.237802267074585
1766401367230771700,7.094771728515625,5.683835029602051,-0.6320692300796509,-0.17477671802043915
1766401367240812000,7.10481201171875,2.274491548538208,0.5099649429321289,0.768538773059845
1766401367250852400,7.114852294921875,0.5099649429321289,0.4692635238170624,0.6416460275650024
1766401367260862000,7.124862060546875,1.4700398445129395,2.5067291259765625,-0.40701428055763245
1766401367290922000,7.154921875,4.817133903503418,-1.2545616626739502,-0.7230489253997803
1766401367300931600,7.164931640625,4.299986362457275,-0.023942016065120697,-0.689530074596405
1766401367310911000,7.174910888671875,3.3303346633911133,2.786850690841675,-0.5626373887062073
1766401367320951300,7.184951416015625,2.4372973442077637,1.5753847360610962,-0.4812345504760742
1766401367330961000,7.1949609375,2.4133553504943848,1.5610195398330688,-0.4812345504760742
1766401367340970800,7.204970703125,0.023942016065120697,0.43095630407333374,-0.023942016065120697
1766401367350950000,7.214949951171875,-1.7717092037200928,0.828393816947937,0.7469909191131592
1766401367360990200,7.224990234375,-3.0885202884674072,-0.16998831927776337,1.094150185585022
1766401367401090300,7.26509033203125,-0.7589619159698486,3.6774938106536865,1.2425906658172607
1766401367411130600,7.275130615234375,0.5602431893348694,4.982333660125732,0.9026140570640564
1766401367431150000,7.295150146484375,3.751713991165161,1.8315643072128296,1.414973258972168
1766401367441190400,7.3051904296875,3.9408559799194336,1.0749965906143188,1.4891934394836426
1766401367451200300,7.3152001953125,3.5434184074401855,0.4381389021873474,0.7182605266571045
1766401367461240600,7.325240478515625,3.004723072052002,-1.0342950820922852,-0.4118026793003082
1766401367491270000,7.355269775390625,3.9217023849487305,-0.5410895943641663,-2.7676970958709717
1766401367501279500,7.365279541015625,3.732560396194458,0.033518824726343155,-2.801215887069702
1766401367511289300,7.375289306640625,2.367865562438965,0.43335050344467163,-1.5131354331970215
1766401367521299200,7.38529931640625,0.5339069962501526,-0.33518823981285095,-0.0933738648891449
1766401367531339300,7.39533935546875,-1.3024457693099976,-2.094926595687866,0.9433154463768005
1766401367541349000,7.40534912109375,-2.959233283996582,-3.114856481552124,1.1492167711257935
1766401367551359000,7.41535888671875,-3.1028854846954346,-2.4372973442077637,1.0654197931289673
1766401367561399300,7.4253994140625,-1.968033790588379,-1.381454348564148,1.01753568649292
1766401367571409000,7.435408935546875,-0.20350714027881622,-0.08858546614646912,0.21787235140800476
1766401367591428400,7.455428466796875,0.828393816947937,1.625662922859192,-0.8403648138046265
1766401367611509000,7.475509033203125,-2.205059766769409,0.2561795711517334,0.6584054827690125
1766401367621549300,7.48554931640625,-2.537853717803955,-0.912190854549408,1.482010841369629
1766401367631498000,7.495498046875,-2.43011474609375,-2.3702597618103027,1.8339585065841675
1766401367641538300,7.505538330078125,-2.7557260990142822,-4.199429988861084,2.300827741622925
1766401367651578600,7.51557861328125,-2.5234885215759277,-4.230554580688477,2.410961151123047
1766401367661588500,7.52558837890625,-2.7533318996429443,-0.6991068720817566,1.623268723487854
1766401367671598000,7.53559814453125,-0.7015010714530945,4.106055736541748,-1.479616641998291
1766401367681638400,7.545638427734375,-0.24181437492370605,5.983109951019287,-4.888959884643555
1766401367701688600,7.5656884765625,3.1028854846954346,0.35434186458587646,-2.121262788772583
1766401367711698200,7.5756982421875,3.5051112174987793,-1.6065093278884888,1.1037269830703735
1766401367721738500,7.585738525390625,3.292027235031128,-0.08858546614646912,1.3910311460494995
1766401367731748400,7.595748291015625,2.516305923461914,1.3311761617660522,-0.181959331035614
1766401367741788700,7.60578857421875,1.680729627609253,1.1013327836990356,-1.3742717504501343
1766401367751798300,7.61579833984375,1.1492167711257935,0.29209262132644653,-1.6089035272598267
1766401367761838600,7.625838623046875,0.27054479718208313,0.08619125932455063,-0.8259995579719543
1766401367771848400,7.635848388671875,-0.38067805767059326,-0.07661445438861847,-0.14844051003456116
1766401367781858000,7.645858154296875,-0.9864110946655273,-0.14604631066322327,-0.2585737705230713
1766401367791868000,7.655867919921875,-0.8259995579719543,-0.06703764945268631,-0.15083470940589905
1766401367801908200,7.665908203125,-0.5315127968788147,0.028730420395731926,-0.047884032130241394
1766401367811918000,7.67591796875,-0.43095630407333374,-0.19153612852096558,-0.6177040338516235
1766401367821927700,7.685927734375,-0.6153098344802856,-0.07422025501728058,-0.8379706144332886
1766401367831937500,7.6959375,-0.6967126727104187,-0.05985504388809204,-0.5410895943641663
1766401367841977900,7.705977783203125,-0.6153098344802856,0.047884032130241394,-0.040701430290937424
1766401367852018200,7.71601806640625,-0.9097966551780701,-0.17238251864910126,-0.1628057211637497
1766401367862027800,7.72602783203125,-1.1324573755264282,-0.8427590131759644,-0.4357447028160095
1766401367882108400,7.7461083984375,-0.6919242739677429,-0.035913024097681046,-0.2753331959247589
1766401367912198700,7.77619873046875,-0.8882488012313843,0.06703764945268631,-0.15801730751991272
1766401367922208500,7.78620849609375,-0.7086837291717529,-0.12928688526153564,0.05506663769483566
1766401367932248800,7.796248779296875,-0.6440402865409851,-0.11252748221158981,-0.2968810200691223
1766401367942289200,7.8062890625,-0.45010992884635925,-0.35673606395721436,-0.07422025501728058
1766401367952298800,7.816298828125,-0.6057330369949341,-0.545877993106842,-0.3495534360408783
1766401367962308600,7.82630859375,-0.6105214357376099,-0.23942017555236816,-0.42616790533065796
1766401367982389200,7.84638916015625,0.4908113479614258,-0.811634361743927,-0.4836287498474121
1766401367992429600,7.8564296875,0.7613561153411865,-0.7422025203704834,-0.790086567401886
1766401368012479500,7.8764794921875,0.2106897532939911,-0.38307225704193115,-0.40462008118629456
1766401368022489300,7.8864892578125,-0.706289529800415,0.10773907601833344,-0.21547815203666687
1766401368032468500,7.896468505859375,-1.0558429956436157,0.23702596127986908,0.20111294090747833
1766401368042508800,7.9065087890625,-0.751779317855835,-0.17238251864910126,0.0454898327589035
1766401368052518700,7.9165185546875,-0.7445967197418213,-0.3734954595565796,-0.48602294921875
1766401368062528300,7.9265283203125,-0.4429273009300232,-0.031124621629714966,-0.5554547905921936
1766401368072568600,7.936568603515625,-0.40940847992897034,-0.019153613597154617,-0.5602431893348694
1766401368082578400,7.946578369140625,-0.42856210470199585,0.5434837937355042,-0.2753331959247589
1766401368112607700,7.976607666015625,0.24899697303771973,0.42856210470199585,-0.7206547260284424
1766401368122617300,7.986617431640625,0.8810662031173706,0.11252748221158981,-0.993593692779541
1766401368132688100,7.996688232421875,0.586579442024231,0.2537853717803955,-1.0558429956436157
1766401368142698000,8.006697998046874,0.2106897532939911,0.5817909836769104,-0.6799532771110535
1766401368152677400,8.016677490234375,0.011971008032560349,1.139639973640442,-0.3687070608139038
1766401368162687000,8.02668701171875,-0.2059013396501541,1.2521674633026123,-0.21547815203666687
1766401368172727300,8.036727294921874,-0.10055647045373917,-0.5195417404174805,-0.608127236366272
1766401368182737200,8.046737060546874,0.29209262132644653,-0.9385270476341248,-0.8858546018600464
1766401368192746800,8.056746826171874,0.3256114423274994,0.8068459630012512,-0.8547300100326538
1766401368222837200,8.086837158203124,-1.0079588890075684,-1.0103530883789062,-0.2753331959247589
1766401368232846800,8.096846923828124,-0.5099649429321289,-1.357512354850769,-0.10534487664699554
1766401368242887200,8.10688720703125,0.45010992884635925,-0.3878606855869293,-0.31603461503982544
1766401368252927500,8.116927490234374,1.5682021379470825,-1.0989385843276978,-0.12689268589019775
1766401368262967800,8.1269677734375,1.941697597503662,-1.6041151285171509,0.4884171485900879
1766401368272977700,8.136977783203125,2.3798365592956543,-1.4532804489135742,0.569819986820221
1766401368293058000,8.15705810546875,-0.5267243981361389,-2.849100112915039,1.280897855758667
1766401368303068000,8.16706787109375,-2.5258827209472656,-2.3295583724975586,1.6855180263519287
1766401368313108200,8.177108154296874,-4.4532151222229,-3.529053211212158,2.5713725090026855
1766401368333127700,8.197127685546874,-3.4356794357299805,-4.699818134307861,0.038307227194309235
1766401368343137500,8.207137451171874,0.4596867263317108,-5.65031623840332,-1.9369091987609863
1766401368353086200,8.217086181640624,0.9816226959228516,-3.466804027557373,-2.9233202934265137
1766401368363096000,8.227095947265624,0.0933738648891449,0.6967126727104187,-2.911349296569824
1766401368373105700,8.237105712890624,0.9911994934082031,6.325480937957764,-2.6455929279327393
1766401368383115500,8.247115478515624,0.9792284965515137,6.696582317352295,-0.9696516990661621
1766401368393125400,8.25712548828125,-0.023942016065120697,1.3479355573654175,1.2497732639312744
1766401368403135000,8.267135009765624,-0.524330198764801,0.35673606395721436,2.7293899059295654
1766401368413144800,8.277144775390624,-0.06464344263076782,3.2609026432037354,3.5027170181274414
1766401368463254500,8.327254638671874,2.6001031398773193,1.5873557329177856,-1.9177556037902832
1766401368473264400,8.337264404296874,2.6791117191314697,0.7805097699165344,-2.3942017555236816
1766401368483335200,8.347335205078124,2.2864625453948975,0.6727706789970398,-1.2545616626739502
1766401368493345000,8.357344970703124,0.272938996553421,1.5873557329177856,-0.6177040338516235
1766401368503385300,8.36738525390625,-0.7038952708244324,0.15801730751991272,-0.7038952708244324
1766401368513364500,8.377364501953124,-0.4884171485900879,-1.6855180263519287,0.06464344263076782
1766401368523404800,8.38740478515625,-0.2825157940387726,-2.765302896499634,-0.15322890877723694
1766401368553464600,8.417464599609374,0.3232172429561615,0.1604115068912506,-1.1061211824417114
1766401368563474400,8.427474365234374,-0.6416460275650024,-0.47405192255973816,-0.7015010714530945
1766401368573484000,8.437484130859374,-1.434126853942871,-1.2401964664459229,-0.4141969084739685
1766401368583524400,8.4475244140625,-1.4101848602294922,0.17477671802043915,-0.44771572947502136
1766401368593534200,8.4575341796875,-1.37906014919281,0.44532153010368347,-0.6129156351089478
1766401368603544000,8.4675439453125,-1.3407529592514038,0.20111294090747833,-0.3471592366695404
1766401368613584100,8.477584228515624,-1.41257905960083,-0.26336219906806946,-0.5171475410461426
1766401368623594000,8.487593994140624,-1.2761094570159912,-0.44771572947502136,-0.6248866319656372
1766401368653623300,8.517623291015624,-1.3096283674240112,-0.10534487664699554,-0.17956513166427612
1766401368673704000,8.537703857421874,-0.9289502501487732,0.2849099934101105,-0.31124621629714966
1766401368693784300,8.557784423828124,-0.42616790533065796,0.31842881441116333,-0.43095630407333374
1766401368703824600,8.56782470703125,-0.2298433631658554,0.05506663769483566,-0.5913678407669067
1766401368713804000,8.577803955078124,-0.021547814831137657,-0.3974374830722809,-0.7398083209991455
1766401368723844400,8.58784423828125,-0.2992752194404602,0.009576806798577309,-0.5267243981361389
1766401368733854000,8.59785400390625,-0.2585737705230713,0.272938996553421,-0.47884035110473633
1766401368743863800,8.60786376953125,-0.47165772318840027,0.3734954595565796,-0.24899697303771973
1766401368763913700,8.627913818359374,-0.28730419278144836,-0.33758243918418884,-0.16759411990642548
1766401368773954000,8.6379541015625,0.05506663769483566,0.7254431247711182,-0.2322375625371933
1766401368783964000,8.6479638671875,0.6943184733390808,1.0271124839782715,-0.5410895943641663
1766401368793973800,8.657973876953125,0.5003881454467773,-0.23702596127986908,-0.5985504388809204
1766401368803983400,8.6679833984375,-0.09576806426048279,-0.8834604024887085,-0.2346317619085312
1766401368814054100,8.67805419921875,-0.1364694982767105,-0.8571242094039917,-0.23702596127986908
1766401368824064000,8.68806396484375,-0.11252748221158981,-0.363918662071228,0.5386953949928284
1766401368834073900,8.698073974609375,-0.06703764945268631,0.028730420395731926,0.4668693244457245
1766401368844114000,8.708114013671874,-0.6584054827690125,-0.004788403399288654,-0.38307225704193115
1766401368874204400,8.738204345703124,-0.038307227194309235,-0.4596867263317108,-0.2346317619085312
1766401368884244700,8.74824462890625,0.507570743560791,-0.8834604024887085,-0.33518823981285095
1766401368894254300,8.75825439453125,0.38067805767059326,-1.381454348564148,-0.1149216815829277
1766401368904264200,8.76826416015625,-0.10534487664699554,-0.6248866319656372,0.7110779285430908
1766401368914274000,8.778274169921875,-0.49799394607543945,0.6009446382522583,0.2825157940387726
1766401368924283600,8.78828369140625,-0.933738648891449,-0.19153612852096558,0.2849099934101105
1766401368934324000,8.798323974609374,-0.993593692779541,-0.6177040338516235,0.14604631066322327
1766401368944333800,8.808333740234374,-0.7398083209991455,-0.7709329724311829,0.2106897532939911
1766401368974363100,8.838363037109374,1.4676456451416016,-0.5147533416748047,-0.3280056416988373
1766401368984403500,8.848403564453125,1.6328455209732056,-0.912190854549408,-0.31603461503982544
1766401369004423000,8.8684228515625,0.727837324142456,-0.09816227108240128,0.040701430290937424
1766401369014432500,8.8784326171875,0.24181437492370605,-0.2106897532939911,0.019153613597154617
1766401369024442400,8.8884423828125,-0.14365209639072418,-0.07900865375995636,0.3064578175544739
1766401369034452200,8.8984521484375,-0.3256114423274994,-0.6727706789970398,0.40222588181495667
1766401369044492500,8.908492431640624,-0.24420857429504395,-1.2641384601593018,0.8882488012313843
1766401369054502100,8.918502197265624,-0.38307225704193115,-1.5538369417190552,0.9361328482627869
1766401369084562000,8.94856201171875,-0.06703764945268631,0.9457096457481384,-1.6615760326385498
1766401369094571800,8.95857177734375,0.09576806426048279,0.8331822156906128,-1.4700398445129395
1766401369104581600,8.96858154296875,0.7398083209991455,2.0159177780151367,-1.192312479019165
1766401369124631600,8.988631591796874,0.608127236366272,1.0630255937576294,-1.2832920551300049
1766401369134641400,8.998641357421874,0.35913026332855225,0.8212111592292786,-0.7230489253997803
1766401369144651000,9.008651123046874,0.5817909836769104,0.5099649429321289,-0.3902548849582672
1766401369174711000,9.0387109375,0.05746084079146385,0.2106897532939911,-0.24660277366638184
1766401369184720600,9.048720703125,0.5315127968788147,-0.6440402865409851,-0.20350714027881622
1766401369194730500,9.05873046875,0.7398083209991455,-0.4812345504760742,0.11252748221158981
1766401369204770800,9.068770751953124,0.0933738648891449,-0.33518823981285095,0.023942016065120697
1766401369214780400,9.078780517578124,-0.3519476354122162,-0.33518823981285095,-0.07900865375995636
1766401369224790300,9.088790283203124,-0.5578489899635315,0.44771572947502136,0.05506663769483566
1766401369234830600,9.09883056640625,-0.12449848651885986,0.24420857429504395,0.1388636976480484
1766401369254850000,9.11885009765625,0.4668693244457245,0.22266076505184174,-0.43335050344467163
1766401369274869800,9.138869873046875,0.2585737705230713,0.040701430290937424,0.05746084079146385
1766401369294919700,9.158919677734374,-0.17956513166427612,0.3687070608139038,-0.3687070608139038
1766401369304929500,9.168929443359374,-0.181959331035614,0.4357447028160095,-0.646434485912323
1766401369314939100,9.178939208984374,-0.5027823448181152,-0.08858546614646912,-0.3447650372982025
1766401369324949000,9.188948974609374,-0.7781155705451965,0.30885201692581177,-0.1149216815829277
1766401369334958800,9.198958740234374,-0.790086567401886,0.31364041566848755,-0.26815059781074524
1766401369344968400,9.208968505859374,-0.3471592366695404,-0.12689268589019775,-0.31603461503982544
1766401369354978300,9.218978271484374,0.17717093229293823,0,-0.3998316824436188
1766401369385007600,9.249007568359374,0.22026655077934265,0.1388636976480484,-0.21547815203666687
1766401369405027000,9.269027099609374,0.23702596127986908,-0.24899697303771973,-0.19393034279346466
1766401369415097900,9.279097900390624,0.4836287498474121,0.33758243918418884,-0.2059013396501541
1766401369425138200,9.28913818359375,0.6200982332229614,0.49799394607543945,-0.4620809257030487
1766401369435148000,9.29914794921875,0.40940847992897034,0.38546648621559143,-0.181959331035614
1766401369445157600,9.30915771484375,0.5961562395095825,0.05746084079146385,-0.24420857429504395
1766401369455167500,9.31916748046875,0.6033388376235962,0.2322375625371933,-0.20111294090747833
1766401369485288400,9.349288330078124,0.3423708379268646,0.3016694188117981,-0.31364041566848755
1766401369495298000,9.359298095703124,0.5003881454467773,0.2944868206977844,-0.2753331959247589
1766401369505338400,9.36933837890625,0.49559974670410156,0.5434837937355042,-0.24181437492370605
1766401369515378700,9.379378662109374,0.3064578175544739,0.12449848651885986,-0.22505496442317963
1766401369525419000,9.3894189453125,0.07182604819536209,0.19393034279346466,-0.08858546614646912
1766401369535428600,9.3994287109375,0.043095629662275314,0.40940847992897034,-0.21547815203666687
1766401369545469000,9.409468994140624,-0.05985504388809204,-0.2537853717803955,-0.17717093229293823
1766401369555478800,9.419478759765624,-0.05746084079146385,-0.28730419278144836,-0.16998831927776337
1766401369565519000,9.42951904296875,-0.18914192914962769,-0.06703764945268631,-0.15562310814857483
1766401369585538600,9.44953857421875,0.2106897532939911,0.26575639843940735,-0.4596867263317108
1766401369605558000,9.46955810546875,-0.019153613597154617,0.2561795711517334,-0.33997663855552673
1766401369615568000,9.47956787109375,0.15801730751991272,-0.06464344263076782,-0.21308395266532898
1766401369625577700,9.48957763671875,0.49559974670410156,0.3663128614425659,-0.38546648621559143
1766401369635587300,9.49958740234375,0.05506663769483566,0.22026655077934265,-0.29209262132644653
1766401369645597200,9.50959716796875,-0.2298433631658554,-0.031124621629714966,-0.181959331035614
1766401369655607000,9.51960693359375,-0.014365210197865963,0.2849099934101105,-0.035913024097681046
1766401369665616600,9.52961669921875,0,0.3208230137825012,-0.24660277366638184
1766401369675657000,9.539656982421874,0.181959331035614,0.36152446269989014,-0.14365209639072418
1766401369695676400,9.559676513671874,0.22026655077934265,0.1173158809542656,-0.29209262132644653
1766401369705686300,9.569686279296874,-0.009576806798577309,0.5051765441894531,-0.304063618183136
1766401369715726600,9.5797265625,-0.17238251864910126,0.021547814831137657,-0.30885201692581177
1766401369725797400,9.58979736328125,-0.45489832758903503,0.12928688526153564,-0.2059013396501541
1766401369735807200,9.59980712890625,-0.14844051003456116,0.2849099934101105,-0.19871874153614044
1766401369745847300,9.609847412109374,-0.090979665517807,0.07182604819536209,-0.17717093229293823
1766401369765867000,9.629866943359374,-0.3687070608139038,0.016759412363171577,-0.035913024097681046
1766401369775937800,9.639937744140624,0.20111294090747833,0.20111294090747833,-0.08379705995321274
1766401369805967000,9.669967041015624,-0.2992752194404602,-0.0071826050989329815,-0.07182604819536209
1766401369825986600,9.689986572265624,-0.7757213711738586,-0.14844051003456116,0.028730420395731926
1766401369846067200,9.710067138671874,-0.0933738648891449,-0.5315127968788147,-0.16998831927776337
1766401369856107500,9.720107421875,-0.17477671802043915,-0.5506663918495178,-0.08379705995321274
1766401369866147800,9.73014794921875,-0.0071826050989329815,-0.0454898327589035,-0.033518824726343155
1766401369876157400,9.740157470703124,0.019153613597154617,0.2992752194404602,-0.08379705995321274
1766401369886167300,9.750167236328124,0.05746084079146385,-0.17238251864910126,-0.1628057211637497
1766401369906186800,9.770186767578124,0.33758243918418884,0.023942016065120697,-0.28730419278144836
1766401369916196600,9.780196533203124,0.23942017555236816,0.1149216815829277,-0.2322375625371933
1766401369926206200,9.790206298828124,0.0071826050989329815,-0.4381389021873474,-0.20350714027881622
1766401369936216000,9.800216064453124,0.07182604819536209,-0.05027823522686958,-0.3016694188117981
1766401369946226000,9.810225830078124,0.12449848651885986,0.1364694982767105,-0.47165772318840027
1766401369956205000,9.820205078125,-0.1843535304069519,0.038307227194309235,-0.2585737705230713
1766401369966245400,9.830245361328124,-0.40222588181495667,-0.47165772318840027,-0.12689268589019775
1766401369976255200,9.840255126953124,-0.3208230137825012,-0.1173158809542656,-0.11971008777618408
1766401369986295300,9.85029541015625,-0.10295066982507706,-0.1388636976480484,-0.28969839215278625
1766401370016385800,9.8803857421875,0.22744916379451752,-0.033518824726343155,-0.4644751250743866
1766401370026395400,9.8903955078125,0.07661445438861847,-0.2298433631658554,-0.3878606855869293
1766401370036405200,9.9004052734375,-0.15562310814857483,0.27054479718208313,-0.26096799969673157
1766401370046445600,9.910445556640624,-0.19153612852096558,0.043095629662275314,-0.10534487664699554
1766401370056486000,9.92048583984375,-0.19632454216480255,-0.15562310814857483,-0.17956513166427612
1766401370066495500,9.93049560546875,-0.13407529890537262,0.2944868206977844,-0.22266076505184174
1766401370076535800,9.940535888671874,-0.043095629662275314,0.23702596127986908,-0.2537853717803955
1766401370086545700,9.950545654296874,-0.06703764945268631,-0.038307227194309235,-0.09576806426048279
1766401370096555500,9.960555419921874,0.040701430290937424,0.19393034279346466,-0.16998831927776337
1766401370116575000,9.980574951171874,0.12928688526153564,0.272938996553421,-0.19153612852096558
1766401370126584800,9.990584716796874,0.15083470940589905,0.3902548849582672,-0.28730419278144836
1766401370136594400,10.000594482421874,0.15801730751991272,0.22744916379451752,-0.33997663855552673
1766401370146604300,10.010604248046874,0.10055647045373917,0.021547814831137657,-0.26336219906806946
1766401370156614100,10.0206142578125,-0.12210428714752197,0.26336219906806946,-0.16759411990642548
1766401370176633600,10.040633544921874,0.040701430290937424,0.2777273952960968,-0.26575639843940735
1766401370186674000,10.050673828125,0.040701430290937424,0.038307227194309235,-0.3495534360408783
1766401370196683500,10.06068359375,-0.038307227194309235,-0.15322890877723694,-0.12928688526153564
1766401370206723800,10.070723876953124,-0.2082955539226532,-0.1628057211637497,-0.24660277366638184
1766401370246854400,10.1108544921875,0.28730419278144836,-0.07661445438861847,-0.22266076505184174
1766401370256894700,10.120894775390624,0.2322375625371933,-0.29209262132644653,-0.18914192914962769
1766401370266904600,10.130904541015624,0.20350714027881622,0.17717093229293823,-0.4381389021873474
1766401370286954500,10.15095458984375,0.3495534360408783,0.14604631066322327,-0.3208230137825012
1766401370296964400,10.16096435546875,-0.07661445438861847,-0.26096799969673157,-0.26096799969673157
1766401370307004700,10.171004638671874,-0.5147533416748047,-0.181959331035614,-0.19871874153614044
1766401370317014500,10.1810146484375,-0.3663128614425659,0.19153612852096558,-0.26336219906806946
1766401370337095000,10.201094970703124,0.004788403399288654,0.040701430290937424,-0.24899697303771973
1766401370347165700,10.211165771484374,-0.021547814831137657,-0.035913024097681046,-0.35673606395721436
1766401370357175600,10.221175537109374,0.07422025501728058,-0.4644751250743866,-0.10773907601833344
1766401370367185400,10.231185302734374,0.2561795711517334,0.1628057211637497,-0.1843535304069519
1766401370377225500,10.2412255859375,0.36152446269989014,0.27054479718208313,-0.33279404044151306
1766401370387265800,10.251265869140624,0.47644615173339844,0.10773907601833344,-0.1867477297782898
1766401370397275600,10.261275634765624,0.19871874153614044,0.021547814831137657,-0.24660277366638184
1766401370407316000,10.27131591796875,0.24899697303771973,0.6057330369949341,-0.36152446269989014
1766401370437375700,10.301375732421874,-0.15322890877723694,-0.047884032130241394,-0.24660277366638184
1766401370447416000,10.311416015625,-0.2298433631658554,-0.13168109953403473,-0.16998831927776337
1766401370457425700,10.32142578125,-0.47644615173339844,-0.033518824726343155,-0.1149216815829277
1766401370467466000,10.331466064453124,-0.2849099934101105,-0.0071826050989329815,-0.16519992053508759
1766401370477475800,10.341475830078124,0.031124621629714966,0.011971008032560349,-0.20111294090747833
1766401370487485700,10.351485595703124,0.1364694982767105,-0.06224924325942993,-0.181959331035614
1766401370497495300,10.361495361328124,-0.033518824726343155,-0.30885201692581177,-0.1364694982767105
1766401370517545500,10.38154541015625,-0.6153098344802856,0.4620809257030487,-0.2992752194404602
1766401370527555000,10.39155517578125,-0.011971008032560349,0.1388636976480484,-0.27054479718208313
1766401370557645600,10.4216455078125,1.0749965906143188,0.36152446269989014,-0.35434186458587646
1766401370567655200,10.4316552734375,0.4118026793003082,-0.011971008032560349,-0.19632454216480255
1766401370577665000,10.4416650390625,-0.07661445438861847,0.26096799969673157,-0.363918662071228
1766401370587675000,10.4516748046875,-0.07900865375995636,-0.40701428055763245,-0.15562310814857483
1766401370597684500,10.4616845703125,-0.09576806426048279,-0.24420857429504395,-0.2059013396501541
1766401370607663900,10.471663818359374,-0.05985504388809204,0.6584054827690125,-0.3926490843296051
1766401370617704200,10.4817041015625,0.49320554733276367,0.45489832758903503,-0.31842881441116333
1766401370627713800,10.4917138671875,0.4405331015586853,0.751779317855835,-0.45250412821769714
1766401370657773600,10.521773681640624,0.7805097699165344,0.45010992884635925,-0.31364041566848755
1766401370667783400,10.531783447265624,-0.08858546614646912,-0.11252748221158981,-0.5602431893348694
1766401370687833600,10.55183349609375,-0.038307227194309235,-0.6105214357376099,-0.10773907601833344
1766401370697843200,10.56184326171875,0.17477671802043915,-0.09576806426048279,-0.3208230137825012
1766401370707883500,10.571883544921874,0.4213795065879822,-0.14844051003456116,-0.21787235140800476
1766401370717893400,10.581893310546874,0.3495534360408783,-0.033518824726343155,-0.15801730751991272
1766401370727903000,10.591903076171874,-0.1412578970193863,-2.027888774871826,0.1173158809542656
1766401370757963000,10.621962890625,0.9026140570640564,-1.2282254695892334,0.019153613597154617
1766401370767972600,10.63197265625,0.5171475410461426,-1.4460978507995605,0.10534487664699554
1766401370778013000,10.642012939453124,-0.040701430290937424,-1.0342950820922852,0.2753331959247589
1766401370788053200,10.65205322265625,-0.42856210470199585,-1.6759412288665771,0.19393034279346466
1766401370798063000,10.66206298828125,-0.950498104095459,0.43335050344467163,-0.15562310814857483
1766401370808103200,10.672103271484374,-1.2425906658172607,-0.24181437492370605,-0.3471592366695404
1766401370818113000,10.682113037109374,-1.2401964664459229,-0.7852981686592102,-0.021547814831137657
1766401370828183800,10.692183837890624,-0.9840168952941895,-0.15322890877723694,-0.09576806426048279
1766401370838193700,10.702193603515624,-0.5195417404174805,-1.1779472827911377,0.21787235140800476
1766401370868223000,10.732222900390624,2.1954829692840576,-1.6903064250946045,0.4668693244457245
1766401370878232600,10.742232666015624,1.2665326595306396,-0.24420857429504395,-0.2106897532939911
1766401370888242400,10.752242431640624,-0.4908113479614258,-0.12210428714752197,-0.1843535304069519
1766401370898252300,10.762252197265624,-0.7661445140838623,0.16998831927776337,-0.22266076505184174
1766401370908262000,10.772261962890624,-1.2306196689605713,-0.16759411990642548,-0.3878606855869293
1766401370918271700,10.782271728515624,-1.3982137441635132,0.35434186458587646,-0.31364041566848755
1766401370928281600,10.792281494140624,-1.2832920551300049,-0.06224924325942993,-0.42616790533065796
1766401370938321700,10.80232177734375,-1.4867992401123047,-0.5195417404174805,-0.090979665517807
1766401370978391300,10.842391357421874,2.3080103397369385,-0.730231523513794,0.2992752194404602
1766401370988401200,10.852401123046874,2.5713725090026855,0.9145850539207458,-0.33997663855552673
1766401370998441500,10.86244140625,1.3910311460494995,0.5147533416748047,-0.5267243981361389
1766401371008451000,10.872451171875,0.15083470940589905,0.1867477297782898,-0.4118026793003082
1766401371018461000,10.8824609375,-1.50355863571167,-0.1149216815829277,-0.48602294921875
1766401371028440300,10.8924404296875,-1.5059528350830078,-0.14365209639072418,-0.47644615173339844
1766401371038480400,10.90248046875,-1.0414776802062988,-0.9074024558067322,0.0933738648891449
1766401371048490200,10.912490234375,-1.1109095811843872,0.6512228846549988,-0.1412578970193863
1766401371078580500,10.94258056640625,-0.45010992884635925,0.3208230137825012,-0.45250412821769714
1766401371088590300,10.95259033203125,-0.4381389021873474,0.7326257228851318,-0.1843535304069519
1766401371098600200,10.96260009765625,0.11252748221158981,-0.11013327538967133,-0.38546648621559143
1766401371108609800,10.97260986328125,0.7230489253997803,-0.4118026793003082,-0.20111294090747833
1766401371118650000,10.982650146484374,0.3471592366695404,0.768538773059845,-0.4668693244457245
1766401371138669600,11.002669677734374,1.3527239561080933,-0.8906430602073669,0.2322375625371933
1766401371148679400,11.012679443359374,1.434126853942871,0.38067805767059326,-0.11013327538967133
1766401371188718600,11.052718505859374,-0.6871358752250671,1.0821791887283325,-0.2585737705230713
1766401371198759000,11.062759033203125,-0.17717093229293823,-1.3407529592514038,-0.22505496442317963
1766401371208768500,11.0727685546875,0.15562310814857483,0.5841852426528931,-0.2825157940387726
1766401371218778400,11.0827783203125,0.11252748221158981,1.4844050407409668,-0.6607996821403503
1766401371228788000,11.0927880859375,-0.14604631066322327,-1.3694833517074585,0.13407529890537262
1766401371238828300,11.102828369140624,0.7852981686592102,-1.4772224426269531,0.7182605266571045
1766401371248868600,11.11286865234375,1.1013327836990356,0.47165772318840027,-0.28969839215278625
1766401371258878500,11.12287841796875,0.3878606855869293,0.7493851184844971,-0.4189853072166443
1766401371268888300,11.132888427734375,-0.016759412363171577,1.414973258972168,-0.5363011956214905
1766401371298948000,11.162947998046874,-0.028730420395731926,1.482010841369629,-0.47884035110473633
1766401371308957700,11.172957763671874,-0.021547814831137657,-0.608127236366272,-0.3208230137825012
1766401371318967600,11.182967529296874,0.2346317619085312,1.4101848602294922,-0.1604115068912506
1766401371328977400,11.192977294921874,1.2641384601593018,0.0694318488240242,-0.304063618183136
1766401371339017500,11.203017578125,0.629675030708313,-0.24420857429504395,-0.15562310814857483
1766401371349057800,11.213057861328124,0.38546648621559143,0.1843535304069519,-0.11013327538967133
1766401371359067600,11.223067626953124,0.31842881441116333,1.50355863571167,-0.021547814831137657
1766401371369077500,11.233077392578124,0.8212111592292786,1.721431016921997,-0.4165911078453064
1766401371389097000,11.253096923828124,0.9840168952941895,0.47405192255973816,-0.42856210470199585
1766401371399137300,11.26313720703125,0.730231523513794,1.558625340461731,-0.4381389021873474
1766401371409177600,11.273177490234374,0.6703764796257019,2.6815059185028076,-0.8523358106613159
1766401371419187200,11.283187255859374,-0.33758243918418884,2.853888511657715,-0.3878606855869293
1766401371429227500,11.2932275390625,-0.19393034279346466,-2.2888567447662354,0.011971008032560349
1766401371439267800,11.303267822265624,0.031124621629714966,-2.3319525718688965,0.790086567401886
1766401371449308200,11.31330810546875,0.4381389021873474,-0.5961562395095825,0.17477671802043915
1766401371459379000,11.32337890625,-1.3239935636520386,0.8882488012313843,-0.6823474764823914
1766401371509397200,11.373397216796874,0.6751648783683777,-3.4117374420166016,0.8595184087753296
1766401371519437600,11.3834375,1.4700398445129395,-1.3407529592514038,0.5027823448181152
1766401371529447200,11.393447265625,1.4269442558288574,-0.06703764945268631,-0.3974374830722809
1766401371539457000,11.40345703125,0.043095629662275314,0.33039984107017517,-0.8643068075180054
1766401371549467000,11.413466796875,-0.933738648891449,0.9648633003234863,-0.8044517636299133
1766401371569486300,11.433486328125,-0.33997663855552673,2.6599581241607666,-0.828393816947937
1766401371599515600,11.463515625,1.2545616626739502,-1.6065093278884888,0.524330198764801
1766401371609525500,11.473525390625,1.644816517829895,-0.1604115068912506,-0.3423708379268646
1766401371619535000,11.48353515625,-0.933738648891449,2.0685901641845703,-0.6392518281936646
1766401371629575400,11.493575439453124,-0.7996633648872375,2.4684219360351562,-1.41257905960083
1766401371639615700,11.50361572265625,-1.036689281463623,1.778891921043396,-0.7613561153411865
1766401371649625600,11.51362548828125,-1.01753568649292,0.9050082564353943,-1.0055646896362305
1766401371659635200,11.52363525390625,0.07182604819536209,-1.1563993692398071,0.6847416758537292
1766401371669614600,11.533614501953124,1.599326729774475,-2.3558945655822754,1.05105459690094
1766401371719693800,11.58369384765625,-1.0797849893569946,1.6041151285171509,-1.070208191871643
1766401371729734100,11.593734130859374,-1.4413094520568848,0.4692635238170624,-0.7565677165985107
1766401371739744000,11.603743896484374,-0.524330198764801,-0.2944868206977844,-0.2777273952960968
1766401371749753600,11.613753662109374,1.2401964664459229,-0.3687070608139038,0.5937620401382446
1766401371759763500,11.623763427734374,1.2234370708465576,-0.3495534360408783,0.5889736413955688
1766401371769773300,11.633773193359374,1.7046716213226318,-1.1899182796478271,-0.12449848651885986
1766401371779783000,11.643782958984374,0.181959331035614,-0.12449848651885986,0.21547815203666687
1766401371839902700,11.70390283203125,-0.2346317619085312,-2.7964274883270264,0.4189853072166443
1766401371849942800,11.71394287109375,0.47405192255973816,-3.028665065765381,0.8068459630012512
1766401371859983000,11.723983154296874,0.9696516990661621,0.22266076505184174,-0.1364694982767105
1766401371870023400,11.7340234375,1.1085153818130493,0.727837324142456,-0.6272808313369751
1766401371879972000,11.74397216796875,0.21308395266532898,0.8858546018600464,-0.7230489253997803
1766401371889982000,11.75398193359375,-1.0773907899856567,1.4173674583435059,-0.9624691009521484
1766401371910001400,11.77400146484375,-0.7565677165985107,-3.335123062133789,0.8523358106613159
1766401371930021000,11.794021240234375,0.7541735172271729,-0.05506663769483566,-0.08379705995321274
1766401371940030700,11.80403076171875,1.1683704853057861,1.8100165128707886,-0.6320692300796509
1766401371950071000,11.814071044921874,-0.21547815203666687,1.9512743949890137,-1.0821791887283325
1766401371960081000,11.824080810546874,-0.004788403399288654,1.0534487962722778,-0.5841852426528931
1766401371970090500,11.834090576171874,0.16759411990642548,0.06464344263076782,-0.009576806798577309
1766401371980100400,11.844100341796874,0.19632454216480255,-1.9728221893310547,0.3926490843296051
1766401371990110200,11.854110107421874,-0.5099649429321289,-0.7158663272857666,-0.07900865375995636
1766401372010129700,11.874129638671874,-0.6703764796257019,1.6831238269805908,-0.7398083209991455
1766401372050199300,11.91419921875,2.1787235736846924,0.9648633003234863,-0.43095630407333374
1766401372060209000,11.924208984375,0.5363011956214905,1.2210428714752197,-0.6320692300796509
1766401372070218800,11.93421875,-0.7038952708244324,0.014365210197865963,-0.6655880808830261
1766401372080198000,11.944197998046874,-0.6991068720817566,-1.194706678390503,0.4141969084739685
1766401372090269000,11.95426904296875,0.2059013396501541,-0.6440402865409851,0.08619125932455063
1766401372120267500,11.984267578125,-1.501164436340332,0.13168109953403473,-0.5147533416748047
1766401372130307800,11.994307861328124,-1.4077905416488647,-0.5937620401382446,-0.31124621629714966
1766401372140348200,12.00434814453125,-0.4357447028160095,0.40940847992897034,-0.2944868206977844
1766401372150388500,12.014388427734374,1.1516109704971313,-0.5482721924781799,-0.016759412363171577
1766401372160337200,12.024337158203124,0.8236053586006165,0.950498104095459,-0.4572925269603729
1766401372170377500,12.03437744140625,0.2944868206977844,-0.15083470940589905,-0.12928688526153564
1766401372180387300,12.04438720703125,-0.1412578970193863,-1.5897499322891235,-0.090979665517807
1766401372190397000,12.05439697265625,0.038307227194309235,-0.44771572947502136,-0.17956513166427612
1766401372200406800,12.06440673828125,0.2585737705230713,0.1628057211637497,-0.3926490843296051
1766401372230466600,12.094466552734374,-0.20350714027881622,-0.8475474119186401,-0.3423708379268646
1766401372250516700,12.114516845703125,0.09816227108240128,-0.49799394607543945,-0.3256114423274994
1766401372260526300,12.1245263671875,0.1149216815829277,0.9983820915222168,-0.2537853717803955
1766401372270566700,12.134566650390624,-0.14844051003456116,-0.727837324142456,-0.2059013396501541
1766401372280576500,12.144576416015624,-0.3734954595565796,-0.2513911724090576,-0.038307227194309235
1766401372290616800,12.154616943359375,0.7852981686592102,-0.16759411990642548,-0.1388636976480484
1766401372300626400,12.16462646484375,0.5722141861915588,0.9672574996948242,-0.1412578970193863
1766401372320676600,12.184676513671874,0.12449848651885986,0.2106897532939911,-0.19153612852096558
1766401372330686200,12.194686279296874,-0.4357447028160095,-0.912190854549408,-0.12689268589019775
1766401372340696000,12.204696044921874,-0.2777273952960968,-1.1683704853057861,0.1412578970193863
1766401372350736400,12.214736328125,-0.24660277366638184,-1.256955862045288,0.05267243832349777
1766401372360746000,12.22474609375,0.17477671802043915,0.9576807022094727,-0.6033388376235962
1766401372370786300,12.234786376953124,-0.8786720037460327,2.7437551021575928,-0.7182605266571045
1766401372380796200,12.244796142578124,0.33039984107017517,1.173158884048462,-0.4908113479614258
1766401372400815600,12.264815673828124,0.7350199222564697,0.10773907601833344,-0.17238251864910126
1766401372420835300,12.28483544921875,0.038307227194309235,-0.014365210197865963,-0.09816227108240128
1766401372440854800,12.304854736328124,0.2777273952960968,0.6009446382522583,-0.2849099934101105
1766401372450864400,12.314864501953124,0.12210428714752197,0.15801730751991272,-0.2849099934101105
1766401372460904700,12.32490478515625,0.19871874153614044,0.8140285611152649,-0.1388636976480484
1766401372470914600,12.33491455078125,0.1843535304069519,0.768538773059845,-0.1412578970193863
1766401372480924400,12.34492431640625,0.28730419278144836,0.47165772318840027,-0.47644615173339844
1766401372490964700,12.35496484375,0.7829039692878723,1.3646949529647827,-0.3734954595565796
1766401372501004800,12.3650048828125,0.3878606855869293,0.7709329724311829,-0.45010992884635925
1766401372511014700,12.3750146484375,0.13168109953403473,-0.6368576288223267,-0.1388636976480484
1766401372541074400,12.405074462890624,0.009576806798577309,0.8236053586006165,-0.4596867263317108
1766401372551084300,12.415084228515624,0.363918662071228,0.6991068720817566,-0.4668693244457245
1766401372561094000,12.425093994140624,0.7110779285430908,-0.5506663918495178,-0.3687070608139038
1766401372571134200,12.43513427734375,0.3878606855869293,0.395043283700943,-0.4141969084739685
1766401372581144000,12.44514404296875,0.4620809257030487,0,-0.17477671802043915
1766401372591154000,12.45515380859375,-0.014365210197865963,-1.3239935636520386,0.09576806426048279
1766401372601163500,12.46516357421875,-0.38067805767059326,-1.1252747774124146,-0.272938996553421
1766401372611173400,12.47517333984375,-0.31124621629714966,0.22744916379451752,-0.5985504388809204
1766401372621183200,12.485183349609375,-0.6344634294509888,0.38307225704193115,-0.4620809257030487
1766401372651243000,12.515242919921874,0.9313444495201111,-0.0694318488240242,-0.28730419278144836
1766401372661283300,12.525283447265625,0.6224924325942993,-0.586579442024231,-0.5602431893348694
1766401372671323400,12.535323486328124,0.3998316824436188,-0.031124621629714966,-0.2801215946674347
1766401372681333200,12.545333251953124,-0.16759411990642548,-0.023942016065120697,-0.6871358752250671
1766401372691343000,12.555343017578124,-0.10773907601833344,2.3056161403656006,0.021547814831137657
1766401372701383400,12.565383544921875,-0.33279404044151306,1.0103530883789062,-0.40701428055763245
1766401372711393000,12.57539306640625,-0.9720458984375,0.8164227604866028,-0.42616790533065796
1766401372751493000,12.6154931640625,-1.2425906658172607,0.7350199222564697,-0.18914192914962769
1766401372761503000,12.6255029296875,-0.23942017555236816,1.479616641998291,-0.12689268589019775
1766401372771543300,12.635543212890624,1.5921441316604614,0.8020575642585754,0.12689268589019775
1766401372781553000,12.645552978515624,1.9057846069335938,0.8619126081466675,-0.31124621629714966
1766401372791562800,12.655562744140624,0.689530074596405,0.6057330369949341,-0.5746083855628967
1766401372801603000,12.66560302734375,-0.6344634294509888,-2.1140801906585693,-0.10773907601833344
1766401372811613000,12.675613037109375,-0.14844051003456116,-2.5115175247192383,0.4812345504760742
1766401372821622500,12.68562255859375,0.7852981686592102,-2.5115175247192383,-0.21547815203666687
1766401372861722600,12.72572265625,-1.5203180313110352,2.4468741416931152,-0.524330198764801
1766401372881803300,12.74580322265625,-0.8355764150619507,-1.6184803247451782,0.586579442024231
1766401372901853200,12.765853271484374,1.0462661981582642,-1.4628572463989258,0.26336219906806946
1766401372911893500,12.7758935546875,0.2753331959247589,0.8068459630012512,-0.5482721924781799
1766401372921903400,12.7859033203125,-0.20350714027881622,1.0965443849563599,-0.6943184733390808
1766401372931943700,12.795943603515624,-0.7709329724311829,1.3527239561080933,-0.7326257228851318
1766401372961973000,12.825972900390624,0.47405192255973816,0.26575639843940735,-0.363918662071228
1766401372971982600,12.835982666015624,1.0414776802062988,-1.460463047027588,-0.2513911724090576
1766401372981992400,12.845992431640624,0.4572925269603729,0.0694318488240242,-0.27054479718208313
1766401372992002300,12.856002197265624,-0.3974374830722809,-1.599326729774475,0.22744916379451752
1766401373002012000,12.866011962890624,-1.381454348564148,0.37828385829925537,0.24899697303771973
1766401373012052200,12.87605224609375,0.1867477297782898,0.1412578970193863,-0.8762778043746948
1766401373022092500,12.886092529296874,0.8523358106613159,-1.802833914756775,0.31124621629714966
1766401373032102400,12.896102294921874,0.6512228846549988,-0.7230489253997803,-0.0694318488240242
1766401373052121900,12.916121826171874,1.1875240802764893,-1.6400281190872192,-0.11013327538967133
1766401373062131700,12.926131591796874,-0.33039984107017517,-0.002394201699644327,-0.07661445438861847
1766401373072171800,12.936171875,0.6320692300796509,-1.3958195447921753,-0.19871874153614044
1766401373082181600,12.946181640625,-0.6703764796257019,0.40462008118629456,0.033518824726343155
1766401373092191500,12.95619140625,-0.24660277366638184,1.139639973640442,-0.9959878921508789
1766401373102231800,12.966231689453124,0.08619125932455063,0.009576806798577309,-0.021547814831137657
1766401373112241400,12.976241455078124,1.036689281463623,-0.3998316824436188,-0.3471592366695404
1766401373122251300,12.986251220703124,-0.6703764796257019,-0.569819986820221,-0.33279404044151306
1766401373132291600,12.99629150390625,-1.5753847360610962,0.5722141861915588,-0.18914192914962769
1766401373142332000,13.006331787109374,-0.363918662071228,0.9792284965515137,-0.24899697303771973
1766401373152341500,13.016341552734374,0.5386953949928284,0.2346317619085312,-0.3064578175544739
1766401373172361200,13.036361328125,-0.47165772318840027,-0.4572925269603729,-0.05506663769483566
1766401373192441600,13.056441650390624,-1.5945383310317993,1.6687586307525635,-0.2322375625371933
1766401373242521000,13.10652099609375,-0.12449848651885986,0.4572925269603729,-0.15801730751991272
1766401373252530700,13.11653076171875,0.2585737705230713,-0.5267243981361389,-0.4596867263317108
1766401373272580900,13.136580810546874,-1.5442601442337036,0.5291185975074768,-0.7015010714530945
1766401373282590500,13.146590576171874,-2.013523578643799,-0.42616790533065796,0.15562310814857483
1766401373312742000,13.176741943359374,1.235408067703247,-1.1492167711257935,0.24899697303771973
1766401373332761600,13.19676171875,1.2449848651885986,1.278503656387329,-0.2513911724090576
1766401373342801700,13.2068017578125,0.5003881454467773,-0.6847416758537292,-0.002394201699644327
1766401373402829800,13.266829833984374,-0.7709329724311829,-1.9057846069335938,0.14844051003456116
1766401373422880000,13.2868798828125,-0.3256114423274994,0.7134721279144287,-0.7493851184844971
1766401373432889600,13.2968896484375,-0.47884035110473633,0.304063618183136,0.14604631066322327
1766401373482999600,13.34699951171875,-1.5275006294250488,0.7469909191131592,-0.5123591423034668
1766401373493039900,13.357039794921874,-0.4812345504760742,0.7709329724311829,-0.4405331015586853
1766401373503049500,13.367049560546874,0.6392518281936646,-0.586579442024231,-0.014365210197865963
1766401373513151000,13.37715087890625,0.667982280254364,-0.8044517636299133,0.0694318488240242
1766401373523130000,13.387130126953124,0.7781155705451965,-0.4357447028160095,-0.0933738648891449
1766401373533170400,13.39717041015625,0.5410895943641663,-0.2561795711517334,-0.27054479718208313
1766401373543210800,13.407210693359374,-0.2777273952960968,-0.0694318488240242,-0.24181437492370605
1766401373553251000,13.4172509765625,0.5554547905921936,-1.2761094570159912,0.2346317619085312
1766401373583280400,13.4472802734375,0.3687070608139038,-0.3280056416988373,-0.038307227194309235
1766401373603330300,13.467330322265624,0.828393816947937,0.3519476354122162,-0.17717093229293823
1766401373613370600,13.47737060546875,0.5650315880775452,-0.3902548849582672,0.07900865375995636
1766401373623411000,13.487410888671874,-0.8164227604866028,0.15083470940589905,0.011971008032560349
1766401373633420500,13.497420654296874,0.035913024097681046,-0.5650315880775452,-0.33039984107017517
1766401373643430400,13.507430419921874,-0.06224924325942993,1.192312479019165,-0.47405192255973816
1766401373653470700,13.517470703125,-0.2585737705230713,0.05506663769483566,-0.6033388376235962
1766401373663511000,13.527510986328124,-0.6129156351089478,1.4508862495422363,-0.569819986820221
1766401373683561000,13.54756103515625,-0.16519992053508759,0,-0.31603461503982544
1766401373693601300,13.557601318359374,-0.8906430602073669,-0.28730419278144836,0.004788403399288654
1766401373703641600,13.5676416015625,0.016759412363171577,-0.9193734526634216,-0.07182604819536209
1766401373713682000,13.577681884765624,0.004788403399288654,0.16998831927776337,-0.5386953949928284
1766401373723691800,13.58769189453125,0.035913024097681046,0.6129156351089478,-0.17717093229293823
1766401373733701400,13.597701416015624,-0.6033388376235962,-1.436521053314209,0.035913024097681046
1766401373743741700,13.60774169921875,-0.10773907601833344,-0.608127236366272,-0.15562310814857483
1766401373753782000,13.617781982421874,-0.05267243832349777,-0.002394201699644327,-0.2513911724090576
1766401373763792000,13.6277919921875,0.19153612852096558,-0.4572925269603729,-0.3208230137825012
1766401373773801500,13.637801513671874,-0.05746084079146385,0.727837324142456,-0.49559974670410156
1766401373793851600,13.6578515625,0.43335050344467163,0.5937620401382446,0.09576806426048279
1766401373813901600,13.677901611328124,1.1204863786697388,-0.689530074596405,0.08619125932455063
1766401373823942000,13.68794189453125,0.05746084079146385,-0.12689268589019775,-0.18914192914962769
1766401373833951700,13.69795166015625,0.3064578175544739,-0.08140286058187485,-0.44771572947502136
1766401373843992000,13.707991943359374,-1.0342950820922852,-0.10773907601833344,-0.07900865375995636
1766401373854001700,13.718001708984374,-0.4812345504760742,0.3280056416988373,-0.3256114423274994
1766401373864011500,13.728011474609374,-0.21308395266532898,0.3663128614425659,-0.3016694188117981
1766401373884031000,13.748031005859374,-0.047884032130241394,-0.49320554733276367,-0.08140286058187485
1766401373894040800,13.758040771484374,-0.12928688526153564,-0.021547814831137657,-0.13168109953403473
1766401373904081200,13.7680810546875,0.2346317619085312,0.1604115068912506,-0.4644751250743866
1766401373914090800,13.7780908203125,-0.14365209639072418,-0.5267243981361389,-0.05506663769483566
1766401373924070100,13.788070068359374,-0.31842881441116333,-0.24899697303771973,-0.2968810200691223
1766401373934110500,13.7981103515625,0.1628057211637497,0.27054479718208313,-0.38067805767059326
1766401373944150500,13.808150634765624,-0.24181437492370605,0.8954314589500427,-0.5339069962501526
1766401373954160400,13.818160400390624,-0.31364041566848755,0.6488286852836609,-0.22266076505184174
1766401373964170200,13.828170166015624,-0.29209262132644653,0.6200982332229614,-0.21547815203666687
1766401373994260500,13.858260498046874,0.11013327538967133,-0.4141969084739685,-0.304063618183136
1766401374004270300,13.868270263671874,0.15801730751991272,0.16759411990642548,-0.10773907601833344
1766401374014341000,13.878341064453124,-0.3471592366695404,-0.31842881441116333,-0.2322375625371933
1766401374024381400,13.88838134765625,-0.40462008118629456,-0.3064578175544739,-0.08858546614646912
1766401374034391000,13.89839111328125,-0.2849099934101105,-0.0454898327589035,-0.31842881441116333
1766401374044401000,13.90840087890625,-0.06224924325942993,0.44532153010368347,-0.4429273009300232
1766401374054441200,13.918441162109374,-0.6560112833976746,0.3423708379268646,-0.3687070608139038
1766401374064450800,13.928450927734374,-0.49559974670410156,-0.021547814831137657,-0.2968810200691223
1766401374074491100,13.9384912109375,-0.11971008777618408,-0.038307227194309235,-0.22266076505184174
1766401374104520400,13.9685205078125,-0.038307227194309235,0.1388636976480484,-0.1867477297782898
1766401374114530300,13.9785302734375,0.6799532771110535,0.08140286058187485,-0.19871874153614044
1766401374124540200,13.9885400390625,0.40222588181495667,0.028730420395731926,-0.2513911724090576
1766401374144590000,14.008590087890624,0.4884171485900879,0.0933738648891449,-0.26096799969673157
1766401374154630400,14.01863037109375,0.19393034279346466,-0.40462008118629456,0.021547814831137657
1766401374164640300,14.02864013671875,0.0071826050989329815,-0.5626373887062073,-0.10534487664699554
1766401374174649900,14.03864990234375,-0.1628057211637497,-0.019153613597154617,-0.19632454216480255
1766401374204679200,14.06867919921875,-0.035913024097681046,-0.2513911724090576,-0.3280056416988373
1766401374214689000,14.07868896484375,0.09576806426048279,0.0694318488240242,-0.21547815203666687
1766401374224729300,14.088729248046874,-0.033518824726343155,-0.24899697303771973,-0.08140286058187485
1766401374234739000,14.098739013671874,-0.4165911078453064,-0.7206547260284424,0.009576806798577309
1766401374244748800,14.108748779296874,-0.272938996553421,-0.1149216815829277,-0.33279404044151306
1766401374254789000,14.1187890625,-0.5195417404174805,0.0454898327589035,-0.2322375625371933
1766401374264829400,14.128829345703124,-0.13168109953403473,0.0454898327589035,-0.24420857429504395
1766401374274869800,14.138869873046875,0.17477671802043915,0.2968810200691223,-0.18914192914962769
1766401374284879400,14.14887939453125,-0.44532153010368347,-0.31364041566848755,-0.1364694982767105
1766401374324949000,14.188948974609374,0.016759412363171577,0.05506663769483566,-0.1867477297782898
1766401374334958800,14.198958740234374,0.22026655077934265,0.7972691655158997,-0.5123591423034668
1766401374344999000,14.2089990234375,0.44532153010368347,0.20350714027881622,-0.47405192255973816
1766401374355008800,14.2190087890625,-0.47405192255973816,-0.3998316824436188,-0.21308395266532898
1766401374365018600,14.2290185546875,-0.9696516990661621,-0.38067805767059326,-0.20111294090747833
1766401374375028200,14.2390283203125,-0.7469909191131592,0.7733271718025208,-0.524330198764801
1766401374385068500,14.249068603515624,-0.3926490843296051,0.22505496442317963,-0.19393034279346466
1766401374405088300,14.269088134765624,0.6847416758537292,-0.7110779285430908,-0.14844051003456116
1766401374415128300,14.27912841796875,1.0055646896362305,-0.545877993106842,-0.016759412363171577
1766401374425168600,14.289168701171874,0.9097966551780701,-0.10534487664699554,-0.23702596127986908
1766401374435209000,14.299208984375,0.9720458984375,-0.21547815203666687,-0.06703764945268631
1766401374445218800,14.30921875,-0.26096799969673157,0.44771572947502136,-0.4596867263317108
1766401374455228400,14.319228515625,0.10773907601833344,-0.31364041566848755,-0.05746084079146385
1766401374465238300,14.32923828125,-0.18914192914962769,0.0071826050989329815,-0.3902548849582672
1766401374475248000,14.339248046875,-0.4668693244457245,0.5434837937355042,-0.4596867263317108
1766401374485288400,14.349288330078124,-0.5937620401382446,-0.6320692300796509,-0.040701430290937424
1766401374505308000,14.369307861328124,-0.2082955539226532,-0.6943184733390808,0.0933738648891449
1766401374515317800,14.37931787109375,0.2513911724090576,-1.4700398445129395,0.1843535304069519
