time,seconds_elapsed,z,y,x
1766401358187253800,-1.948746337890625,8.095186233520508,-4.074074745178223,-3.747035503387451
1766401358207303700,-1.9286962890625,8.103068351745605,-4.06028938293457,-3.7449607849121094
1766401358227384300,-1.90861572265625,8.094945907592773,-4.0793867111206055,-3.741769313812256
1766401358237394200,-1.898605712890625,8.090837478637695,-4.088576793670654,-3.7406258583068848
1766401358247403800,-1.88859619140625,8.086847305297852,-4.092896461486816,-3.744528293609619
1766401358257413600,-1.87858642578125,8.082342147827148,-4.095643997192383,-3.7512435913085938
1766401358267454000,-1.868546142578125,8.079010009765625,-4.096775054931641,-3.7571828365325928
1766401358277494300,-1.858505615234375,8.079488754272461,-4.089968204498291,-3.763564109802246
1766401358287504000,-1.84849609375,8.085332870483398,-4.074664115905762,-3.7676100730895996
1766401358297513700,-1.838486328125,8.094886779785156,-4.053111553192139,-3.77034330368042
1766401358357572400,-1.778427734375,8.101114273071289,-4.05039644241333,-3.759871006011963
1766401358377591800,-1.758408203125,8.097339630126953,-4.059426784515381,-3.7582623958587646
1766401358387632000,-1.748367919921875,8.100859642028809,-4.052767753601074,-3.757863998413086
1766401358397641700,-1.738358154296875,8.103009223937988,-4.0487189292907715,-3.757591724395752
1766401358427793200,-1.708206787109375,8.111055374145508,-4.031818389892578,-3.758405923843384
1766401358437803000,-1.698197021484375,8.113960266113281,-4.026422500610352,-3.757918357849121
1766401358447843300,-1.68815673828125,8.11473274230957,-4.027279376983643,-3.7553322315216064
1766401358457883600,-1.678116455078125,8.113994598388672,-4.029298782348633,-3.754760980606079
1766401358467893200,-1.668106689453125,8.113731384277344,-4.030170440673828,-3.7543959617614746
1766401358477903000,-1.658096923828125,8.11318302154541,-4.029021739959717,-3.7568135261535645
1766401358487913000,-1.648087158203125,8.11422061920166,-4.025814533233643,-3.7580089569091797
1766401358507932400,-1.628067626953125,8.116434097290039,-4.021936416625977,-3.757380962371826
1766401358537931300,-1.59806884765625,8.116490364074707,-4.023519992828369,-3.7555654048919678
1766401358547940900,-1.58805908203125,8.11548900604248,-4.024592876434326,-3.756577491760254
1766401358557920300,-1.578079833984375,8.115291595458984,-4.024575233459473,-3.757023572921753
1766401358567929900,-1.568070068359375,8.11634635925293,-4.023979187011719,-3.755382776260376
1766401358577939700,-1.558060302734375,8.11620044708252,-4.024175643920898,-3.7554869651794434
1766401358587949600,-1.548050537109375,8.116987228393555,-4.023060321807861,-3.7549822330474854
1766401358597959200,-1.538040771484375,8.119163513183594,-4.018805027008057,-3.7548341751098633
1766401358607969000,-1.528031005859375,8.11978816986084,-4.017680644989014,-3.754685878753662
1766401358617948200,-1.5180517578125,8.121417999267578,-4.015858173370361,-3.7531118392944336
1766401358648008200,-1.48799169921875,8.124338150024414,-4.0148162841796875,-3.7479007244110107
1766401358658017800,-1.477982177734375,8.12336540222168,-4.016973972320557,-3.7476980686187744
1766401358668027600,-1.467972412109375,8.124906539916992,-4.016089916229248,-3.74530291557312
1766401358678037200,-1.457962646484375,8.125032424926758,-4.016709327697754,-3.7443668842315674
1766401358688047000,-1.447952880859375,8.125754356384277,-4.016336917877197,-3.743199110031128
1766401358698057000,-1.437943115234375,8.12572956085205,-4.017141819000244,-3.7423877716064453
1766401358708066600,-1.427933349609375,8.12568187713623,-4.017421245574951,-3.7421934604644775
1766401358718076400,-1.417923583984375,8.12624454498291,-4.01723575592041,-3.741170644760132
1766401358748166700,-1.387833251953125,8.12666130065918,-4.018510818481445,-3.7388954162597656
1766401358758176500,-1.377823486328125,8.1256685256958,-4.022516250610352,-3.736746311187744
1766401358768186400,-1.367813720703125,8.125414848327637,-4.024230480194092,-3.7354512214660645
1766401358778226700,-1.357773193359375,8.125160217285156,-4.025280475616455,-3.7348742485046387
1766401358788266800,-1.347733154296875,8.125006675720215,-4.026113986968994,-3.7343084812164307
1766401358798276600,-1.337723388671875,8.12503719329834,-4.0267252922058105,-3.7335829734802246
1766401358808317000,-1.32768310546875,8.125198364257812,-4.02570915222168,-3.7343289852142334
1766401358818326800,-1.317673095703125,8.125725746154785,-4.024528980255127,-3.734452486038208
1766401358828336400,-1.30766357421875,8.126313209533691,-4.023273944854736,-3.7345263957977295
1766401358858365700,-1.27763427734375,8.125679969787598,-4.023027420043945,-3.736170768737793
1766401358868375600,-1.26762451171875,8.126168251037598,-4.0219926834106445,-3.736222505569458
1766401358878385200,-1.25761474609375,8.126500129699707,-4.022645950317383,-3.7347941398620605
1766401358888395000,-1.24760498046875,8.126094818115234,-4.0243353843688965,-3.7338593006134033
1766401358898374400,-1.23762548828125,8.124530792236328,-4.028589248657227,-3.732675075531006
1766401358908384000,-1.227615966796875,8.123255729675293,-4.031275272369385,-3.7325496673583984
1766401358918424300,-1.21757568359375,8.124377250671387,-4.030458927154541,-3.730990409851074
1766401358948484000,-1.187515869140625,8.128449440002441,-4.02372407913208,-3.7293894290924072
1766401358968503600,-1.167496337890625,8.126412391662598,-4.0253496170043945,-3.7320735454559326
1766401358978513400,-1.157486572265625,8.126749038696289,-4.025363922119141,-3.731325626373291
1766401359008542700,-1.127457275390625,8.126043319702148,-4.020162582397461,-3.738461971282959
1766401359018583000,-1.1174169921875,8.126749992370605,-4.017688274383545,-3.7395856380462646
1766401359028593000,-1.107406982421875,8.126720428466797,-4.015334606170654,-3.742178201675415
1766401359048612400,-1.0873876953125,8.126784324645996,-4.015620231628418,-3.7417328357696533
1766401359068693000,-1.06730712890625,8.123946189880371,-4.024425506591797,-3.738431930541992
1766401359078702600,-1.05729736328125,8.123174667358398,-4.0279221534729,-3.7363429069519043
1766401359088712400,-1.04728759765625,8.123271942138672,-4.029414176940918,-3.7345244884490967
1766401359098722300,-1.037277587890625,8.124091148376465,-4.028093338012695,-3.7341666221618652
1766401359108793000,-1.02720703125,8.1259183883667,-4.02479887008667,-3.733743190765381
1766401359118802700,-1.017197265625,8.127360343933105,-4.022304058074951,-3.733293056488037
1766401359128812500,-1.0071875,8.129006385803223,-4.020183086395264,-3.731992483139038
1766401359138883300,-0.99711669921875,8.130206108093262,-4.018124580383301,-3.7315964698791504
1766401359148893200,-0.98710693359375,8.131495475769043,-4.015329360961914,-3.7317965030670166
1766401359178922500,-0.957077392578125,8.13150405883789,-4.01517915725708,-3.7319374084472656
1766401359198942000,-0.93705810546875,8.129140853881836,-4.021764278411865,-3.7299964427948
1766401359219022600,-0.916977294921875,8.129215240478516,-4.020625591278076,-3.7310612201690674
1766401359229032200,-0.9069677734375,8.131656646728516,-4.0154500007629395,-3.7313148975372314
1766401359239042000,-0.8969580078125,8.134843826293945,-4.008490085601807,-3.7318506240844727
1766401359339261700,-0.79673828125,8.136927604675293,-4.0078864097595215,-3.727954626083374
1766401359369291000,-0.766708984375,8.13879680633545,-4.006216049194336,-3.7256696224212646
1766401359379300900,-0.75669921875,8.141251564025879,-4.002963066101074,-3.723802328109741
1766401359389341200,-0.746658935546875,8.142648696899414,-4.001034736633301,-3.722818613052368
1766401359419401000,-0.71659912109375,8.17160415649414,-4.0658392906188965,-3.586672306060791
1766401359429410600,-0.70658935546875,8.171158790588379,-4.064523220062256,-3.5891783237457275
1766401359439420400,-0.69657958984375,8.170069694519043,-4.063124656677246,-3.5932374000549316
1766401359449430300,-0.68656982421875,8.169408798217773,-4.062016487121582,-3.595994472503662
1766401359459439900,-0.67656005859375,8.16910171508789,-4.061421871185303,-3.597363233566284
1766401359479490000,-0.656510009765625,8.1654691696167,-4.066516876220703,-3.5998547077178955
1766401359489530400,-0.6464697265625,8.164875030517578,-4.06740140914917,-3.6002016067504883
1766401359499540000,-0.6364599609375,8.164149284362793,-4.067749977111816,-3.601454019546509
1766401359509549800,-0.6264501953125,8.163930892944336,-4.067448139190674,-3.6022891998291016
1766401359519559700,-0.6164404296875,8.163833618164062,-4.066717624664307,-3.603332996368408
1766401359529569300,-0.6064306640625,8.1641845703125,-4.065602779388428,-3.6037957668304443
1766401359539579100,-0.5964208984375,8.16530704498291,-4.062110900878906,-3.605192184448242
1766401359549589000,-0.586410888671875,8.166040420532227,-4.059204578399658,-3.6068034172058105
1766401359559598600,-0.5764013671875,8.165823936462402,-4.058737754821777,-3.6078200340270996
1766401359589628000,-0.5463720703125,8.164450645446777,-4.057496547698975,-3.6123180389404297
1766401359599668200,-0.536331787109375,8.164863586425781,-4.055743217468262,-3.613356590270996
1766401359609708500,-0.52629150390625,8.165660858154297,-4.053375244140625,-3.6142098903656006
1766401359619718100,-0.51628173828125,8.166461944580078,-4.051495552062988,-3.6145098209381104
1766401359629697500,-0.506302490234375,8.167348861694336,-4.049497127532959,-3.614744186401367
1766401359639768300,-0.496231689453125,8.167848587036133,-4.048065662384033,-3.615217924118042
1766401359649778200,-0.486221923828125,8.168075561523438,-4.046844959259033,-3.6160740852355957
1766401359659757300,-0.47624267578125,8.16801929473877,-4.046603679656982,-3.6164674758911133
1766401359669767200,-0.46623291015625,8.167695999145508,-4.04676628112793,-3.6170175075531006
1766401359709836800,-0.4261630859375,8.165813446044922,-4.04655122756958,-3.621507167816162
1766401359719846400,-0.416153564453125,8.166613578796387,-4.044471263885498,-3.6220245361328125
1766401359729856300,-0.406143798828125,8.167512893676758,-4.0423054695129395,-3.6224148273468018
1766401359739865900,-0.396134033203125,8.168896675109863,-4.038539409637451,-3.6234946250915527
1766401359749906200,-0.38609375,8.169336318969727,-4.0369367599487305,-3.6242892742156982
1766401359759916000,-0.376083984375,8.168989181518555,-4.036530017852783,-3.6255240440368652
1766401359769926000,-0.36607421875,8.168444633483887,-4.037040710449219,-3.62618350982666
1766401359789975800,-0.346024169921875,8.162984848022461,-4.047879695892334,-3.6263935565948486
1766401359799985700,-0.336014404296875,8.161564826965332,-4.050275802612305,-3.6269166469573975
1766401359809995300,-0.326004638671875,8.159097671508789,-4.05490255355835,-3.627293825149536
1766401359820005000,-0.315994873046875,8.158699035644531,-4.055611610412598,-3.6273996829986572
1766401359830045400,-0.30595458984375,8.158432006835938,-4.054810523986816,-3.628896713256836
1766401359840055300,-0.29594482421875,8.158295631408691,-4.053640365600586,-3.6305091381073
1766401359850065000,-0.28593505859375,8.157620429992676,-4.052738189697266,-3.633035182952881
1766401359860074800,-0.27592529296875,8.15758991241455,-4.050936222076416,-3.6351099014282227
1766401359870115000,-0.265885009765625,8.157649993896484,-4.049863338470459,-3.636173725128174
1766401359880124700,-0.255875244140625,8.157307624816895,-4.049276828765869,-3.637592077255249
1766401359920133400,-0.21586669921875,8.152867317199707,-4.053836345672607,-3.6424639225006104
1766401359930143000,-0.20585693359375,8.151113510131836,-4.056046485900879,-3.643930673599243
1766401359940152800,-0.19584716796875,8.150553703308105,-4.055891513824463,-3.6453545093536377
1766401359950162700,-0.18583740234375,8.150138854980469,-4.055294513702393,-3.646946430206299
1766401359960203000,-0.175796875,8.150240898132324,-4.052958965301514,-3.649311065673828
1766401359970212600,-0.165787353515625,8.150680541992188,-4.050817012786865,-3.6507089138031006
1766401360000242000,-0.135758056640625,8.148003578186035,-4.051590919494629,-3.655820608139038
1766401360010251800,-0.125748291015625,8.14587688446045,-4.054723262786865,-3.657087564468384
1766401360020231000,-0.11576904296875,8.144983291625977,-4.055605411529541,-3.658101797103882
1766401360030240800,-0.10575927734375,8.143198013305664,-4.058167934417725,-3.6592321395874023
1766401360040250600,-0.095749267578125,8.142114639282227,-4.0593109130859375,-3.6603755950927734
1766401360050290700,-0.085709228515625,8.141436576843262,-4.058111190795898,-3.6632132530212402
1766401360070310400,-0.065689697265625,8.141221046447754,-4.056995391845703,-3.6649279594421387
1766401360080350700,-0.055649169921875,8.140761375427246,-4.057987689971924,-3.664850950241089
1766401360090360300,-0.0456396484375,8.142004013061523,-4.057054042816162,-3.663123607635498
1766401360120389600,-0.0156103515625,8.142304420471191,-4.059659481048584,-3.659566879272461
1766401360130399500,-0.0056005859375,8.142623901367188,-4.059163570404053,-3.6594066619873047
1766401360140378600,0.004378662109375,8.143628120422363,-4.057425022125244,-3.659100294113159
1766401360150388500,0.014388427734375,8.14448356628418,-4.056077003479004,-3.6586899757385254
1766401360160398000,0.024398193359375,8.145721435546875,-4.05519962310791,-3.656906843185425
1766401360170408000,0.034407958984375,8.146324157714844,-4.054685115814209,-3.6561360359191895
1766401360180417800,0.044417724609375,8.148700714111328,-4.052741527557373,-3.6529924869537354
1766401360200467700,0.0644677734375,8.150440216064453,-4.052661418914795,-3.649199962615967
1766401360210477600,0.0744775390625,8.151224136352539,-4.053627967834473,-3.646372079849243
1766401360220487400,0.0844873046875,8.150949478149414,-4.055963039398193,-3.644390106201172
1766401360230497000,0.0944970703125,8.152021408081055,-4.05757999420166,-3.6401901245117188
1766401360240507000,0.1045068359375,8.151692390441895,-4.060583591461182,-3.6375770568847656
1766401360250516700,0.114516845703125,8.151993751525879,-4.062067031860352,-3.6352455615997314
1766401360260526300,0.1245263671875,8.153002738952637,-4.061822891235352,-3.6332530975341797
1766401360270536200,0.1345361328125,8.152937889099121,-4.062076568603516,-3.6331136226654053
1766401360280515300,0.144515380859375,8.151734352111816,-4.0641326904296875,-3.6335160732269287
1766401360290555600,0.1545556640625,8.150646209716797,-4.066815376281738,-3.6329567432403564
1766401360300565500,0.1645654296875,8.15034008026123,-4.067508220672607,-3.632866382598877
1766401360340696000,0.204696044921875,8.15296745300293,-4.090751647949219,-3.600731372833252
1766401360360776700,0.224776611328125,8.166492462158203,-4.08696174621582,-3.5742874145507812
1766401360370786300,0.234786376953125,8.173887252807617,-4.08098030090332,-3.564204216003418
1766401360380796200,0.244796142578125,8.183611869812012,-4.071599960327148,-3.552598237991333
1766401360390806000,0.254805908203125,8.192901611328125,-4.061246395111084,-3.54302716255188
1766401360420865800,0.28486572265625,8.213394165039062,-4.040544509887695,-3.519166946411133
1766401360430875400,0.29487548828125,8.218805313110352,-4.036814212799072,-3.5108067989349365
1766401360440915700,0.304915771484375,8.223814964294434,-4.035710334777832,-3.5003292560577393
1766401360450925600,0.314925537109375,8.227322578430176,-4.040221214294434,-3.486856460571289
1766401360460935400,0.324935302734375,8.22940444946289,-4.049574851989746,-3.471057415008545
1766401360470914600,0.33491455078125,8.236084938049316,-4.059317111968994,-3.4437248706817627
1766401360480985300,0.3449853515625,8.239156723022461,-4.0608439445495605,-3.434563636779785
1766401360490995200,0.3549951171875,8.246743202209473,-4.061238765716553,-3.4158389568328857
1766401360501004800,0.3650048828125,8.259331703186035,-4.0606608390808105,-3.385979413986206
1766401360531034000,0.3950341796875,8.283740043640137,-4.054325580596924,-3.3335373401641846
1766401360541044000,0.4050439453125,8.290668487548828,-4.061141490936279,-3.3079192638397217
1766401360551084300,0.415084228515625,8.290413856506348,-4.066697597503662,-3.3017263412475586
1766401360571134200,0.43513427734375,8.299694061279297,-4.06972599029541,-3.2745683193206787
1766401360581144000,0.44514404296875,8.302265167236328,-4.073788642883301,-3.2629778385162354
1766401360591154000,0.45515380859375,8.3040189743042,-4.08217716217041,-3.247997999191284
1766401360601163500,0.46516357421875,8.303300857543945,-4.090256690979004,-3.2396585941314697
1766401360641294000,0.505294189453125,8.285326957702637,-4.136154651641846,-3.227376937866211
1766401360651304000,0.515303955078125,8.278422355651855,-4.148549556732178,-3.229187488555908
1766401360661313800,0.525313720703125,8.270573616027832,-4.160740852355957,-3.2336089611053467
1766401360671354000,0.53535400390625,8.267822265625,-4.164754867553711,-3.2354769706726074
1766401360681363700,0.54536376953125,8.264517784118652,-4.169817924499512,-3.2373995780944824
1766401360691404000,0.555404052734375,8.260937690734863,-4.1760149002075195,-3.2385499477386475
1766401360701414000,0.565413818359375,8.254688262939453,-4.18494987487793,-3.242945671081543
1766401360711423500,0.575423583984375,8.247267723083496,-4.194812774658203,-3.2490792274475098
1766401360731443200,0.595443115234375,8.227139472961426,-4.218785762786865,-3.2690064907073975
1766401360751462700,0.615462646484375,8.207801818847656,-4.2391204833984375,-3.2912344932556152
1766401360761472500,0.625472412109375,8.199583053588867,-4.243132591247559,-3.3065171241760254
1766401360771482000,0.635482177734375,8.198941230773926,-4.24067497253418,-3.3112576007843018
1766401360781492000,0.645491943359375,8.193175315856934,-4.244821071624756,-3.3202054500579834
1766401360791501800,0.655501708984375,8.194064140319824,-4.241517543792725,-3.322232246398926
1766401360801511400,0.665511474609375,8.179900169372559,-4.268416404724121,-3.322685480117798
1766401360811551700,0.6755517578125,8.165356636047363,-4.294071674346924,-3.3254005908966064
1766401360821561600,0.6855615234375,8.158292770385742,-4.305376052856445,-3.328120470046997
1766401360831602000,0.695601806640625,8.160032272338867,-4.303561687469482,-3.326200485229492
1766401360841611500,0.705611572265625,8.163595199584961,-4.297048091888428,-3.325880527496338
1766401360851682300,0.715682373046875,8.166447639465332,-4.2940778732299805,-3.322711706161499
1766401360861692200,0.725692138671875,8.154558181762695,-4.323437690734863,-3.3138272762298584
1766401360871732500,0.735732421875,8.150266647338867,-4.333860397338867,-3.310770034790039
1766401360881742000,0.7457421875,8.077953338623047,-4.470835208892822,-3.3058574199676514
1766401360901731300,0.7657314453125,7.991888046264648,-4.62160587310791,-3.307698965072632
1766401360911741000,0.775740966796875,7.958703517913818,-4.678981304168701,-3.30704665184021
1766401360941770200,0.805770263671875,7.874173641204834,-4.844109535217285,-3.2714500427246094
1766401360951810600,0.815810546875,7.861313343048096,-4.868438243865967,-3.266258955001831
1766401360961851000,0.825850830078125,7.7937774658203125,-4.987338066101074,-3.248673677444458
1766401360971860500,0.835860595703125,7.724087715148926,-5.100849151611328,-3.238858938217163
1766401360981870300,0.845870361328125,7.645388126373291,-5.223060131072998,-3.2308003902435303
1766401360991880200,0.855880126953125,7.566747188568115,-5.339967727661133,-3.2248215675354004
1766401361001889800,0.865889892578125,7.493038177490234,-5.446933746337891,-3.2180233001708984
1766401361011899600,0.875899658203125,7.452755451202393,-5.5042243003845215,-3.214085817337036
1766401361021879000,0.885879150390625,7.383752346038818,-5.6036882400512695,-3.201446533203125
1766401361061918000,0.92591796875,7.196862697601318,-5.892547607421875,-3.1070003509521484
1766401361071927800,0.935927734375,7.163571357727051,-5.9450764656066895,-3.083780288696289
1766401361081968000,0.945968017578125,7.135202884674072,-5.992195129394531,-3.0582449436187744
1766401361091977700,0.955977783203125,7.1139092445373535,-6.031643867492676,-3.0301733016967773
1766401361101987600,0.965987548828125,7.0894904136657715,-6.084604740142822,-2.981126070022583
1766401361112028000,0.97602783203125,7.076731204986572,-6.107516765594482,-2.9645419120788574
1766401361122037500,0.98603759765625,7.043183326721191,-6.180469989776611,-2.8923580646514893
1766401361152066800,1.01606689453125,6.962672233581543,-6.320644378662109,-2.782273769378662
1766401361162107100,1.026107177734375,6.934517860412598,-6.3620429039001465,-2.7581260204315186
1766401361172117000,1.036116943359375,6.855760097503662,-6.479795932769775,-2.679771900177002
1766401361182126600,1.046126708984375,6.795038223266602,-6.564086437225342,-2.628805637359619
1766401361192136400,1.056136474609375,6.764545917510986,-6.605890274047852,-2.6025986671447754
1766401361202146300,1.066146240234375,6.7156596183776855,-6.6781535148620605,-2.5441250801086426
1766401361212156000,1.076156005859375,6.667814254760742,-6.748844146728516,-2.4826881885528564
1766401361222165800,1.086165771484375,6.623219013214111,-6.814914703369141,-2.420807361602783
1766401361232175600,1.096175537109375,6.574051380157471,-6.89238977432251,-2.33392333984375
1766401361242185200,1.106185302734375,6.556617736816406,-6.91881799697876,-2.3045859336853027
1766401361272245200,1.136245361328125,6.490434169769287,-7.035232067108154,-2.133112668991089
1766401361282194000,1.14619384765625,6.4532294273376465,-7.085899353027344,-2.0775599479675293
1766401361292234200,1.156234130859375,6.403938293457031,-7.146005153656006,-2.0235061645507812
1766401361302243800,1.166243896484375,6.342770099639893,-7.21503210067749,-1.9705262184143066
1766401361312223200,1.17622314453125,6.239446640014648,-7.325761318206787,-1.890213966369629
1766401361332273200,1.196273193359375,6.097274303436279,-7.470017910003662,-1.7867484092712402
1766401361352323300,1.2163232421875,5.987951278686523,-7.57503080368042,-1.7128207683563232
1766401361382352600,1.2463525390625,5.660427093505859,-7.856174468994141,-1.552579641342163
1766401361392362200,1.2563623046875,5.520559787750244,-7.9664788246154785,-1.4929916858673096
1766401361402341600,1.266341552734375,5.2935075759887695,-8.134847640991211,-1.4047870635986328
1766401361412382000,1.2763818359375,5.129969120025635,-8.24858570098877,-1.3470885753631592
1766401361422391600,1.2863916015625,4.964555740356445,-8.3579683303833,-1.2914921045303345
1766401361432401400,1.2964013671875,4.881828308105469,-8.41057014465332,-1.2650959491729736
1766401361442441700,1.306441650390625,4.722465515136719,-8.508611679077148,-1.2133584022521973
1766401361482541800,1.346541748046875,4.004141330718994,-8.893190383911133,-1.023911714553833
1766401361492551400,1.356551513671875,3.800539493560791,-8.985648155212402,-0.9921797513961792
1766401361502500400,1.366500244140625,3.4903929233551025,-9.1137113571167,-0.9632421135902405
1766401361512479500,1.3764794921875,3.386103391647339,-9.15353775024414,-0.9578367471694946
1766401361522519800,1.386519775390625,3.1856579780578613,-9.225584983825684,-0.9542258381843567
1766401361532529700,1.39652978515625,2.9971673488616943,-9.287954330444336,-0.9598410725593567
1766401361542539300,1.406539306640625,2.7135791778564453,-9.372246742248535,-0.9838006496429443
1766401361562558700,1.426558837890625,2.273350715637207,-9.481417655944824,-1.0511910915374756
1766401361582609000,1.44660888671875,1.7366888523101807,-9.578989028930664,-1.1820640563964844
1766401361592649200,1.456649169921875,1.6126766204833984,-9.596504211425781,-1.2152403593063354
1766401361602659000,1.4666591796875,1.277303695678711,-9.631850242614746,-1.3290303945541382
1766401361612699100,1.47669921875,1.0515092611312866,-9.647159576416016,-1.4131579399108887
1766401361622709000,1.486708984375,0.8164233565330505,-9.65644359588623,-1.5023177862167358
1766401361632718800,1.49671875,0.5802075266838074,-9.658365249633789,-1.5967767238616943
1766401361642789600,1.50678955078125,0.4668219983577728,-9.656692504882812,-1.6433979272842407
1766401361652799200,1.51679931640625,0.1389653980731964,-9.638139724731445,-1.804811954498291
1766401361672788200,1.536788330078125,-0.24040450155735016,-9.588340759277344,-2.0436043739318848
1766401361682828500,1.54682861328125,-0.41612815856933594,-9.553524017333984,-2.1742584705352783
1766401361692838400,1.55683837890625,-0.4990595281124115,-9.534238815307617,-2.240450143814087
1766401361712857900,1.57685791015625,-0.8307353854179382,-9.440889358520508,-2.519893169403076
1766401361722898200,1.586898193359375,-1.1003144979476929,-9.347525596618652,-2.7538115978240967
1766401361732908000,1.596907958984375,-1.273715853691101,-9.274486541748047,-2.9209511280059814
1766401361742917600,1.606917724609375,-1.4405635595321655,-9.19365119934082,-3.0938568115234375
1766401361752927500,1.616927490234375,-1.5924972295761108,-9.106139183044434,-3.27301025390625
1766401361782987300,1.6469873046875,-1.8196055889129639,-8.826048851013184,-3.867849826812744
1766401361803037400,1.667037353515625,-1.873406171798706,-8.610822677612305,-4.302844047546387
1766401361813047000,1.677047119140625,-1.896289587020874,-8.5502347946167,-4.412250518798828
1766401361823057000,1.687056884765625,-1.9936832189559937,-8.410456657409668,-4.632482051849365
1766401361843106800,1.70710693359375,-2.4140467643737793,-7.968230724334717,-5.181706428527832
1766401361853116700,1.71711669921875,-2.5585598945617676,-7.779375076293945,-5.394949913024902
1766401361883146000,1.74714599609375,-2.669804334640503,-7.375006198883057,-5.8865790367126465
1766401361893155800,1.75715576171875,-2.626126527786255,-7.172828197479248,-6.150155067443848
1766401361903165400,1.76716552734375,-2.5905027389526367,-7.046027660369873,-6.3097710609436035
1766401361913175300,1.77717529296875,-2.5585312843322754,-6.920722484588623,-6.459717750549316
1766401361923215600,1.787215576171875,-2.5416181087493896,-6.859075546264648,-6.531743049621582
1766401361933256000,1.797255859375,-2.538696765899658,-6.662996768951416,-6.7327494621276855
1766401361943265500,1.807265625,-2.5655221939086914,-6.527279853820801,-6.8544230461120605
1766401361953275400,1.817275390625,-2.611558437347412,-6.3858489990234375,-6.969295501708984
1766401361963285200,1.82728515625,-2.659698009490967,-6.244760990142822,-7.078090667724609
1766401361993314600,1.857314453125,-2.675089120864868,-5.900729656219482,-7.361771106719971
1766401362003324200,1.86732421875,-2.6369426250457764,-5.820131301879883,-7.43928861618042
1766401362013334000,1.877333984375,-2.5816152095794678,-5.7551960945129395,-7.5088887214660645
1766401362023343900,1.88734375,-2.535709857940674,-5.743736267089844,-7.533263683319092
1766401362033353500,1.897353515625,-2.4055016040802,-5.663950443267822,-7.635678768157959
1766401362043393800,1.907393798828125,-2.3139703273773193,-5.605429172515869,-7.706822872161865
1766401362063413200,1.927413330078125,-2.1791508197784424,-5.503381252288818,-7.818853855133057
1766401362073392600,1.937392578125,-2.0689568519592285,-5.371298789978027,-7.939707279205322
1766401362113431600,1.977431640625,-1.8828257322311401,-4.970210552215576,-8.241501808166504
1766401362123472000,1.987471923828125,-1.8118542432785034,-4.777275085449219,-8.370497703552246
1766401362133481700,1.997481689453125,-1.7817034721374512,-4.712278366088867,-8.413701057434082
1766401362143491600,2.00749169921875,-1.7210639715194702,-4.581610202789307,-8.498069763183594
1766401362153470700,2.017470703125,-1.6177812814712524,-4.388320446014404,-8.619501113891602
1766401362163511000,2.027510986328125,-1.548701286315918,-4.26063346862793,-8.69591236114502
1766401362173520600,2.037520751953125,-1.4862480163574219,-4.127664089202881,-8.770625114440918
1766401362203580700,2.06758056640625,-1.3687877655029297,-3.7955682277679443,-8.938148498535156
1766401362213620700,2.077620849609375,-1.3439520597457886,-3.663776159286499,-8.996719360351562
1766401362223630600,2.087630615234375,-1.327640414237976,-3.538525104522705,-9.049121856689453
1766401362233640400,2.097640380859375,-1.3153525590896606,-3.425297737121582,-9.09437084197998
1766401362243650000,2.107650146484375,-1.3045032024383545,-3.325867176055908,-9.132758140563965
1766401362253690400,2.1176904296875,-1.290824294090271,-3.20391583442688,-9.178184509277344
1766401362263639300,2.127639404296875,-1.2800889015197754,-3.1473348140716553,-9.19924259185791
1766401362273679400,2.137679443359375,-1.2674901485443115,-3.1101715564727783,-9.213613510131836
1766401362283689200,2.147689208984375,-1.2563093900680542,-3.1052777767181396,-9.216795921325684
1766401362333799200,2.197799072265625,-1.1605215072631836,-3.2910149097442627,-9.164756774902344
1766401362343808800,2.207808837890625,-1.1424024105072021,-3.3329970836639404,-9.15185260772705
1766401362353879600,2.217879638671875,-1.1192361116409302,-3.415470838546753,-9.12427043914795
1766401362363889400,2.227889404296875,-1.1003992557525635,-3.453775644302368,-9.112130165100098
1766401362373899300,2.237899169921875,-1.0821709632873535,-3.504687547683716,-9.094858169555664
1766401362383908900,2.247908935546875,-1.0647276639938354,-3.5534889698028564,-9.07796859741211
1766401362393918700,2.257918701171875,-1.0472475290298462,-3.60001277923584,-9.061655044555664
1766401362433958000,2.2979580078125,-0.9731576442718506,-3.7681477069854736,-9.001357078552246
1766401362443967500,2.307967529296875,-0.9543220400810242,-3.8004205226898193,-8.989798545837402
1766401362453947000,2.31794677734375,-0.9375129342079163,-3.8284692764282227,-8.979660034179688
1766401362463956500,2.32795654296875,-0.9211907386779785,-3.853287935256958,-8.97072982788086
1766401362473966300,2.33796630859375,-0.8953437805175781,-3.88792085647583,-8.958394050598145
1766401362483976200,2.34797607421875,-0.8881991505622864,-3.8947536945343018,-8.956136703491211
1766401362493985800,2.35798583984375,-0.8708750605583191,-3.910435676574707,-8.951004028320312
1766401362503995600,2.36799560546875,-0.8540846705436707,-3.921299695968628,-8.947868347167969
1766401362544065300,2.408065185546875,-0.7908639907836914,-3.9142472743988037,-8.95676326751709
1766401362554075000,2.418074951171875,-0.7838894724845886,-3.904522657394409,-8.961616516113281
1766401362564084700,2.428084716796875,-0.7803221344947815,-3.8934741020202637,-8.96673583984375
1766401362574094600,2.438094482421875,-0.7851923704147339,-3.882704019546509,-8.970979690551758
1766401362584104200,2.448104248046875,-0.7848358154296875,-3.8722918033599854,-8.975510597229004
1766401362594114000,2.458114013671875,-0.7827455401420593,-3.856541156768799,-8.982471466064453
1766401362604154400,2.468154296875,-0.7931997179985046,-3.845360517501831,-8.986348152160645
1766401362644224000,2.50822412109375,-0.8672837615013123,-3.7121496200561523,-9.035384178161621
1766401362654233600,2.518233642578125,-0.886536180973053,-3.676348924636841,-9.048144340515137
1766401362664243500,2.528243408203125,-0.9048153758049011,-3.6448283195495605,-9.059080123901367
1766401362674283800,2.53828369140625,-0.9217588901519775,-3.62546968460083,-9.065136909484863
1766401362684293400,2.54829345703125,-0.9526976346969604,-3.586254119873047,-9.077528953552246
1766401362694364200,2.5583642578125,-0.9735539555549622,-3.5670042037963867,-9.082900047302246
1766401362704343600,2.568343505859375,-0.9949077367782593,-3.5409038066864014,-9.090795516967773
1766401362714353200,2.578353271484375,-1.0151666402816772,-3.5137839317321777,-9.099074363708496
1766401362754392300,2.618392333984375,-1.1038397550582886,-3.3517956733703613,-9.149723052978516
1766401362764402200,2.628402099609375,-1.1273568868637085,-3.3065357208251953,-9.163312911987305
1766401362774411800,2.638411865234375,-1.1414426565170288,-3.2833521366119385,-9.169902801513672
1766401362784421600,2.648421630859375,-1.1812573671340942,-3.2142491340637207,-9.189321517944336
1766401362794431500,2.658431396484375,-1.2103461027145386,-3.1671571731567383,-9.201878547668457
1766401362804441000,2.668441162109375,-1.2254624366760254,-3.1433427333831787,-9.208040237426758
1766401362814451000,2.678450927734375,-1.270820140838623,-3.0727272033691406,-9.225712776184082
1766401362844510700,2.7085107421875,-1.3508079051971436,-2.9615886211395264,-9.25066089630127
1766401362874479000,2.73847900390625,-1.4674737453460693,-2.843118667602539,-9.270039558410645
1766401362884519400,2.74851953125,-1.4837801456451416,-2.8298184871673584,-9.27151107788086
1766401362894529000,2.758529052734375,-1.5168185234069824,-2.8060739040374756,-9.273382186889648
1766401362904539000,2.768538818359375,-1.5657728910446167,-2.7751224040985107,-9.27455997467041
1766401362914609700,2.778609619140625,-1.5799585580825806,-2.7656235694885254,-9.274991035461426
1766401362924619500,2.78861962890625,-1.6090794801712036,-2.74676513671875,-9.275588035583496
1766401362944639000,2.808638916015625,-1.6643880605697632,-2.7088358402252197,-9.276983261108398
1766401362954648600,2.818648681640625,-1.6907254457473755,-2.688486337661743,-9.278139114379883
1766401362964658400,2.828658447265625,-1.7296277284622192,-2.654235363006592,-9.280830383300781
1766401362974668300,2.838668212890625,-1.7406775951385498,-2.6432478427886963,-9.281901359558105
1766401362994718200,2.85871826171875,-1.785567045211792,-2.5890839099884033,-9.288637161254883
1766401363004728000,2.86872802734375,-1.8055408000946045,-2.5590081214904785,-9.293109893798828
1766401363014738000,2.878738037109375,-1.8235329389572144,-2.528372287750244,-9.297982215881348
1766401363024717000,2.888717041015625,-1.8491286039352417,-2.4846956729888916,-9.30469799041748
1766401363044736500,2.908736572265625,-1.8750252723693848,-2.4376285076141357,-9.311962127685547
1766401363054746400,2.918746337890625,-1.885419249534607,-2.4194507598876953,-9.314603805541992
1766401363064756200,2.928756103515625,-1.8948978185653687,-2.40293025970459,-9.31695556640625
1766401363074796300,2.93879638671875,-1.8982845544815063,-2.39658260345459,-9.317901611328125
1766401363084836600,2.948836669921875,-1.909666895866394,-2.3781816959381104,-9.320290565490723
1766401363094846500,2.958846435546875,-1.9107775688171387,-2.37493634223938,-9.320891380310059
1766401363104856300,2.968856201171875,-1.9167916774749756,-2.366990089416504,-9.321676254272461
1766401363114866000,2.978865966796875,-1.9167238473892212,-2.365994453430176,-9.321945190429688
1766401363124875800,2.988875732421875,-1.9142688512802124,-2.367168664932251,-9.322150230407715
1766401363144864800,3.00886474609375,-1.906629204750061,-2.37685489654541,-9.32125186920166
1766401363174894000,3.03889404296875,-1.889506220817566,-2.398874282836914,-9.319098472595215
1766401363184904000,3.048904052734375,-1.8773276805877686,-2.4154157638549805,-9.31728458404541
1766401363194913500,3.05891357421875,-1.8659721612930298,-2.4266631603240967,-9.316644668579102
1766401363204923400,3.06892333984375,-1.8535809516906738,-2.436858892440796,-9.31645679473877
1766401363214933000,3.07893310546875,-1.8399001359939575,-2.4459917545318604,-9.316773414611816
1766401363224912400,3.088912353515625,-1.8256547451019287,-2.453763008117676,-9.317530632019043
1766401363234952700,3.09895263671875,-1.8169103860855103,-2.457984447479248,-9.318130493164062
1766401363255002600,3.119002685546875,-1.7853449583053589,-2.4711151123046875,-9.320757865905762
1766401363264982000,3.12898193359375,-1.7673224210739136,-2.475524425506592,-9.32302188873291
1766401363274991600,3.13899169921875,-1.7481670379638672,-2.479369640350342,-9.325613021850586
1766401363285032000,3.149031982421875,-1.7280244827270508,-2.483184814453125,-9.328351020812988
1766401363295041800,3.159041748046875,-1.6980851888656616,-2.4887688159942627,-9.332359313964844
1766401363305021000,3.16902099609375,-1.6871312856674194,-2.4922938346862793,-9.333405494689941
1766401363315030800,3.17903076171875,-1.6657524108886719,-2.5005154609680176,-9.33504581451416
1766401363325071000,3.189071044921875,-1.6452648639678955,-2.513784170150757,-9.33511734008789
1766401363335080700,3.199080810546875,-1.6158435344696045,-2.5362250804901123,-9.334184646606445
1766401363345090600,3.209090576171875,-1.6095119714736938,-2.5553438663482666,-9.330062866210938
1766401363365110000,3.229110107421875,-1.568604826927185,-2.594980001449585,-9.326089859008789
1766401363385129700,3.249129638671875,-1.527119517326355,-2.6394197940826416,-9.320502281188965
1766401363395200500,3.259200439453125,-1.5099107027053833,-2.6647469997406006,-9.316097259521484
1766401363405210000,3.269210205078125,-1.4928940534591675,-2.6893749237060547,-9.311762809753418
1766401363415281000,3.279281005859375,-1.476155161857605,-2.7147951126098633,-9.30705451965332
1766401363425290800,3.289290771484375,-1.4618606567382812,-2.741649627685547,-9.301438331604004
1766401363435331000,3.2993310546875,-1.4507406949996948,-2.7678866386413574,-9.295403480529785
1766401363445371400,3.309371337890625,-1.4452999830245972,-2.799947500228882,-9.28664779663086
1766401363455381000,3.319381103515625,-1.4367700815200806,-2.8302929401397705,-9.278767585754395
1766401363485410300,3.349410400390625,-1.4020932912826538,-2.932030200958252,-9.252447128295898
1766401363495420200,3.359420166015625,-1.399537205696106,-2.947387933731079,-9.24795150756836
1766401363505430000,3.369429931640625,-1.3902391195297241,-2.975026845932007,-9.240500450134277
1766401363515439600,3.379439697265625,-1.3760995864868164,-3.0154573917388916,-9.229503631591797
1766401363525449500,3.389449462890625,-1.3745465278625488,-3.031022548675537,-9.224637031555176
1766401363535459300,3.399459228515625,-1.3643057346343994,-3.070974588394165,-9.212935447692871
1766401363545438500,3.4094384765625,-1.3633891344070435,-3.0854578018188477,-9.208230972290039
1766401363555448300,3.4194482421875,-1.3589000701904297,-3.1114144325256348,-9.200157165527344
1766401363565488600,3.429488525390625,-1.356889247894287,-3.1373417377471924,-9.191645622253418
1766401363585508000,3.449508056640625,-1.356999158859253,-3.189263105392456,-9.17374324798584
1766401363595518000,3.45951806640625,-1.358977198600769,-3.2153830528259277,-9.164326667785645
1766401363605527600,3.469527587890625,-1.3632798194885254,-3.2550268173217773,-9.149681091308594
1766401363615568000,3.47956787109375,-1.36514151096344,-3.271177053451538,-9.143641471862793
1766401363625577700,3.48957763671875,-1.3684054613113403,-3.3010094165802,-9.132426261901855
1766401363635587300,3.49958740234375,-1.3712059259414673,-3.3329412937164307,-9.120399475097656
1766401363645566700,3.509566650390625,-1.3746393918991089,-3.384241819381714,-9.100969314575195
1766401363655607000,3.51960693359375,-1.3757442235946655,-3.42350697517395,-9.086106300354004
1766401363665616600,3.52961669921875,-1.3749626874923706,-3.444474697113037,-9.078296661376953
1766401363705686300,3.569686279296875,-1.3657985925674438,-3.63783860206604,-9.003950119018555
1766401363715757000,3.579757080078125,-1.3582775592803955,-3.7219431400299072,-8.97065258026123
1766401363725767000,3.589766845703125,-1.3483335971832275,-3.778754711151123,-8.94837474822998
1766401363735776500,3.599776611328125,-1.3384026288986206,-3.803374767303467,-8.93942928314209
1766401363755796200,3.619796142578125,-1.3057745695114136,-3.9147167205810547,-8.896086692810059
1766401363805906000,3.669906005859375,-1.1935440301895142,-4.164155006408691,-8.798049926757812
1766401363825925600,3.689925537109375,-1.160670518875122,-4.213940620422363,-8.778721809387207
1766401363835935200,3.699935302734375,-1.1396079063415527,-4.243622779846191,-8.76717758178711
1766401363845975600,3.7099755859375,-1.1172668933868408,-4.2679123878479,-8.758255958557129
1766401363855985400,3.7199853515625,-1.083824634552002,-4.295118808746338,-8.749153137207031
1766401363865964500,3.729964599609375,-1.07094407081604,-4.300256729125977,-8.748214721679688
1766401363876004900,3.7400048828125,-1.0473171472549438,-4.309496879577637,-8.746527671813965
1766401363896055000,3.760054931640625,-0.9982985258102417,-4.317809104919434,-8.748163223266602
1766401363906034200,3.7700341796875,-0.9636059999465942,-4.320568084716797,-8.750689506530762
1766401363916044000,3.7800439453125,-0.9509411454200745,-4.3195414543151855,-8.752581596374512
1766401363926053600,3.7900537109375,-0.9295324683189392,-4.319677829742432,-8.754813194274902
1766401363936094000,3.800093994140625,-0.9086878299713135,-4.31986665725708,-8.756908416748047
1766401363946073300,3.8100732421875,-0.8886287808418274,-4.320639133453369,-8.758586883544922
1766401363956113400,3.820113525390625,-0.8684428930282593,-4.322165489196777,-8.759858131408691
1766401363966123300,3.830123291015625,-0.84794020652771,-4.324558258056641,-8.760684967041016
1766401363976133000,3.840133056640625,-0.8206248879432678,-4.333382606506348,-8.75892448425293
1766401363986142700,3.850142822265625,-0.7991729378700256,-4.339845180511475,-8.757709503173828
1766401364016202800,3.88020263671875,-0.7313105463981628,-4.358779430389404,-8.75423526763916
1766401364036191700,3.900191650390625,-0.6731336712837219,-4.388600826263428,-8.743995666503906
1766401364046201300,3.910201416015625,-0.6589484810829163,-4.39351224899292,-8.7426118850708
1766401364056211200,3.920211181640625,-0.6339473128318787,-4.405669212341309,-8.738340377807617
1766401364066221000,3.930220947265625,-0.5965174436569214,-4.424424648284912,-8.731494903564453
1766401364076261000,3.94026123046875,-0.5685819983482361,-4.435102462768555,-8.72794246673584
1766401364086301400,3.950301513671875,-0.5525473952293396,-4.439274311065674,-8.726852416992188
1766401364116330800,3.980330810546875,-0.4580973982810974,-4.454367637634277,-8.724628448486328
1766401364126340600,3.990340576171875,-0.4225374460220337,-4.453976154327393,-8.726624488830566
1766401364136350500,4.0003505859375,-0.384247750043869,-4.451623439788818,-8.729593276977539
1766401364146360000,4.010360107421875,-0.3441630005836487,-4.447343826293945,-8.733448028564453
1766401364156370000,4.020369873046875,-0.3010936677455902,-4.4417290687561035,-8.737893104553223
1766401364166379500,4.030379638671875,-0.25451719760894775,-4.434937000274658,-8.742822647094727
1766401364176419800,4.040419921875,-0.18420739471912384,-4.4234700202941895,-8.75039291381836
1766401364186399200,4.050399169921875,-0.13240472972393036,-4.415727615356445,-8.755240440368652
1766401364196408800,4.060408935546875,-0.07985270768404007,-4.407869338989258,-8.759835243225098
1766401364216428500,4.080428466796875,0.0018295535119250417,-4.397353172302246,-8.765483856201172
1766401364256437000,4.12043701171875,0.19230595231056213,-4.372030735015869,-8.776034355163574
1766401364266446800,4.13044677734375,0.2607558071613312,-4.365460395812988,-8.77753734588623
1766401364276487200,4.140487060546875,0.3039858639240265,-4.362487316131592,-8.777626037597656
1766401364286496800,4.150496826171875,0.3221808671951294,-4.362557888031006,-8.77694034576416
1766401364296537000,4.160537109375,0.37940147519111633,-4.36444616317749,-8.77371597290039
1766401364326566400,4.19056640625,0.46230947971343994,-4.39481258392334,-8.754557609558105
1766401364336576300,4.200576171875,0.48679861426353455,-4.411685943603516,-8.744738578796387
1766401364346585900,4.2105859375,0.5101140141487122,-4.430956840515137,-8.733659744262695
1766401364356595700,4.220595703125,0.5156669616699219,-4.440071105957031,-8.728704452514648
1766401364366605600,4.23060546875,0.5528296828269958,-4.4764628410339355,-8.707817077636719
1766401364386625000,4.250625,0.5577929019927979,-4.501791000366211,-8.694430351257324
1766401364396635000,4.260634765625,0.5581886172294617,-4.517354965209961,-8.68632984161377
1766401364426664200,4.290664306640625,0.5937573313713074,-4.594170093536377,-8.643577575683594
1766401364436673800,4.300673828125,0.6040542721748352,-4.619250297546387,-8.629487037658691
1766401364446683600,4.31068359375,0.6122673749923706,-4.641754627227783,-8.61682415008545
1766401364456693200,4.320693359375,0.6184797286987305,-4.6595659255981445,-8.606761932373047
1766401364476743400,4.340743408203125,0.628936231136322,-4.684126377105713,-8.592657089233398
1766401364486783700,4.35078369140625,0.6297212243080139,-4.686420917510986,-8.591353416442871
1766401364496793300,4.36079345703125,0.626482367515564,-4.682250022888184,-8.59386157989502
1766401364506772700,4.370772705078125,0.6238058805465698,-4.663844585418701,-8.604056358337402
1766401364536863000,4.400863037109375,0.5944704413414001,-4.567959308624268,-8.657408714294434
1766401364546872800,4.410872802734375,0.5772165656089783,-4.494436740875244,-8.696969032287598
1766401364556913200,4.4209130859375,0.5563806891441345,-4.4499430656433105,-8.721171379089355
1766401364566922800,4.4309228515625,0.539019763469696,-4.388465404510498,-8.753355979919434
1766401364576932600,4.4409326171875,0.5215688943862915,-4.326154708862305,-8.785369873046875
1766401364586942500,4.4509423828125,0.5028665065765381,-4.233637809753418,-8.831412315368652
1766401364596952000,4.4609521484375,0.4947340786457062,-4.199393272399902,-8.848203659057617
1766401364606992400,4.470992431640625,0.47763681411743164,-4.098785400390625,-8.896193504333496
1766401364617002200,4.481002197265625,0.4705202579498291,-4.063193321228027,-8.912881851196289
1766401364637052200,4.50105224609375,0.4456383287906647,-3.918897867202759,-8.978532791137695
1766401364647062000,4.51106201171875,0.4334042966365814,-3.84382700920105,-9.011523246765137
1766401364657071900,4.52107177734375,0.4128986597061157,-3.730478286743164,-9.059990882873535
1766401364667081500,4.53108154296875,0.39801907539367676,-3.6555233001708984,-9.091158866882324
1766401364677121800,4.541121826171875,0.3901461660861969,-3.618403434753418,-9.106334686279297
1766401364687131600,4.551131591796875,0.37403908371925354,-3.5469841957092285,-9.135065078735352
1766401364697172000,4.561171875,0.35738253593444824,-3.479811429977417,-9.161527633666992
1766401364707181600,4.571181640625,0.3334387540817261,-3.3879029750823975,-9.19681167602539
1766401364717222000,4.581221923828125,0.3258662819862366,-3.3595173358917236,-9.207489967346191
1766401364747220700,4.611220703125,0.2944464683532715,-3.2138686180114746,-9.26038646697998
1766401364757230600,4.621230712890625,0.28822073340415955,-3.156393051147461,-9.280327796936035
1766401364767270700,4.631270751953125,0.2888748049736023,-3.1404473781585693,-9.285717010498047
1766401364777280500,4.641280517578125,0.2934334874153137,-3.097565174102783,-9.299967765808105
1766401364787290400,4.651290283203125,0.3038572669029236,-3.0774118900299072,-9.306320190429688
1766401364797300000,4.661300048828125,0.32529228925704956,-3.0812575817108154,-9.304322242736816
1766401364807340300,4.67134033203125,0.34948739409446716,-3.0751821994781494,-9.30545711517334
1766401364817380600,4.681380615234375,0.35677406191825867,-3.0786640644073486,-9.304027557373047
1766401364827390500,4.691390380859375,0.36684417724609375,-3.073253631591797,-9.305426597595215
1766401364837400000,4.701400146484375,0.37375032901763916,-3.0871822834014893,-9.300538063049316
1766401364887479600,4.7514794921875,0.40948039293289185,-3.4932565689086914,-9.154228210449219
1766401364897489200,4.7614892578125,0.4308435022830963,-3.668389320373535,-9.08447551727295
1766401364907499000,4.7714990234375,0.5008552074432373,-3.9816763401031494,-8.947949409484863
1766401364917539300,4.781539306640625,0.5718611478805542,-4.223398208618164,-8.83211612701416
1766401364927549200,4.791549072265625,0.6135720610618591,-4.351428985595703,-8.766925811767578
1766401364937589200,4.80158935546875,0.755995512008667,-4.7738871574401855,-8.532812118530273
1766401364957639400,4.821639404296875,0.9024702310562134,-5.221921443939209,-8.251513481140137
1766401364967649300,4.831649169921875,0.9945447444915771,-5.5254292488098145,-8.040579795837402
1766401364977659000,4.841658935546875,1.1250889301300049,-5.985620498657227,-7.686151027679443
1766401364987668700,4.851668701171875,1.1720020771026611,-6.141469955444336,-7.555076599121094
1766401364997678600,4.8616787109375,1.3081728219985962,-6.591036319732666,-7.142640590667725
1766401365007718700,4.87171875,1.3582950830459595,-6.744512557983398,-6.988343715667725
1766401365017728500,4.881728515625,1.4645828008651733,-7.043654918670654,-6.6642584800720215
1766401365027738400,4.89173828125,1.6139070987701416,-7.339072227478027,-6.301088333129883
1766401365037778700,4.90177880859375,1.7670365571975708,-7.6176910400390625,-5.917665004730225
1766401365067838500,4.93183837890625,2.2305378913879395,-8.359392166137695,-4.616886615753174
1766401365077848000,4.94184814453125,2.4102344512939453,-8.653369903564453,-3.934509754180908
1766401365087858000,4.95185791015625,2.476916790008545,-8.739433288574219,-3.6956140995025635
1766401365097867800,4.96186767578125,2.6007630825042725,-8.89288330078125,-3.2129478454589844
1766401365107847000,4.971846923828125,2.7266712188720703,-9.01862907409668,-2.72029185295105
1766401365117856800,4.981856689453125,2.855936050415039,-9.11548900604248,-2.21852707862854
1766401365127866400,4.991866455078125,2.9842164516448975,-9.182819366455078,-1.7148419618606567
1766401365137876200,5.001876220703125,3.1080148220062256,-9.222463607788086,-1.2069734334945679
1766401365147886000,5.011885986328125,3.2806694507598877,-9.230045318603516,-0.46245092153549194
1766401365167936000,5.03193603515625,3.509481430053711,-9.143647193908691,0.4976584315299988
1766401365177945900,5.04194580078125,3.5602922439575195,-9.108168601989746,0.7321072220802307
1766401365187955500,5.05195556640625,3.6549274921417236,-9.0223970413208,1.1866978406906128
1766401365197965300,5.06196533203125,3.7308082580566406,-8.92214584350586,1.6268916130065918
1766401365208005600,5.072005615234375,3.793707847595215,-8.80618667602539,2.056515693664551
1766401365218015500,5.082015380859375,3.8821253776550293,-8.597102165222168,2.681297779083252
1766401365228025000,5.092025146484375,3.9027516841888428,-8.52281665802002,2.881060838699341
1766401365248105700,5.112105712890625,4.00424337387085,-8.170389175415039,3.6580278873443604
1766401365288145000,5.152144775390625,4.221024990081787,-7.258567810058594,5.06621789932251
1766401365298185000,5.16218505859375,4.245849132537842,-7.1528449058532715,5.194223880767822
1766401365308194800,5.17219482421875,4.325724124908447,-6.878235340118408,5.4907546043396
1766401365318204700,5.18220458984375,4.409953594207764,-6.585958480834961,5.774760723114014
1766401365328214300,5.19221435546875,4.496184825897217,-6.283586502075195,6.03914213180542
1766401365338224000,5.20222412109375,4.581181526184082,-5.9792585372924805,6.279460906982422
1766401365348234000,5.21223388671875,4.6643595695495605,-5.676482677459717,6.49551248550415
1766401365358243600,5.22224365234375,4.748195648193359,-5.376481533050537,6.687188148498535
1766401365388242400,5.252242431640625,5.020489692687988,-4.482876300811768,7.1322431564331055
1766401365398252300,5.262252197265625,5.1374616622924805,-4.071544170379639,7.293791770935059
1766401365408292600,5.272292724609375,5.172807216644287,-3.9382777214050293,7.341827869415283
1766401365418302200,5.28230224609375,5.232473373413086,-3.69644832611084,7.424815654754639
1766401365428312000,5.29231201171875,5.305230140686035,-3.373520851135254,7.526238441467285
1766401365438352400,5.302352294921875,5.346421718597412,-3.18241286277771,7.580132961273193
1766401365448362000,5.312362060546875,5.365731239318848,-3.092364549636841,7.603724002838135
1766401365458402300,5.32240234375,5.419310092926025,-2.856985569000244,7.657617568969727
1766401365488462000,5.352462158203125,5.505231857299805,-2.5209829807281494,7.714107990264893
1766401365498441500,5.36244140625,5.548497200012207,-2.361881971359253,7.7334394454956055
1766401365508451000,5.372451171875,5.562719345092773,-2.3117032051086426,7.738382339477539
1766401365518461000,5.3824609375,5.603336811065674,-2.1810121536254883,7.747012615203857
1766401365528531700,5.39253173828125,5.6160783767700195,-2.140176296234131,7.749174118041992
1766401365538541600,5.40254150390625,5.64666748046875,-2.0534729957580566,7.750406265258789
1766401365548459800,5.412459716796875,5.656249046325684,-2.0290451049804688,7.749852180480957
1766401365558500000,5.4225,5.679225921630859,-1.9886751174926758,7.743511199951172
1766401365568509700,5.432509765625,5.703871726989746,-1.9552792310714722,7.733893871307373
1766401365578519600,5.44251953125,5.734619617462158,-1.9292293787002563,7.717682361602783
1766401365588529400,5.452529296875,5.7399420738220215,-1.934685468673706,7.712357521057129
1766401365598539000,5.4625390625,5.752301216125488,-1.9332278966903687,7.70350980758667
1766401365608548900,5.472548828125,5.751004695892334,-1.9354300498962402,7.703925132751465
1766401365618558700,5.482558837890625,5.752970218658447,-1.935915231704712,7.702333927154541
1766401365628568300,5.492568359375,5.754289627075195,-1.9397433996200562,7.700385570526123
1766401365638578200,5.502578125,5.7569661140441895,-1.9451439380645752,7.697022438049316
1766401365648587800,5.512587890625,5.759408473968506,-1.9510998725891113,7.693686008453369
1766401365658628000,5.522628173828125,5.7587666511535645,-1.9546524286270142,7.693266868591309
1766401365668607500,5.532607421875,5.743503570556641,-1.9523173570632935,7.705258846282959
1766401365688657400,5.552657470703125,5.715159893035889,-1.9721773862838745,7.721260070800781
1766401365698697700,5.56269775390625,5.7072882652282715,-2.0010175704956055,7.719662189483643
1766401365708707600,5.57270751953125,5.7020182609558105,-2.037543296813965,7.714000225067139
1766401365718717200,5.58271728515625,5.7030158042907715,-2.073817491531372,7.703588962554932
1766401365728757500,5.592757568359375,5.70958137512207,-2.099546432495117,7.691747665405273
1766401365738767400,5.602767333984375,5.731268405914307,-2.102796792984009,7.67471170425415
1766401365748746500,5.61274658203125,5.735299587249756,-2.099045753479004,7.672726631164551
1766401365758756400,5.62275634765625,5.733525276184082,-2.1084890365600586,7.671463966369629
1766401365768766200,5.63276611328125,5.718194007873535,-2.142164707183838,7.673575401306152
1766401365798764800,5.662764892578125,5.701500415802002,-2.230299949645996,7.660877704620361
1766401365808805000,5.67280517578125,5.709875106811523,-2.2576520442962646,7.6466145515441895
1766401365818784500,5.682784423828125,5.72260046005249,-2.306840658187866,7.6223835945129395
1766401365828794000,5.692794189453125,5.7252278327941895,-2.325592041015625,7.614706993103027
1766401365838834400,5.70283447265625,5.743636131286621,-2.3834731578826904,7.582880973815918
1766401365848844300,5.71284423828125,5.7418012619018555,-2.4186129570007324,7.5731377601623535
1766401365858854000,5.72285400390625,5.767280578613281,-2.4470136165618896,7.544600486755371
1766401365868863700,5.73286376953125,5.843999862670898,-2.439631223678589,7.487740516662598
1766401365878873600,5.74287353515625,5.903557300567627,-2.434476613998413,7.442561149597168
1766401365908933400,5.772933349609375,6.054208755493164,-2.5313735008239746,7.287598609924316
1766401365918943200,5.782943115234375,6.075257778167725,-2.558584213256836,7.260528087615967
1766401365928952800,5.792952880859375,6.116132736206055,-2.613483428955078,7.206456661224365
1766401365938962700,5.802962646484375,6.167586326599121,-2.712172269821167,7.12568473815918
1766401365948972500,5.81297265625,6.193909168243408,-2.744457244873047,7.090404987335205
1766401365958982100,5.822982177734375,6.241384506225586,-2.8453941345214844,7.008512496948242
1766401365968992000,5.832991943359375,6.256256103515625,-2.884016990661621,6.979405403137207
1766401365979001600,5.843001708984375,6.286552429199219,-3.024031639099121,6.892379283905029
1766401365999021300,5.863021240234375,6.345031261444092,-3.2425668239593506,6.73770809173584
1766401366009031000,5.873031005859375,6.389805793762207,-3.3587868213653564,6.637719631195068
1766401366019040800,5.883040771484375,6.445443630218506,-3.4766345024108887,6.522243976593018
1766401366029050600,5.893050537109375,6.48040771484375,-3.537909507751465,6.454293251037598
1766401366039060200,5.903060302734375,6.5924906730651855,-3.695319175720215,6.249326229095459
1766401366049070000,5.913070068359375,6.686212062835693,-3.7931036949157715,6.089115619659424
1766401366059080000,5.923079833984375,6.789674758911133,-3.8872296810150146,5.9127116203308105
1766401366069089500,5.933089599609375,6.898567199707031,-3.9809296131134033,5.721219539642334
1766401366079129900,5.9431298828125,6.958313941955566,-4.030091285705566,5.613432884216309
1766401366129178600,5.9931787109375,7.584436893463135,-4.664724826812744,4.109384536743164
1766401366139188500,6.0031884765625,7.716207027435303,-4.721803665161133,3.7861733436584473
1766401366149198300,6.0131982421875,7.852242946624756,-4.748631954193115,3.458780288696289
1766401366159208000,6.0232080078125,7.990029335021973,-4.752669334411621,3.1212096214294434
1766401366169248300,6.033248291015625,8.126595497131348,-4.737674713134766,2.7718708515167236
1766401366179258000,6.043258056640625,8.193734169006348,-4.728873252868652,2.582801103591919
1766401366189237200,6.0532373046875,8.389571189880371,-4.647687911987305,2.0456011295318604
1766401366199247000,6.0632470703125,8.454021453857422,-4.619104862213135,1.834059238433838
1766401366239316700,6.103316650390625,8.8356351852417,-4.2388739585876465,0.36592531204223633
1766401366249387500,6.113387451171875,8.883866310119629,-4.152925968170166,0.022630933672189713
1766401366259397000,6.123397216796875,8.915769577026367,-4.072481155395508,-0.3071354925632477
1766401366269407000,6.133406982421875,8.937677383422852,-3.9875125885009766,-0.6229327321052551
1766401366279416800,6.143416748046875,8.954029083251953,-3.891394853591919,-0.9234685897827148
1766401366289426400,6.153426513671875,8.96118450164795,-3.7923474311828613,-1.2188760042190552
1766401366309476600,6.1734765625,8.977670669555664,-3.542950391769409,-1.73761785030365
1766401366319486500,6.183486572265625,8.970447540283203,-3.4342219829559326,-1.976760745048523
1766401366329557200,6.19355712890625,8.950681686401367,-3.3473892211914062,-2.202423334121704
1766401366339566800,6.20356689453125,8.912842750549316,-3.2306835651397705,-2.5088448524475098
1766401366349576700,6.21357666015625,8.897642135620117,-3.195289373397827,-2.6062374114990234
1766401366359617000,6.223616943359375,8.871012687683105,-3.114537000656128,-2.7884020805358887
1766401366369626600,6.233626708984375,8.841315269470215,-3.046534776687622,-2.9529924392700195
1766401366379667000,6.2436669921875,8.818361282348633,-2.9650611877441406,-3.1008543968200684
1766401366389615600,6.25361572265625,8.785346984863281,-2.9160656929016113,-3.2379965782165527
1766401366399656000,6.263656005859375,8.757126808166504,-2.846092939376831,-3.3738527297973633
1766401366429746400,6.293746337890625,8.652119636535645,-2.736128330230713,-3.7181735038757324
1766401366449766000,6.313765869140625,8.562704086303711,-2.720905303955078,-3.9302873611450195
1766401366459775700,6.323775634765625,8.541873931884766,-2.731208562850952,-3.9682838916778564
1766401366469785300,6.333785400390625,8.503303527832031,-2.7464420795440674,-4.03995943069458
1766401366479795200,6.343795166015625,8.46425724029541,-2.7697131633758545,-4.10553503036499
1766401366489805000,6.35380517578125,8.42874813079834,-2.7862942218780518,-4.166912078857422
1766401366499814700,6.363814697265625,8.386107444763184,-2.7752790451049805,-4.259274482727051
1766401366509824500,6.373824462890625,8.35879898071289,-2.778332233428955,-4.310654163360596
1766401366519864800,6.38386474609375,8.333867073059082,-2.7833781242370605,-4.355440616607666
1766401366529874400,6.39387451171875,8.325982093811035,-2.7948949337005615,-4.363137245178223
1766401366539884300,6.40388427734375,8.296656608581543,-2.804189443588257,-4.412752628326416
1766401366549894100,6.41389404296875,8.25930118560791,-2.8212387561798096,-4.471571445465088
1766401366559873300,6.423873291015625,8.212013244628906,-2.851844549179077,-4.538745403289795
1766401366569913600,6.43391357421875,8.13137149810791,-2.9052329063415527,-4.648742198944092
1766401366579923500,6.44392333984375,8.099273681640625,-2.9331767559051514,-4.687070846557617
1766401366589902600,6.453902587890625,8.040557861328125,-2.9637300968170166,-4.768241882324219
1766401366599943000,6.46394287109375,7.980423927307129,-2.9868717193603516,-4.85405158996582
1766401366609952800,6.473952880859375,7.917953968048096,-3.0108625888824463,-4.940759181976318
1766401366630002700,6.494002685546875,7.749641418457031,-3.0782737731933594,-5.16117000579834
1766401366649991700,6.51399169921875,7.600562572479248,-3.136439323425293,-5.344583988189697
1766401366660001500,6.52400146484375,7.558824062347412,-3.153080701828003,-5.393760681152344
1766401366669980700,6.533980712890625,7.475287914276123,-3.18552565574646,-5.49025297164917
1766401366679990500,6.543990478515625,7.388520240783691,-3.22287917137146,-5.585086822509766
1766401366690000100,6.554000244140625,7.301361083984375,-3.2584238052368164,-5.678308963775635
1766401366700010000,6.564010009765625,7.211982727050781,-3.2902772426605225,-5.773367404937744
1766401366709958700,6.573958740234375,7.118222236633301,-3.3243794441223145,-5.8693952560424805
1766401366730008800,6.5940087890625,6.930178642272949,-3.3795268535614014,-6.0598530769348145
1766401366760038100,6.6240380859375,6.619569778442383,-3.4523754119873047,-6.358679294586182
1766401366770047700,6.6340478515625,6.463728427886963,-3.5188562870025635,-6.481377601623535
1766401366780088000,6.644088134765625,6.280508518218994,-3.5626883506774902,-6.6357245445251465
1766401366790098000,6.654097900390625,6.181791305541992,-3.5982625484466553,-6.708826065063477
1766401366800107800,6.664107666015625,5.999656677246094,-3.6036581993103027,-6.869364261627197
1766401366810178600,6.674178466796875,5.884220600128174,-3.589390754699707,-6.975860118865967
1766401366820188200,6.684188232421875,5.817317008972168,-3.58532452583313,-7.033822059631348
1766401366840177200,6.70417724609375,5.4605631828308105,-3.554985523223877,-7.3290324211120605
1766401366850217500,6.714217529296875,5.312215805053711,-3.5300817489624023,-7.449113368988037
1766401366860227300,6.724227294921875,5.225295066833496,-3.52254581451416,-7.513876914978027
1766401366870206500,6.73420654296875,5.042823791503906,-3.4284751415252686,-7.680226802825928
1766401366880246800,6.744246826171875,4.91476583480835,-3.359731912612915,-7.792797088623047
1766401366890287000,6.754287109375,4.791879653930664,-3.2810757160186768,-7.902076721191406
1766401366900297000,6.764296875,4.672168731689453,-3.1953389644622803,-8.008185386657715
1766401366910276000,6.774276123046875,4.555966854095459,-3.1036393642425537,-8.110547065734863
1766401366920347000,6.784346923828125,4.49628210067749,-3.059445858001709,-8.160492897033691
1766401366930356700,6.794356689453125,4.381618022918701,-2.966137170791626,-8.256746292114258
1766401366960386000,6.824385986328125,3.9909980297088623,-2.638071298599243,-8.560543060302734
1766401366970395600,6.834395751953125,3.878917932510376,-2.544973373413086,-8.639878273010254
1766401366980405500,6.844405517578125,3.7670087814331055,-2.45739483833313,-8.714427947998047
1766401366990415400,6.854415283203125,3.652690887451172,-2.3733572959899902,-8.786092758178711
1766401367000425000,6.864425048828125,3.5377156734466553,-2.2908337116241455,-8.854775428771973
1766401367010434800,6.874434814453125,3.424278736114502,-2.208315372467041,-8.92009162902832
1766401367020505600,6.884505615234375,3.366011381149292,-2.1749632358551025,-8.950413703918457
1766401367030485000,6.894485107421875,3.2542645931243896,-2.0915780067443848,-9.011407852172852
1766401367040525000,6.904525146484375,3.1438002586364746,-2.0020670890808105,-9.070757865905762
1766401367080533800,6.94453369140625,2.6792490482330322,-1.6569775342941284,-9.286895751953125
1766401367090543400,6.95454345703125,2.568239212036133,-1.6475830078125,-9.31987190246582
1766401367100614100,6.9646142578125,2.515697479248047,-1.599900484085083,-9.342483520507812
1766401367110593500,6.974593505859375,2.371858596801758,-1.529060959815979,-9.391840934753418
1766401367130643500,6.9946435546875,2.3047289848327637,-1.5930694341659546,-9.397911071777344
1766401367140653300,7.0046533203125,2.325249195098877,-1.6186792850494385,-9.388476371765137
1766401367150663200,7.0146630859375,2.3767638206481934,-1.7085109949111938,-9.359613418579102
1766401367190732800,7.05473291015625,2.4618821144104004,-1.8473265171051025,-9.311119079589844
1766401367200742400,7.064742431640625,2.459822177886963,-1.8854864835739136,-9.304011344909668
1766401367210752300,7.074752197265625,2.4678473472595215,-1.9218014478683472,-9.294450759887695
1766401367220761900,7.084761962890625,2.5176658630371094,-1.9481918811798096,-9.275575637817383
1766401367230771700,7.094771728515625,2.5750510692596436,-1.9610785245895386,-9.257087707519531
1766401367240812000,7.10481201171875,2.6087639331817627,-1.9803005456924438,-9.243546485900879
1766401367250852400,7.114852294921875,2.6390419006347656,-1.97115957736969,-9.23690414428711
1766401367260862000,7.124862060546875,2.655608654022217,-1.967677354812622,-9.232895851135254
1766401367290922000,7.154921875,2.669222354888916,-1.9445116519927979,-9.233879089355469
1766401367300931600,7.164931640625,2.686065435409546,-1.9250177145004272,-9.23307991027832
1766401367310911000,7.174910888671875,2.7264740467071533,-1.8915412425994873,-9.22815227508545
1766401367320951300,7.184951416015625,2.747309923171997,-1.8763298988342285,-9.225078582763672
1766401367330961000,7.1949609375,2.7401208877563477,-1.870278239250183,-9.228445053100586
1766401367340970800,7.204970703125,2.7475287914276123,-1.8806195259094238,-9.224138259887695
1766401367350950000,7.214949951171875,2.7303693294525146,-1.9096211194992065,-9.223275184631348
1766401367360990200,7.224990234375,2.6717777252197266,-1.9606941938400269,-9.229716300964355
1766401367401090300,7.26509033203125,2.4835832118988037,-2.0534112453460693,-9.262057304382324
1766401367411130600,7.275130615234375,2.4429335594177246,-2.033479928970337,-9.277253150939941
1766401367431150000,7.295150146484375,2.4810476303100586,-1.9968260526657104,-9.275099754333496
1766401367441190400,7.3051904296875,2.427562952041626,-2.0130789279937744,-9.285735130310059
1766401367451200300,7.3152001953125,2.3838307857513428,-2.041550397872925,-9.290844917297363
1766401367461240600,7.325240478515625,2.339460849761963,-2.0772550106048584,-9.294209480285645
1766401367471250200,7.335250244140625,2.3021442890167236,-2.113654851913452,-9.29532241821289
1766401367491270000,7.355269775390625,2.2645225524902344,-2.157867670059204,-9.294405937194824
1766401367501279500,7.365279541015625,2.2493953704833984,-2.182593822479248,-9.292304039001465
1766401367511289300,7.375289306640625,2.248124361038208,-2.196409225463867,-9.28935432434082
1766401367521299200,7.38529931640625,2.2178127765655518,-2.228017807006836,-9.289113998413086
1766401367531339300,7.39533935546875,2.1107866764068604,-2.3192920684814453,-9.291707992553711
1766401367541349000,7.40534912109375,2.0316762924194336,-2.3652851581573486,-9.297747611999512
1766401367551359000,7.41535888671875,1.9965314865112305,-2.3837780952453613,-9.300638198852539
1766401367561399300,7.4253994140625,1.9397493600845337,-2.4020943641662598,-9.307938575744629
1766401367571409000,7.435408935546875,1.8551392555236816,-2.4019997119903564,-9.3251953125
1766401367591428400,7.455428466796875,1.717210292816162,-2.3748457431793213,-9.358508110046387
1766401367611509000,7.475509033203125,1.5776430368423462,-2.355835199356079,-9.387836456298828
1766401367621549300,7.48554931640625,1.5000756978988647,-2.351964235305786,-9.401512145996094
1766401367631498000,7.495498046875,1.402674913406372,-2.441927909851074,-9.393609046936035
1766401367641538300,7.505538330078125,1.277849793434143,-2.5180373191833496,-9.391325950622559
1766401367651578600,7.51557861328125,1.183651328086853,-2.5296099185943604,-9.400557518005371
1766401367661588500,7.52558837890625,1.0758717060089111,-2.534963369369507,-9.412057876586914
1766401367671598000,7.53559814453125,0.8873947262763977,-2.5759663581848145,-9.420580863952637
1766401367681638400,7.545638427734375,0.7505196332931519,-2.601555824279785,-9.425446510314941
1766401367701688600,7.5656884765625,0.5909959673881531,-2.6566052436828613,-9.421441078186035
1766401367711698200,7.5756982421875,0.5016326308250427,-2.6829161643981934,-9.419167518615723
1766401367721738500,7.585738525390625,0.43464377522468567,-2.6849112510681152,-9.421929359436035
1766401367731748400,7.595748291015625,0.2855395972728729,-2.71189284324646,-9.419901847839355
1766401367741788700,7.60578857421875,0.18592534959316254,-2.731252908706665,-9.41679859161377
1766401367751798300,7.61579833984375,0.14020714163780212,-2.7401528358459473,-9.415003776550293
1766401367761838600,7.625838623046875,-0.0025150070432573557,-2.7717320919036865,-9.40679931640625
1766401367771848400,7.635848388671875,-0.1000220999121666,-2.7895638942718506,-9.400996208190918
1766401367791868000,7.655867919921875,-0.2687486410140991,-2.807173728942871,-9.392440795898438
1766401367801908200,7.665908203125,-0.34895631670951843,-2.811004638671875,-9.388656616210938
1766401367811918000,7.67591796875,-0.42546460032463074,-2.8131587505340576,-9.384857177734375
1766401367821927700,7.685927734375,-0.49634334444999695,-2.815682888031006,-9.380617141723633
1766401367831937500,7.6959375,-0.5173680186271667,-2.8106908798217773,-9.38097858428955
1766401367841977900,7.705977783203125,-0.6180126667022705,-2.8167319297790527,-9.373072624206543
1766401367852018200,7.71601806640625,-0.6520901918411255,-2.822458505630493,-9.369040489196777
1766401367862027800,7.72602783203125,-0.7140653133392334,-2.8349108695983887,-9.360757827758789
1766401367882108400,7.7461083984375,-0.8210496306419373,-2.857635021209717,-9.345062255859375
1766401367912198700,7.77619873046875,-0.9524543881416321,-2.903672456741333,-9.318364143371582
1766401367922208500,7.78620849609375,-0.9859445095062256,-2.9188530445098877,-9.310135841369629
1766401367932248800,7.796248779296875,-1.0146552324295044,-2.937939167022705,-9.301043510437012
1766401367942289200,7.8062890625,-1.0420082807540894,-2.957332134246826,-9.291866302490234
1766401367952298800,7.816298828125,-1.0627071857452393,-2.9736523628234863,-9.284311294555664
1766401367962308600,7.82630859375,-1.0805553197860718,-2.9976627826690674,-9.274524688720703
1766401367982389200,7.84638916015625,-1.088390588760376,-3.0170493125915527,-9.267319679260254
1766401367992429600,7.8564296875,-1.091346025466919,-3.0251429080963135,-9.264333724975586
1766401368012479500,7.8764794921875,-1.1182206869125366,-3.0388810634613037,-9.256629943847656
1766401368022489300,7.8864892578125,-1.1395267248153687,-3.0407402515411377,-9.253419876098633
1766401368032468500,7.896468505859375,-1.1479387283325195,-3.0445103645324707,-9.251140594482422
1766401368042508800,7.9065087890625,-1.1625194549560547,-3.0562174320220947,-9.245457649230957
1766401368052518700,7.9165185546875,-1.163909912109375,-3.0592963695526123,-9.244264602661133
1766401368062528300,7.9265283203125,-1.1673609018325806,-3.0706989765167236,-9.2400484085083
1766401368072568600,7.936568603515625,-1.166046142578125,-3.074894428253174,-9.238816261291504
1766401368082578400,7.946578369140625,-1.1704628467559814,-3.0889463424682617,-9.233572959899902
1766401368112607700,7.976607666015625,-1.1365429162979126,-3.10636043548584,-9.231966018676758
1766401368122617300,7.986617431640625,-1.1081534624099731,-3.120798110961914,-9.230548858642578
1766401368132688100,7.996688232421875,-1.073987603187561,-3.128647565841675,-9.23193073272705
1766401368142698000,8.006697998046874,-1.0316598415374756,-3.117558717727661,-9.24050235748291
1766401368152677400,8.016677490234375,-0.9873288869857788,-3.101956605911255,-9.250592231750488
1766401368162687000,8.02668701171875,-0.9420994520187378,-3.1130871772766113,-9.251569747924805
1766401368172727300,8.036727294921874,-0.896129310131073,-3.121704578399658,-9.2532320022583
1766401368182737200,8.046737060546874,-0.848412036895752,-3.118535041809082,-9.25879955291748
1766401368192746800,8.056746826171874,-0.7622729539871216,-3.1107189655303955,-9.268916130065918
1766401368222837200,8.086837158203124,-0.6181477904319763,-3.085207939147949,-9.288152694702148
1766401368232846800,8.096846923828124,-0.512950599193573,-3.057406187057495,-9.303739547729492
1766401368242887200,8.10688720703125,-0.46255189180374146,-3.0503365993499756,-9.308700561523438
1766401368252927500,8.116927490234374,-0.32996389269828796,-3.0236058235168457,-9.323053359985352
1766401368262967800,8.1269677734375,-0.22464682161808014,-3.010033130645752,-9.33057689666748
1766401368272977700,8.136977783203125,-0.17590834200382233,-3.0195491313934326,-9.328545570373535
1766401368283048400,8.14704833984375,-0.11472035944461823,-3.037618637084961,-9.323633193969727
1766401368293058000,8.15705810546875,-0.02651103213429451,-3.0293707847595215,-9.326981544494629
1766401368303068000,8.16706787109375,-0.019595157355070114,-3.0462489128112793,-9.321502685546875
1766401368313108200,8.177108154296874,0.04591163620352745,-3.031665802001953,-9.326160430908203
1766401368333127700,8.197127685546874,0.16290785372257233,-2.9680776596069336,-9.34528636932373
1766401368343137500,8.207137451171874,0.17806661128997803,-2.9580395221710205,-9.34819221496582
1766401368353086200,8.217086181640624,0.21751315891742706,-2.973078489303589,-9.342585563659668
1766401368363096000,8.227095947265624,0.2831745445728302,-2.9952409267425537,-9.333741188049316
1766401368373105700,8.237105712890624,0.38643738627433777,-2.957059383392334,-9.342208862304688
1766401368383115500,8.247115478515624,0.3954981863498688,-2.971148729324341,-9.337359428405762
1766401368393125400,8.25712548828125,0.385459303855896,-2.9828217029571533,-9.33405590057373
1766401368403135000,8.267135009765624,0.28312548995018005,-3.0466065406799316,-9.317103385925293
1766401368413144800,8.277144775390624,0.08504442870616913,-3.123962640762329,-9.295374870300293
1766401368463254500,8.327254638671874,-0.19559615850448608,-3.103194236755371,-9.300664901733398
1766401368483335200,8.347335205078124,-0.27774298191070557,-3.077371120452881,-9.307149887084961
1766401368493345000,8.357344970703124,-0.3663572371006012,-3.0612826347351074,-9.309389114379883
1766401368503385300,8.36738525390625,-0.451780766248703,-3.0509872436523438,-9.309016227722168
1766401368513364500,8.377364501953124,-0.5363243222236633,-3.032097816467285,-9.310700416564941
1766401368523404800,8.38740478515625,-0.6139576435089111,-3.0022430419921875,-9.315579414367676
1766401368553464600,8.417464599609374,-0.8324779272079468,-2.8790102005004883,-9.337489128112793
1766401368563474400,8.427474365234374,-0.9111698269844055,-2.8454744815826416,-9.34041976928711
1766401368573484000,8.437484130859374,-0.9894824624061584,-2.805410861968994,-9.344571113586426
1766401368583524400,8.4475244140625,-1.0654817819595337,-2.764134407043457,-9.348514556884766
1766401368593534200,8.4575341796875,-1.1399719715118408,-2.725466012954712,-9.351080894470215
1766401368603544000,8.4675439453125,-1.2103255987167358,-2.693929433822632,-9.351377487182617
1766401368613584100,8.477584228515624,-1.2734484672546387,-2.666443347930908,-9.350872039794922
1766401368623594000,8.487593994140624,-1.3278861045837402,-2.6406068801879883,-9.350631713867188
1766401368653623300,8.517623291015624,-1.460567831993103,-2.5917398929595947,-9.344515800476074
1766401368673704000,8.537703857421874,-1.498050332069397,-2.5804271697998047,-9.341714859008789
1766401368693784300,8.557784423828124,-1.502907633781433,-2.5810656547546387,-9.340758323669434
1766401368703824600,8.56782470703125,-1.4981565475463867,-2.591585397720337,-9.33860969543457
1766401368713804000,8.577803955078124,-1.4891670942306519,-2.6043660640716553,-9.336492538452148
1766401368723844400,8.58784423828125,-1.4746031761169434,-2.6181869506835938,-9.334938049316406
1766401368733854000,8.59785400390625,-1.4439958333969116,-2.6438512802124023,-9.332486152648926
1766401368753873700,8.617873779296875,-1.383059024810791,-2.7020010948181152,-9.32505989074707
1766401368763913700,8.627913818359374,-1.3556594848632812,-2.7002062797546387,-9.329601287841797
1766401368773954000,8.6379541015625,-1.2991200685501099,-2.716691017150879,-9.33285903930664
1766401368783964000,8.6479638671875,-1.224692940711975,-2.7595224380493164,-9.330357551574707
1766401368793973800,8.657973876953125,-1.2017645835876465,-2.778848648071289,-9.327603340148926
1766401368803983400,8.6679833984375,-1.1365190744400024,-2.8273181915283203,-9.321212768554688
1766401368814054100,8.67805419921875,-1.0922489166259766,-2.858675479888916,-9.316939353942871
1766401368824064000,8.68806396484375,-1.0692932605743408,-2.8719420433044434,-9.315524101257324
1766401368834073900,8.698073974609375,-1.0070340633392334,-2.9113738536834717,-9.310218811035156
1766401368874204400,8.738204345703124,-0.8568983674049377,-3.007552146911621,-9.294662475585938
1766401368884244700,8.74824462890625,-0.8321978449821472,-3.0350048542022705,-9.287980079650879
1766401368894254300,8.75825439453125,-0.8194532990455627,-3.0591187477111816,-9.281201362609863
1766401368904264200,8.76826416015625,-0.8152543902397156,-3.0708694458007812,-9.277688980102539
1766401368914274000,8.778274169921875,-0.8299346566200256,-3.085383415222168,-9.271567344665527
1766401368924283600,8.78828369140625,-0.8423862457275391,-3.1004562377929688,-9.265417098999023
1766401368934324000,8.798323974609374,-0.8501501083374023,-3.1162431240081787,-9.25940990447998
1766401368974363100,8.838363037109374,-0.7657538652420044,-3.1507022380828857,-9.255112648010254
1766401368984403500,8.848403564453125,-0.7297658920288086,-3.160759449005127,-9.254590034484863
1766401369004423000,8.8684228515625,-0.6864818334579468,-3.1605582237243652,-9.257969856262207
1766401369014432500,8.8784326171875,-0.6762581467628479,-3.157118320465088,-9.259896278381348
1766401369024442400,8.8884423828125,-0.6730297803878784,-3.1605827808380127,-9.258951187133789
1766401369034452200,8.8984521484375,-0.6731065511703491,-3.17121958732605,-9.255306243896484
1766401369044492500,8.908492431640624,-0.6779076457023621,-3.1969478130340576,-9.246099472045898
1766401369074552300,8.93855224609375,-0.6621792316436768,-3.172436237335205,-9.255678176879883
1766401369094571800,8.95857177734375,-0.5954625010490417,-3.1353237628936768,-9.272838592529297
1766401369104581600,8.96858154296875,-0.5563076734542847,-3.112011194229126,-9.283121109008789
1766401369124631600,8.988631591796874,-0.49665623903274536,-3.0804710388183594,-9.297012329101562
1766401369134641400,8.998641357421874,-0.43776118755340576,-3.0540199279785156,-9.308688163757324
1766401369144651000,9.008651123046874,-0.4165537655353546,-3.0457613468170166,-9.312369346618652
1766401369174711000,9.0387109375,-0.310684472322464,-2.9859442710876465,-9.335846900939941
1766401369184720600,9.048720703125,-0.2634055018424988,-2.968122720718384,-9.342979431152344
1766401369194730500,9.05873046875,-0.23360775411128998,-2.946667194366455,-9.350560188293457
1766401369204770800,9.068770751953124,-0.214909628033638,-2.9191553592681885,-9.359634399414062
1766401369214780400,9.078780517578124,-0.20317226648330688,-2.8793725967407227,-9.372208595275879
1766401369224790300,9.088790283203124,-0.1870441883802414,-2.838331460952759,-9.38505744934082
1766401369234830600,9.09883056640625,-0.16069504618644714,-2.774792194366455,-9.404526710510254
1766401369244840400,9.10884033203125,-0.14565782248973846,-2.727337121963501,-9.418641090393066
1766401369274869800,9.138869873046875,-0.12183257192373276,-2.6053786277770996,-9.45344066619873
1766401369294919700,9.158919677734374,-0.13179044425487518,-2.5028493404388428,-9.480969429016113
1766401369304929500,9.168929443359374,-0.1380547434091568,-2.458000421524048,-9.492607116699219
1766401369314939100,9.178939208984374,-0.14931179583072662,-2.4112462997436523,-9.504420280456543
1766401369324949000,9.188948974609374,-0.15033520758152008,-2.3672287464141846,-9.515463829040527
1766401369334958800,9.198958740234374,-0.13664019107818604,-2.327946662902832,-9.52535629272461
1766401369344968400,9.208968505859374,-0.10952983796596527,-2.289559841156006,-9.535006523132324
1766401369354978300,9.218978271484374,-0.07595905661582947,-2.25254225730896,-9.544144630432129
1766401369385007600,9.249007568359374,0.0541265532374382,-2.1386451721191406,-9.570457458496094
1766401369405027000,9.269027099609374,0.15728387236595154,-2.0616166591644287,-9.586207389831543
1766401369415097900,9.279097900390624,0.21108591556549072,-2.0197396278381348,-9.594087600708008
1766401369425138200,9.28913818359375,0.2638375461101532,-1.9770623445510864,-9.601667404174805
1766401369435148000,9.29914794921875,0.3137715756893158,-1.9401214122772217,-9.607698440551758
1766401369445157600,9.30915771484375,0.3610711693763733,-1.9009355306625366,-9.613870620727539
1766401369455167500,9.31916748046875,0.4033258557319641,-1.8596585988998413,-9.620259284973145
1766401369485288400,9.349288330078124,0.4960654079914093,-1.7265976667404175,-9.640704154968262
1766401369495298000,9.359298095703124,0.5194103121757507,-1.6795871257781982,-9.647777557373047
1766401369505338400,9.36933837890625,0.5342432856559753,-1.63858163356781,-9.65401554107666
1766401369515378700,9.379378662109374,0.5406119227409363,-1.5972516536712646,-9.6605863571167
1766401369525419000,9.3894189453125,0.5408309698104858,-1.5546321868896484,-9.667525291442871
1766401369535428600,9.3994287109375,0.5353332757949829,-1.5206453800201416,-9.673233985900879
1766401369545469000,9.409468994140624,0.5268533229827881,-1.488656997680664,-9.678672790527344
1766401369555478800,9.419478759765624,0.5120593309402466,-1.4382587671279907,-9.687084197998047
1766401369565519000,9.42951904296875,0.5068635940551758,-1.4221611022949219,-9.689733505249023
1766401369585538600,9.44953857421875,0.49409180879592896,-1.3542613983154297,-9.700115203857422
1766401369605558000,9.46955810546875,0.4823654890060425,-1.2881470918655396,-9.70970630645752
1766401369615568000,9.47956787109375,0.4843282401561737,-1.2741785049438477,-9.711451530456543
1766401369625577700,9.48957763671875,0.47746390104293823,-1.2524547576904297,-9.714617729187012
1766401369635587300,9.49958740234375,0.46569499373435974,-1.2368813753128052,-9.717184066772461
1766401369645597200,9.50959716796875,0.4576922655105591,-1.217381477355957,-9.720026016235352
1766401369655607000,9.51960693359375,0.44695159792900085,-1.200951337814331,-9.722570419311523
1766401369665616600,9.52961669921875,0.43648800253868103,-1.1847870349884033,-9.725027084350586
1766401369675657000,9.539656982421874,0.4195687472820282,-1.1716583967208862,-9.727363586425781
1766401369695676400,9.559676513671874,0.380718469619751,-1.1512013673782349,-9.731402397155762
1766401369705686300,9.569686279296874,0.3666032552719116,-1.149106740951538,-9.73219108581543
1766401369715726600,9.5797265625,0.35571733117103577,-1.1472249031066895,-9.732817649841309
1766401369725797400,9.58979736328125,0.3415932059288025,-1.1455795764923096,-9.733515739440918
1766401369735807200,9.59980712890625,0.3376312255859375,-1.146066665649414,-9.733596801757812
1766401369745847300,9.609847412109374,0.3280011713504791,-1.15509831905365,-9.732860565185547
1766401369765867000,9.629866943359374,0.3151455223560333,-1.1679408550262451,-9.7317533493042
1766401369775937800,9.639937744140624,0.30202963948249817,-1.1869724988937378,-9.729866027832031
1766401369805967000,9.669967041015624,0.23845626413822174,-1.2356152534484863,-9.72557544708252
1766401369815976700,9.679976806640624,0.2012355774641037,-1.2540572881698608,-9.724054336547852
1766401369825986600,9.689986572265624,0.1781487911939621,-1.2664341926574707,-9.722902297973633
1766401369846067200,9.710067138671874,0.14124244451522827,-1.304966926574707,-9.71841049194336
1766401369856107500,9.720107421875,0.13356851041316986,-1.3132553100585938,-9.717403411865234
1766401369866147800,9.73014794921875,0.11766980588436127,-1.3199559450149536,-9.716699600219727
1766401369876157400,9.740157470703124,0.1014183908700943,-1.3315132856369019,-9.715307235717773
1766401369886167300,9.750167236328124,0.08479688316583633,-1.3353899717330933,-9.714934349060059
1766401369906186800,9.770186767578124,0.05239573121070862,-1.3386651277542114,-9.714713096618652
1766401369916196600,9.780196533203124,0.0220263060182333,-1.3395178318023682,-9.714710235595703
1766401369926206200,9.790206298828124,0.01298774778842926,-1.3379253149032593,-9.714946746826172
1766401369936216000,9.800216064453124,-0.004893187899142504,-1.3316216468811035,-9.7158203125
1766401369946226000,9.810225830078124,-0.022414127364754677,-1.3226263523101807,-9.717024803161621
1766401369956205000,9.820205078125,-0.04653392359614372,-1.310399055480957,-9.718594551086426
1766401369966245400,9.830245361328124,-0.05596436560153961,-1.305422306060791,-9.719216346740723
1766401369976255200,9.840255126953124,-0.06577618420124054,-1.292891263961792,-9.720829010009766
1766401369986295300,9.85029541015625,-0.07222124189138412,-1.2784650325775146,-9.722689628601074
1766401370016385800,9.8803857421875,-0.08673525601625443,-1.23732590675354,-9.727893829345703
1766401370026395400,9.8903955078125,-0.09216092526912689,-1.2216377258300781,-9.729825019836426
1766401370036405200,9.9004052734375,-0.09572383016347885,-1.2150547504425049,-9.73061466217041
1766401370046445600,9.910445556640624,-0.10005339235067368,-1.2016891241073608,-9.732232093811035
1766401370056486000,9.92048583984375,-0.10283803939819336,-1.1830403804779053,-9.73448657989502
1766401370066495500,9.93049560546875,-0.10181725770235062,-1.155556082725525,-9.737801551818848
1766401370076535800,9.940535888671874,-0.09876354038715363,-1.138732671737671,-9.739810943603516
1766401370086545700,9.950545654296874,-0.09476473927497864,-1.1275383234024048,-9.741153717041016
1766401370096555500,9.960555419921874,-0.09112045168876648,-1.1109015941619873,-9.743101119995117
1766401370116575000,9.980574951171874,-0.0790393054485321,-1.0537482500076294,-9.749552726745605
1766401370126584800,9.990584716796874,-0.07553049176931381,-1.0406911373138428,-9.750981330871582
1766401370136594400,10.000594482421874,-0.07170113176107407,-1.017197608947754,-9.75348949432373
1766401370146604300,10.010604248046874,-0.07118821889162064,-0.9898638725280762,-9.756306648254395
1766401370156614100,10.0206142578125,-0.07327811419963837,-0.9687196016311646,-9.75841236114502
1766401370176633600,10.040633544921874,-0.06488335877656937,-0.9284542798995972,-9.762384414672852
1766401370186674000,10.050673828125,-0.05657658353447914,-0.9159274697303772,-9.76362133026123
1766401370196683500,10.06068359375,-0.04792312532663345,-0.9042722582817078,-9.764751434326172
1766401370206723800,10.070723876953124,-0.03717537969350815,-0.888043224811554,-9.766288757324219
1766401370216764200,10.08076416015625,-0.01651141047477722,-0.8654678463935852,-9.768372535705566
1766401370246854400,10.1108544921875,0.02233119308948517,-0.8367382884025574,-9.77086353302002
1766401370256894700,10.120894775390624,0.03680957853794098,-0.8210088014602661,-9.7721529006958
1766401370266904600,10.130904541015624,0.045086976140737534,-0.8151352405548096,-9.772611618041992
1766401370276914400,10.14091455078125,0.057882290333509445,-0.7990933656692505,-9.773868560791016
1766401370286954500,10.15095458984375,0.06256633251905441,-0.7919968366622925,-9.774415969848633
1766401370296964400,10.16096435546875,0.06095021218061447,-0.7846983671188354,-9.775014877319336
1766401370307004700,10.171004638671874,0.06207595765590668,-0.7735766768455505,-9.775895118713379
1766401370317014500,10.1810146484375,0.06710824370384216,-0.7616384029388428,-9.776799201965332
1766401370337095000,10.201094970703124,0.08569786697626114,-0.7441378831863403,-9.77800178527832
1766401370347165700,10.211165771484374,0.09748376905918121,-0.7411784529685974,-9.778117179870605
1766401370357175600,10.221175537109374,0.106989786028862,-0.7348576188087463,-9.778493881225586
1766401370367185400,10.231185302734374,0.12132593989372253,-0.7239292860031128,-9.77914047241211
1766401370377225500,10.2412255859375,0.13933776319026947,-0.7085025310516357,-9.780031204223633
1766401370387265800,10.251265869140624,0.14486996829509735,-0.7038695216178894,-9.780284881591797
1766401370397275600,10.261275634765624,0.14775168895721436,-0.6824971437454224,-9.781757354736328
1766401370407316000,10.27131591796875,0.14292703568935394,-0.6705016493797302,-9.782660484313965
1766401370437375700,10.301375732421874,0.11660356819629669,-0.6499220728874207,-9.784395217895508
1766401370447416000,10.311416015625,0.10416535288095474,-0.6418232917785645,-9.78507137298584
1766401370457425700,10.32142578125,0.09681101888418198,-0.6338447332382202,-9.785666465759277
1766401370467466000,10.331466064453124,0.09079688042402267,-0.6222086548805237,-9.78647232055664
1766401370477475800,10.341475830078124,0.08699527382850647,-0.6159642338752747,-9.786900520324707
1766401370487485700,10.351485595703124,0.08349904417991638,-0.616819441318512,-9.786877632141113
1766401370497495300,10.361495361328124,0.07402925193309784,-0.6130611896514893,-9.787189483642578
1766401370517545500,10.38154541015625,0.04771064221858978,-0.5907386541366577,-9.788726806640625
1766401370527555000,10.39155517578125,-0.020669424906373024,-0.5621994733810425,-9.79050064086914
1766401370557645600,10.4216455078125,-0.027497673407197,-0.5717657804489136,-9.789929389953613
1766401370567655200,10.4316552734375,-0.0452711284160614,-0.5897936224937439,-9.78879451751709
1766401370577665000,10.4416650390625,-0.052015289664268494,-0.6025270223617554,-9.787984848022461
1766401370587675000,10.4516748046875,-0.058781057596206665,-0.6383163928985596,-9.78567886352539
1766401370597684500,10.4616845703125,-0.06159213185310364,-0.6629065275192261,-9.784027099609375
1766401370607663900,10.471663818359374,-0.0604291707277298,-0.696815550327301,-9.781676292419434
1766401370617704200,10.4817041015625,-0.05922958627343178,-0.7123479843139648,-9.78056526184082
1766401370627713800,10.4917138671875,-0.07078015059232712,-0.7961685657501221,-9.774023056030273
1766401370657773600,10.521773681640624,-0.08567877858877182,-0.9911407828330994,-9.756058692932129
1766401370667783400,10.531783447265624,-0.09949170798063278,-1.0874115228652954,-9.745667457580566
1766401370687833600,10.55183349609375,-0.09564494341611862,-1.359649658203125,-9.711467742919922
1766401370697843200,10.56184326171875,-0.08236479759216309,-1.4724911451339722,-9.695122718811035
1766401370707883500,10.571883544921874,-0.07052535563707352,-1.5848370790481567,-9.677486419677734
1766401370717893400,10.581893310546874,-0.06993909180164337,-1.6578601598739624,-9.665247917175293
1766401370727903000,10.591903076171874,-0.0716530978679657,-1.7843950986862183,-9.642675399780273
1766401370757963000,10.621962890625,-0.07880063354969025,-2.217287063598633,-9.552373886108398
1766401370767972600,10.63197265625,-0.10536198318004608,-2.3340654373168945,-9.524253845214844
1766401370788053200,10.65205322265625,-0.17404265701770782,-2.4812848567962646,-9.485954284667969
1766401370798063000,10.66206298828125,-0.23648634552955627,-2.6071600914001465,-9.45077896118164
1766401370808103200,10.672103271484374,-0.2742208242416382,-2.6877384185791016,-9.427156448364258
1766401370818113000,10.682113037109374,-0.3015137314796448,-2.7565085887908936,-9.406444549560547
1766401370828183800,10.692183837890624,-0.3153527081012726,-2.829724073410034,-9.384222030639648
1766401370868223000,10.732222900390624,-0.29367953538894653,-3.0146450996398926,-9.327168464660645
1766401370878232600,10.742232666015624,-0.3228633403778076,-3.0275633335113525,-9.32201862335205
1766401370888242400,10.752242431640624,-0.3440907895565033,-3.030958890914917,-9.320155143737793
1766401370898252300,10.762252197265624,-0.38725516200065613,-3.0459911823272705,-9.313559532165527
1766401370908262000,10.772261962890624,-0.43120071291923523,-3.0550568103790283,-9.308655738830566
1766401370918271700,10.782271728515624,-0.46906760334968567,-3.07090163230896,-9.30160903930664
1766401370928281600,10.792281494140624,-0.48575282096862793,-3.0821096897125244,-9.29704475402832
1766401370938321700,10.80232177734375,-0.49292662739753723,-3.083798408508301,-9.296107292175293
1766401370978391300,10.842391357421874,-0.3350830376148224,-3.0751872062683105,-9.305985450744629
1766401370988401200,10.852401123046874,-0.3140196204185486,-3.0525810718536377,-9.31415843963623
1766401370998441500,10.86244140625,-0.3098658621311188,-3.0400519371032715,-9.31839370727539
1766401371008451000,10.872451171875,-0.32449352741241455,-3.004359483718872,-9.329466819763184
1766401371018461000,10.8824609375,-0.3252420723438263,-2.9788873195648193,-9.337604522705078
1766401371028440300,10.8924404296875,-0.3206954896450043,-2.9622249603271484,-9.343061447143555
1766401371038480400,10.90248046875,-0.3240436613559723,-2.925408124923706,-9.354538917541504
1766401371078580500,10.94258056640625,-0.19907356798648834,-2.772841453552246,-9.404367446899414
1766401371088590300,10.95259033203125,-0.17007216811180115,-2.75453782081604,-9.410313606262207
1766401371098600200,10.96260009765625,-0.09790405631065369,-2.7149317264556885,-9.422842979431152
1766401371108609800,10.97260986328125,0.007540291175246239,-2.638399839401245,-9.445061683654785
1766401371118650000,10.982650146484374,0.03409814089536667,-2.602100133895874,-9.455066680908203
1766401371138669600,11.002669677734374,0.23272716999053955,-2.4840264320373535,-9.483979225158691
1766401371148679400,11.012679443359374,0.2790035307407379,-2.4650211334228516,-9.487689018249512
1766401371188718600,11.052718505859374,0.45459896326065063,-2.134766101837158,-9.560675621032715
1766401371198759000,11.062759033203125,0.4931640028953552,-2.052971601486206,-9.57666301727295
1766401371208768500,11.0727685546875,0.5135225057601929,-2.0039005279541016,-9.585983276367188
1766401371218778400,11.0827783203125,0.5576121211051941,-1.9322607517242432,-9.598219871520996
1766401371228788000,11.0927880859375,0.6182196140289307,-1.8641397953033447,-9.607975006103516
1766401371238828300,11.102828369140624,0.7076087594032288,-1.726881742477417,-9.62743854522705
1766401371248868600,11.11286865234375,0.7359482645988464,-1.6737284660339355,-9.634698867797852
1766401371258878500,11.12287841796875,0.8070608377456665,-1.5048890113830566,-9.656829833984375
1766401371288938200,11.152938232421874,0.9317001700401306,-1.232656717300415,-9.684157371520996
1766401371298948000,11.162947998046874,0.9702174067497253,-1.140444040298462,-9.691670417785645
1766401371308957700,11.172957763671874,1.040623426437378,-0.9979022145271301,-9.700087547302246
1766401371318967600,11.182967529296874,1.0990086793899536,-0.917467474937439,-9.701590538024902
1766401371328977400,11.192977294921874,1.1297732591629028,-0.8809254765510559,-9.701441764831543
1766401371339017500,11.203017578125,1.2063006162643433,-0.7621841430664062,-9.702284812927246
1766401371349057800,11.213057861328124,1.2365132570266724,-0.695112407207489,-9.703516960144043
1766401371359067600,11.223067626953124,1.3010224103927612,-0.5724886655807495,-9.703092575073242
1766401371389097000,11.253096923828124,1.4020583629608154,-0.38033774495124817,-9.698452949523926
1766401371399137300,11.26313720703125,1.4183135032653809,-0.33358678221702576,-9.697809219360352
1766401371409177600,11.273177490234374,1.4236979484558105,-0.3019806742668152,-9.698055267333984
1766401371419187200,11.283187255859374,1.4353896379470825,-0.3201221823692322,-9.69575023651123
1766401371429227500,11.2932275390625,1.4479519128799438,-0.3719352185726166,-9.692030906677246
1766401371439267800,11.303267822265624,1.4596537351608276,-0.39822688698768616,-9.689231872558594
1766401371449308200,11.31330810546875,1.4461872577667236,-0.4069157838821411,-9.69089126586914
1766401371459379000,11.32337890625,1.443641185760498,-0.4110296666622162,-9.691096305847168
1766401371509397200,11.373397216796874,1.6707441806793213,-0.7203253507614136,-9.636397361755371
1766401371519437600,11.3834375,1.7016642093658447,-0.7497997283935547,-9.62873363494873
1766401371529447200,11.393447265625,1.7157562971115112,-0.7576989531517029,-9.625616073608398
1766401371539457000,11.40345703125,1.7193230390548706,-0.7555501461029053,-9.625146865844727
1766401371549467000,11.413466796875,1.7183276414871216,-0.7656782865524292,-9.624524116516113
1766401371569486300,11.433486328125,1.7698684930801392,-0.809845507144928,-9.61156177520752
1766401371599515600,11.463515625,1.8501455783843994,-0.9281614422798157,-9.585712432861328
1766401371609525500,11.473525390625,1.8400870561599731,-0.8973113298416138,-9.590584754943848
1766401371619535000,11.48353515625,1.830210566520691,-0.8696483969688416,-9.59502124786377
1766401371629575400,11.493575439453124,1.8219209909439087,-0.8454857468605042,-9.598756790161133
1766401371639615700,11.50361572265625,1.8246158361434937,-0.84129399061203,-9.598614692687988
1766401371649625600,11.51362548828125,1.8450373411178589,-0.857804536819458,-9.593247413635254
1766401371659635200,11.52363525390625,1.8949638605117798,-0.9015606045722961,-9.579493522644043
1766401371669614600,11.533614501953124,1.9240459203720093,-0.9136626720428467,-9.57254695892334
1766401371719693800,11.58369384765625,1.8924381732940674,-0.8264989852905273,-9.586760520935059
1766401371729734100,11.593734130859374,1.8962671756744385,-0.8452973365783691,-9.58436393737793
1766401371739744000,11.603743896484374,1.9277490377426147,-0.8719685673713684,-9.575689315795898
1766401371749753600,11.613753662109374,1.961215615272522,-0.9024864435195923,-9.566061973571777
1766401371759763500,11.623763427734374,1.98805832862854,-0.9351893067359924,-9.557376861572266
1766401371769773300,11.633773193359374,2.0008339881896973,-0.9607775211334229,-9.55217170715332
1766401371779783000,11.643782958984374,2.0107955932617188,-0.9861312508583069,-9.547492980957031
1766401371839902700,11.70390283203125,1.9777233600616455,-1.1569076776504517,-9.53522777557373
1766401371849942800,11.71394287109375,1.988763451576233,-1.1720305681228638,-9.531083106994629
1766401371859983000,11.723983154296874,1.9939590692520142,-1.1798542737960815,-9.529034614562988
1766401371870023400,11.7340234375,1.9945087432861328,-1.1792817115783691,-9.528987884521484
1766401371879972000,11.74397216796875,1.986923336982727,-1.18455171585083,-9.52992057800293
1766401371910001400,11.77400146484375,1.9665504693984985,-1.3330934047698975,-9.51451301574707
1766401371930021000,11.794021240234375,1.9742509126663208,-1.3116896152496338,-9.515891075134277
1766401371940030700,11.80403076171875,1.9566600322723389,-1.2716485261917114,-9.524957656860352
1766401371950071000,11.814071044921874,1.9358227252960205,-1.24142587184906,-9.533197402954102
1766401371960081000,11.824080810546874,1.9146641492843628,-1.228595495223999,-9.539131164550781
1766401371970090500,11.834090576171874,1.9007407426834106,-1.256982684135437,-9.538217544555664
1766401371980100400,11.844100341796874,1.8732943534851074,-1.2600651979446411,-9.54323673248291
1766401372010129700,11.874129638671874,1.81706702709198,-1.191449761390686,-9.56290340423584
1766401372050199300,11.91419921875,1.8149073123931885,-1.1132655143737793,-9.572728157043457
1766401372060209000,11.924208984375,1.7820101976394653,-1.0752758979797363,-9.58324909210205
1766401372070218800,11.93421875,1.7579478025436401,-1.065950632095337,-9.58873176574707
1766401372080198000,11.944197998046874,1.7488497495651245,-1.0573564767837524,-9.59134578704834
1766401372090269000,11.95426904296875,1.7508877515792847,-1.0451915264129639,-9.592307090759277
1766401372120267500,11.984267578125,1.6604619026184082,-0.976151704788208,-9.615633010864258
1766401372130307800,11.994307861328124,1.6395865678787231,-0.9589406251907349,-9.620945930480957
1766401372140348200,12.00434814453125,1.6497889757156372,-0.9575342535972595,-9.619340896606445
1766401372150388500,12.014388427734374,1.6618577241897583,-0.9376440048217773,-9.619223594665527
1766401372160337200,12.024337158203124,1.6682937145233154,-0.934593141078949,-9.618407249450684
1766401372170377500,12.03437744140625,1.677545428276062,-0.9358420372009277,-9.61667251586914
1766401372180387300,12.04438720703125,1.682623028755188,-0.9273102283477783,-9.61661434173584
1766401372190397000,12.05439697265625,1.6905380487442017,-0.9043644666671753,-9.617411613464355
1766401372220456700,12.084456787109374,1.710938811302185,-0.8342775106430054,-9.620139122009277
1766401372250516700,12.114516845703125,1.7396345138549805,-0.7942366003990173,-9.618380546569824
1766401372260526300,12.1245263671875,1.7406402826309204,-0.7924228310585022,-9.618349075317383
1766401372270566700,12.134566650390624,1.7451553344726562,-0.7732508778572083,-9.61909008026123
1766401372280576500,12.144576416015624,1.759104609489441,-0.766476571559906,-9.617093086242676
1766401372290616800,12.154616943359375,1.7794435024261475,-0.7323422431945801,-9.616008758544922
1766401372300626400,12.16462646484375,1.8008596897125244,-0.6848176717758179,-9.615524291992188
1766401372320676600,12.184676513671874,1.8118836879730225,-0.6475756168365479,-9.616034507751465
1766401372330686200,12.194686279296874,1.8082265853881836,-0.6573395133018494,-9.616060256958008
1766401372340696000,12.204696044921874,1.803147315979004,-0.6541383862495422,-9.617233276367188
1766401372350736400,12.214736328125,1.7989420890808105,-0.6174471378326416,-9.62044620513916
1766401372360746000,12.22474609375,1.7843502759933472,-0.5706282258033752,-9.626051902770996
1766401372370786300,12.234786376953124,1.7828601598739624,-0.5300747156143188,-9.628647804260254
1766401372380796200,12.244796142578124,1.8035122156143188,-0.4949151277542114,-9.626669883728027
1766401372400815600,12.264815673828124,1.8404836654663086,-0.44455352425575256,-9.6221284866333
1766401372420835300,12.28483544921875,1.8384723663330078,-0.4000842571258545,-9.624465942382812
1766401372440854800,12.304854736328124,1.8105541467666626,-0.3223477602005005,-9.632673263549805
1766401372450864400,12.314864501953124,1.8042501211166382,-0.2892625629901886,-9.634904861450195
1766401372460904700,12.32490478515625,1.802640438079834,-0.2608645260334015,-9.636017799377441
1766401372470914600,12.33491455078125,1.8023130893707275,-0.24086758494377136,-9.63659954071045
1766401372480924400,12.34492431640625,1.8065756559371948,-0.21858401596546173,-9.636331558227539
1766401372490964700,12.35496484375,1.8094185590744019,-0.20694003999233246,-9.636054992675781
1766401372501004800,12.3650048828125,1.8073595762252808,-0.20281089842319489,-9.636529922485352
1766401372541074400,12.405074462890624,1.779754638671875,-0.17123949527740479,-9.642277717590332
1766401372551084300,12.415084228515624,1.7778359651565552,-0.17413419485092163,-9.642582893371582
1766401372561094000,12.425093994140624,1.773026466369629,-0.17827801406383514,-9.643391609191895
1766401372571134200,12.43513427734375,1.7680851221084595,-0.18494930863380432,-9.644173622131348
1766401372581144000,12.44514404296875,1.7350444793701172,-0.21293753385543823,-9.649593353271484
1766401372591154000,12.45515380859375,1.7168906927108765,-0.2246466726064682,-9.652575492858887
1766401372601163500,12.46516357421875,1.6804057359695435,-0.22468306124210358,-9.6589937210083
1766401372611173400,12.47517333984375,1.6416733264923096,-0.2182386964559555,-9.66579818725586
1766401372621183200,12.485183349609375,1.6026673316955566,-0.22293621301651,-9.672235488891602
1766401372651243000,12.515242919921874,1.5314327478408813,-0.2389933168888092,-9.683387756347656
1766401372661283300,12.525283447265625,1.5240452289581299,-0.2360324263572693,-9.684625625610352
1766401372671323400,12.535323486328124,1.4920594692230225,-0.2313382774591446,-9.689718246459961
1766401372681333200,12.545333251953124,1.4592134952545166,-0.1980319321155548,-9.695457458496094
1766401372691343000,12.555343017578124,1.418939471244812,-0.1883406937122345,-9.70162582397461
1766401372701383400,12.565383544921875,1.3724979162216187,-0.18417203426361084,-9.708385467529297
1766401372711393000,12.57539306640625,1.3227474689483643,-0.20867738127708435,-9.714792251586914
1766401372751493000,12.6154931640625,1.236561894416809,-0.29206177592277527,-9.723991394042969
1766401372761503000,12.6255029296875,1.2720586061477661,-0.308662474155426,-9.718899726867676
1766401372771543300,12.635543212890624,1.3032552003860474,-0.3364996016025543,-9.71384048461914
1766401372781553000,12.645552978515624,1.3188624382019043,-0.3711814880371094,-9.710470199584961
1766401372791562800,12.655562744140624,1.3086644411087036,-0.4348287582397461,-9.709208488464355
1766401372801603000,12.66560302734375,1.2964354753494263,-0.5404053926467896,-9.705544471740723
1766401372811613000,12.675613037109375,1.2974460124969482,-0.5800803899765015,-9.703119277954102
1766401372821622500,12.68562255859375,1.2923235893249512,-0.618863582611084,-9.701407432556152
1766401372861722600,12.72572265625,1.232467532157898,-0.7185164093971252,-9.702326774597168
1766401372871793400,12.73579345703125,1.222845435142517,-0.7998542189598083,-9.697176933288574
1766401372881803300,12.74580322265625,1.2238788604736328,-0.8905723094940186,-9.689139366149902
1766401372901853200,12.765853271484374,1.2545007467269897,-0.9767741560935974,-9.676908493041992
1766401372911893500,12.7758935546875,1.257097840309143,-0.9947266578674316,-9.674742698669434
1766401372921903400,12.7859033203125,1.2535253763198853,-0.9978628158569336,-9.674883842468262
1766401372931943700,12.795943603515624,1.2715013027191162,-1.0372750759124756,-9.668390274047852
1766401372961973000,12.825972900390624,1.3311870098114014,-1.1774557828903198,-9.644269943237305
1766401372971982600,12.835982666015624,1.351184606552124,-1.2262449264526367,-9.635405540466309
1766401372981992400,12.845992431640624,1.3530014753341675,-1.3361412286758423,-9.620524406433105
1766401372992002300,12.856002197265624,1.3450829982757568,-1.3557132482528687,-9.618897438049316
1766401373002012000,12.866011962890624,1.3543912172317505,-1.4071365594863892,-9.610201835632324
1766401373012052200,12.87605224609375,1.393085241317749,-1.4850033521652222,-9.592938423156738
1766401373022092500,12.886092529296874,1.4176627397537231,-1.5264792442321777,-9.582822799682617
1766401373032102400,12.896102294921874,1.444144606590271,-1.5497204065322876,-9.5751371383667
1766401373052121900,12.916121826171874,1.4503813982009888,-1.596636414527893,-9.56648063659668
1766401373062131700,12.926131591796874,1.4374791383743286,-1.646085262298584,-9.56004524230957
1766401373072171800,12.936171875,1.4240645170211792,-1.650841474533081,-9.56123161315918
1766401373082181600,12.946181640625,1.4108078479766846,-1.6669167280197144,-9.560407638549805
1766401373092191500,12.95619140625,1.4102303981781006,-1.6772100925445557,-9.558693885803223
1766401373102231800,12.966231689453124,1.4057297706604004,-1.7031729221343994,-9.554764747619629
1766401373112241400,12.976241455078124,1.3942482471466064,-1.7158540487289429,-9.554178237915039
1766401373122251300,12.986251220703124,1.3363103866577148,-1.72218656539917,-9.561315536499023
1766401373132291600,12.99629150390625,1.3219101428985596,-1.7199188470840454,-9.563725471496582
1766401373152341500,13.016341552734374,1.3264681100845337,-1.7352713346481323,-9.560319900512695
1766401373172361200,13.036361328125,1.3024616241455078,-1.7701753377914429,-9.557220458984375
1766401373182401300,13.0464013671875,1.2649741172790527,-1.746646761894226,-9.566580772399902
1766401373192441600,13.056441650390624,1.2856063842773438,-1.7724460363388062,-9.559082984924316
1766401373242521000,13.10652099609375,1.3208856582641602,-1.8535430431365967,-9.538869857788086
1766401373252530700,13.11653076171875,1.3055214881896973,-1.8737246990203857,-9.537041664123535
1766401373272580900,13.136580810546874,1.2531611919403076,-1.9035587310791016,-9.538158416748047
1766401373282590500,13.146590576171874,1.248408317565918,-1.9397549629211426,-9.531484603881836
1766401373312742000,13.176741943359374,1.315708875656128,-1.9897714853286743,-9.512103080749512
1766401373322721300,13.18672119140625,1.3437949419021606,-1.9950435161590576,-9.507072448730469
1766401373332761600,13.19676171875,1.3518179655075073,-2.021799325942993,-9.50027847290039
1766401373342801700,13.2068017578125,1.3314918279647827,-2.0354955196380615,-9.500226020812988
1766401373402829800,13.266829833984374,1.1810072660446167,-2.1868338584899902,-9.48648452758789
1766401373422880000,13.2868798828125,1.172122597694397,-2.2480013370513916,-9.47327995300293
1766401373442899500,13.3068994140625,1.1824400424957275,-2.263852119445801,-9.468222618103027
1766401373482999600,13.34699951171875,1.1597486734390259,-2.2853639125823975,-9.465859413146973
1766401373493039900,13.357039794921874,1.1636717319488525,-2.304333209991455,-9.460779190063477
1766401373503049500,13.367049560546874,1.1762135028839111,-2.329563856124878,-9.453044891357422
1766401373513151000,13.37715087890625,1.1866559982299805,-2.3373537063598633,-9.44981861114502
1766401373523130000,13.387130126953124,1.1930841207504272,-2.3387904167175293,-9.448652267456055
1766401373533170400,13.39717041015625,1.187949538230896,-2.337538242340088,-9.449607849121094
1766401373543210800,13.407210693359374,1.183852195739746,-2.349005699157715,-9.447278022766113
1766401373553251000,13.4172509765625,1.1668596267700195,-2.350605010986328,-9.448993682861328
1766401373583280400,13.4472802734375,1.1641535758972168,-2.3148016929626465,-9.458161354064941
1766401373603330300,13.467330322265624,1.1964819431304932,-2.290578603744507,-9.4600248336792
1766401373613370600,13.47737060546875,1.1802173852920532,-2.277920722961426,-9.465124130249023
1766401373623411000,13.487410888671874,1.1660586595535278,-2.2748987674713135,-9.467605590820312
1766401373633420500,13.497420654296874,1.1490620374679565,-2.2563374042510986,-9.47412109375
1766401373643430400,13.507430419921874,1.1272801160812378,-2.248908042907715,-9.47850513458252
1766401373653470700,13.517470703125,1.106341004371643,-2.223045825958252,-9.487069129943848
1766401373663511000,13.527510986328124,1.1053056716918945,-2.2067716121673584,-9.490988731384277
1766401373683561000,13.54756103515625,1.0589487552642822,-2.2028567790985107,-9.497179985046387
1766401373693601300,13.557601318359374,1.0544764995574951,-2.210263729095459,-9.49595832824707
1766401373703641600,13.5676416015625,1.046983242034912,-2.2096786499023438,-9.496923446655273
1766401373713682000,13.577681884765624,1.0492721796035767,-2.194197177886963,-9.500259399414062
1766401373723691800,13.58769189453125,1.044727087020874,-2.2031972408294678,-9.498677253723145
1766401373733701400,13.597701416015624,1.0477333068847656,-2.2088048458099365,-9.49704360961914
1766401373743741700,13.60774169921875,1.0546170473098755,-2.2090349197387695,-9.496228218078613
1766401373753782000,13.617781982421874,1.0607670545578003,-2.2109017372131348,-9.495108604431152
1766401373763792000,13.6277919921875,1.0779733657836914,-2.208285331726074,-9.493779182434082
1766401373793851600,13.6578515625,1.1271264553070068,-2.2060067653656006,-9.48859977722168
1766401373813901600,13.677901611328124,1.116990327835083,-2.2104883193969727,-9.488754272460938
1766401373823942000,13.68794189453125,1.1103845834732056,-2.2062785625457764,-9.490510940551758
1766401373833951700,13.69795166015625,1.064521074295044,-2.1995041370391846,-9.497333526611328
1766401373843992000,13.707991943359374,1.034009337425232,-2.1865053176879883,-9.503706932067871
1766401373854001700,13.718001708984374,1.0082547664642334,-2.1737797260284424,-9.509390830993652
1766401373864011500,13.728011474609374,0.9830884337425232,-2.1686670780181885,-9.513192176818848
1766401373884031000,13.748031005859374,0.9601357579231262,-2.154212474822998,-9.518817901611328
1766401373894040800,13.758040771484374,0.9485006928443909,-2.132500171661377,-9.524872779846191
1766401373904081200,13.7680810546875,0.9377598166465759,-2.126377820968628,-9.527305603027344
1766401373914090800,13.7780908203125,0.9300858974456787,-2.122734785079956,-9.528868675231934
1766401373924070100,13.788070068359374,0.9113805294036865,-2.111192464828491,-9.53324031829834
1766401373934110500,13.7981103515625,0.9039196968078613,-2.1001086235046387,-9.536398887634277
1766401373944150500,13.808150634765624,0.8882015347480774,-2.0853209495544434,-9.541119575500488
1766401373954160400,13.818160400390624,0.8692511916160583,-2.068239450454712,-9.54658317565918
1766401373964170200,13.828170166015624,0.8687301874160767,-2.067896842956543,-9.54670238494873
1766401373994260500,13.858260498046874,0.8310613036155701,-2.0455315113067627,-9.554871559143066
1766401374004270300,13.868270263671874,0.8207275867462158,-2.043544292449951,-9.556188583374023
1766401374014341000,13.878341064453124,0.7999448180198669,-2.0389246940612793,-9.55893611907959
1766401374024381400,13.88838134765625,0.7826806902885437,-2.0321803092956543,-9.561800956726074
1766401374034391000,13.89839111328125,0.7657057642936707,-2.021667718887329,-9.56540298461914
1766401374044401000,13.90840087890625,0.7549841403961182,-2.015979528427124,-9.56745719909668
1766401374054441200,13.918441162109374,0.7455059289932251,-2.0136821269989014,-9.568682670593262
1766401374064450800,13.928450927734374,0.7447982430458069,-2.012968063354492,-9.568888664245605
1766401374074491100,13.9384912109375,0.7467414140701294,-2.0156848430633545,-9.568164825439453
1766401374104520400,13.9685205078125,0.7602550387382507,-2.015955924987793,-9.567044258117676
1766401374114530300,13.9785302734375,0.7618380188941956,-2.014373540878296,-9.567251205444336
1766401374124540200,13.9885400390625,0.7626178860664368,-2.0158603191375732,-9.566877365112305
1766401374144590000,14.008590087890624,0.7602837085723877,-2.017529249191284,-9.566710472106934
1766401374154630400,14.01863037109375,0.7473008632659912,-2.0231008529663086,-9.56655502319336
1766401374164640300,14.02864013671875,0.7410231828689575,-2.022570848464966,-9.567157745361328
1766401374174649900,14.03864990234375,0.7281395792961121,-2.021124839782715,-9.568451881408691
1766401374184659700,14.04865966796875,0.7093944549560547,-2.0177009105682373,-9.570582389831543
1766401374214689000,14.07868896484375,0.6466368436813354,-2.0187501907348633,-9.574806213378906
1766401374224729300,14.088729248046874,0.6312147974967957,-2.0283467769622803,-9.573806762695312
1766401374234739000,14.098739013671874,0.607677161693573,-2.0307459831237793,-9.574821472167969
1766401374244748800,14.108748779296874,0.5730042457580566,-2.0285699367523193,-9.577420234680176
1766401374254789000,14.1187890625,0.56428062915802,-2.025782585144043,-9.578527450561523
1766401374264829400,14.128829345703124,0.5523039102554321,-2.0153415203094482,-9.581428527832031
1766401374274869800,14.138869873046875,0.5432577133178711,-2.017096519470215,-9.581575393676758
1766401374284879400,14.14887939453125,0.5306352376937866,-2.0138590335845947,-9.582963943481445
1766401374324949000,14.188948974609374,0.5096074342727661,-2.0053443908691406,-9.585891723632812
1766401374334958800,14.198958740234374,0.5118268728256226,-2.007612705230713,-9.585297584533691
1766401374344999000,14.2089990234375,0.5036284327507019,-2.025465965270996,-9.581975936889648
1766401374355008800,14.2190087890625,0.4906822144985199,-2.0485780239105225,-9.577731132507324
1766401374365018600,14.2290185546875,0.48627644777297974,-2.06406569480896,-9.57463264465332
1766401374375028200,14.2390283203125,0.49083420634269714,-2.0862088203430176,-9.569598197937012
1766401374385068500,14.249068603515624,0.5141874551773071,-2.118817090988159,-9.561203002929688
1766401374405088300,14.269088134765624,0.580433189868927,-2.2265336513519287,-9.532893180847168
1766401374415128300,14.27912841796875,0.595943033695221,-2.246713876724243,-9.527200698852539
1766401374425168600,14.289168701171874,0.6124061346054077,-2.2900772094726562,-9.515823364257812
1766401374435209000,14.299208984375,0.6055715680122375,-2.3295340538024902,-9.50667953491211
1766401374445218800,14.30921875,0.5947372317314148,-2.377976655960083,-9.495363235473633
1766401374455228400,14.319228515625,0.5757285952568054,-2.4259531497955322,-9.484391212463379
1766401374465238300,14.32923828125,0.5527901649475098,-2.4749531745910645,-9.473090171813965
1766401374475248000,14.339248046875,0.5278562903404236,-2.53810977935791,-9.457788467407227
1766401374485288400,14.349288330078124,0.49751585721969604,-2.599346399307251,-9.442790985107422
1766401374505308000,14.369307861328124,0.49145427346229553,-2.7688639163970947,-9.39480209350586
1766401374525327400,14.389327392578124,0.5227231979370117,-2.8612401485443115,-9.365387916564941
1766401374535367700,14.39936767578125,0.5343192219734192,-2.931551694869995,-9.3429594039917
1766401374545408000,14.409407958984374,0.5349876284599304,-2.963641405105591,-9.332794189453125
1766401374555417900,14.41941796875,0.5419752597808838,-3.0297021865844727,-9.311152458190918
1766401374565427500,14.429427490234374,0.5597456693649292,-3.0792133808135986,-9.293841361999512
1766401374575437300,14.439437255859374,0.5622519850730896,-3.105137348175049,-9.285064697265625
1766401374585477600,14.4494775390625,0.5860136151313782,-3.156858444213867,-9.266132354736328
1766401374595487200,14.4594873046875,0.6157414317131042,-3.1912689208984375,-9.252408981323242
1766401374615537400,14.479537353515624,0.6922447681427002,-3.263007879257202,-9.221927642822266
1766401374625577700,14.48957763671875,0.73476243019104,-3.3058884143829346,-9.203348159790039
1766401374635487500,14.499487548828125,0.7902305126190186,-3.337923526763916,-9.187176704406738
1766401374645497000,14.5094970703125,0.8350093364715576,-3.3535077571868896,-9.177534103393555
1766401374655537400,14.519537353515625,0.8760295510292053,-3.3508152961730957,-9.174695014953613
1766401374665547300,14.52954736328125,0.8905658721923828,-3.34824275970459,-9.174233436584473
1766401374675587600,14.539587646484375,0.886258065700531,-3.343730926513672,-9.17629623413086
1766401374685597200,14.54959716796875,0.8821619749069214,-3.347756862640381,-9.175222396850586
1766401374695607000,14.55960693359375,0.8712405562400818,-3.33577561378479,-9.180628776550293
1766401374705617000,14.569616943359375,0.8627358675003052,-3.3253986835479736,-9.185194969177246
1766401374725697300,14.589697265625,0.8764269351959229,-3.321451187133789,-9.185328483581543
1766401374735707100,14.59970703125,0.8828827142715454,-3.2955195903778076,-9.194045066833496
1766401374745747500,14.60974755859375,0.8876136541366577,-3.2424166202545166,-9.212453842163086
1766401374755757300,14.61975732421875,0.8631354570388794,-3.1569793224334717,-9.244397163391113
1766401374765767000,14.629766845703125,0.8449141383171082,-3.1242997646331787,-9.25717544555664
1766401374775807200,14.63980712890625,0.7929108142852783,-3.0857691764831543,-9.274682998657227
1766401374785817000,14.649817138671875,0.7336647510528564,-3.0403764247894287,-9.294528007507324
1766401374795887900,14.659887939453125,0.7041633129119873,-2.982863664627075,-9.315423011779785
1766401374805897500,14.6698974609375,0.6974247097969055,-2.9110703468322754,-9.338611602783203
1766401374835957500,14.69995751953125,0.691874623298645,-2.690326690673828,-9.40499210357666
1766401374845997600,14.70999755859375,0.6808646321296692,-2.6061851978302,-9.429455757141113
1766401374856007400,14.72000732421875,0.6796184778213501,-2.5685431957244873,-9.439867973327637
1766401374866047700,14.7300478515625,0.708495557308197,-2.471508741378784,-9.463619232177734
1766401374876057600,14.7400576171875,0.7420349717140198,-2.414090633392334,-9.475861549377441
1766401374886067200,14.750067138671875,0.7750740647315979,-2.3387885093688965,-9.492088317871094
1766401374896107500,14.760107421875,0.7838996648788452,-2.290217638015747,-9.50320053100586
1766401374946186800,14.810186767578125,0.9376724362373352,-1.7545452117919922,-9.60274600982666
1766401374956196600,14.820196533203125,0.9453791379928589,-1.6676210165023804,-9.617466926574707
1766401374966206500,14.83020654296875,0.9474334716796875,-1.5503990650177002,-9.636858940124512
1766401374976216000,14.840216064453125,0.9359881281852722,-1.4293022155761719,-9.656679153442383
