time,seconds_elapsed,z,y,x
1766402558165701600,-0.91629833984375,-33.36000061035156,15.719999313354492,-18.959999084472656
1766402558195731000,-0.88626904296875,-32.880001068115234,15.839999198913574,-18.420000076293945
1766402558205771300,-0.876228759765625,-32.57999801635742,15.420000076293945,-18.899999618530273
1766402558215780900,-0.86621923828125,-32.39999771118164,14.880000114440918,-19.31999969482422
1766402558225821200,-0.8561787109375,-32.279998779296875,14.519999504089355,-19.799999237060547
1766402558235800300,-0.84619970703125,-33.18000030517578,15.119999885559082,-19.799999237060547
1766402558245840600,-0.836159423828125,-32.39999771118164,15,-19.979999542236328
1766402558265860400,-0.8161396484375,-32.099998474121094,14.819999694824219,-19.559999465942383
1766402558275870000,-0.806130126953125,-32.34000015258789,14.880000114440918,-19.3799991607666
1766402558335959000,-0.746041015625,-31.079999923706055,14.9399995803833,-19.439998626708984
1766402558345969000,-0.736031005859375,-31.260000228881836,14.880000114440918,-19.799999237060547
1766402558355978800,-0.726021240234375,-31.67999839782715,15.779999732971191,-19.31999969482422
1766402558375998200,-0.706001708984375,-32.39999771118164,16.31999969482422,-19.31999969482422
1766402558386069000,-0.695930908203125,-31.85999870300293,15.839999198913574,-19.979999542236328
1766402558396139800,-0.685860107421875,-32.279998779296875,15.420000076293945,-20.100000381469727
1766402558426199600,-0.655800537109375,-31.439998626708984,14.699999809265137,-19.439998626708984
1766402558436240000,-0.645760009765625,-31.01999855041504,14.699999809265137,-18.84000015258789
1766402558456228900,-0.625771240234375,-30.35999870300293,14.699999809265137,-17.940000534057617
1766402558476279000,-0.605720947265625,-31.31999969482422,15.299999237060547,-18.65999984741211
1766402558486288600,-0.59571142578125,-32.57999801635742,15.420000076293945,-18.420000076293945
1766402558526358300,-0.555641845703125,-31.619998931884766,15.239999771118164,-18.479999542236328
1766402558536337700,-0.545662353515625,-31.920000076293945,15.359999656677246,-18.119998931884766
1766402558546347300,-0.53565283203125,-31.619998931884766,15.779999732971191,-18.35999870300293
1766402558556357000,-0.525642822265625,-31.439998626708984,15.65999984741211,-18.84000015258789
1766402558576407000,-0.505593017578125,-30.53999900817871,15.479999542236328,-18.35999870300293
1766402558586417000,-0.4955830078125,-31.139999389648438,15.299999237060547,-18.65999984741211
1766402558606436400,-0.475563720703125,-32.279998779296875,15.779999732971191,-19.079999923706055
1766402558616446200,-0.4655537109375,-32.81999969482422,15.719999313354492,-19.260000228881836
1766402558626456000,-0.4555439453125,-32.939998626708984,15.719999313354492,-18.600000381469727
1766402558636496100,-0.44550390625,-32.279998779296875,15.779999732971191,-18.719999313354492
1766402558646506000,-0.435493896484375,-32.15999984741211,15.779999732971191,-17.81999969482422
1766402558656515800,-0.425484130859375,-31.439998626708984,15.719999313354492,-17.520000457763672
1766402558666525400,-0.415474609375,-31.799999237060547,16.3799991607666,-17.639999389648438
1766402558676535300,-0.405464599609375,-31.559999465942383,16.260000228881836,-17.279998779296875
1766402558686575600,-0.39542431640625,-31.85999870300293,15.899999618530273,-18.35999870300293
1766402558696585500,-0.38541455078125,-32.70000076293945,15.899999618530273,-18.899999618530273
1766402558726614500,-0.355385498046875,-33.05999755859375,16.19999885559082,-18.779998779296875
1766402558736624400,-0.345375732421875,-32.34000015258789,15.65999984741211,-18.959999084472656
1766402558746664700,-0.335335205078125,-32.34000015258789,14.579999923706055,-19.3799991607666
1766402558756705000,-0.325294921875,-32.57999801635742,14.75999927520752,-19.559999465942383
1766402558766714600,-0.315285400390625,-32.63999938964844,15.119999885559082,-19.439998626708984
1766402558776724500,-0.305275634765625,-33.36000061035156,15,-19.5
1766402558896902700,-0.185097412109375,-32.099998474121094,15.65999984741211,-18.299999237060547
1766402558906943000,-0.17505712890625,-32.7599983215332,15.719999313354492,-19.020000457763672
1766402558916952800,-0.165047119140625,-32.15999984741211,15.719999313354492,-19.260000228881836
1766402558926962400,-0.15503759765625,-32.63999938964844,15.719999313354492,-18.65999984741211
1766402558936941800,-0.14505810546875,-32.52000045776367,15.719999313354492,-18.65999984741211
1766402558947012600,-0.1349873046875,-32.7599983215332,15.59999942779541,-18.299999237060547
1766402558977042000,-0.1049580078125,-32.52000045776367,15.65999984741211,-18.779998779296875
1766402559017142000,-0.06485791015625,-32.34000015258789,16.020000457763672,-18.899999618530273
1766402559037161500,-0.044838623046875,-31.67999839782715,16.079999923706055,-19.020000457763672
1766402559047171300,-0.03482861328125,-31.799999237060547,15.65999984741211,-19.19999885559082
1766402559057150500,-0.024849609375,-31.67999839782715,15.960000038146973,-19.3799991607666
1766402559067190800,-0.014809326171875,-31.799999237060547,16.260000228881836,-19.260000228881836
1766402559077200600,-0.00479931640625,-32.7599983215332,16.5,-18.959999084472656
1766402559087210200,0.005210205078125,-31.67999839782715,16.559999465942383,-18.719999313354492
1766402559097189600,0.015189697265625,-31.5,15.359999656677246,-19.020000457763672
1766402559107260400,0.025260498046875,-30.899999618530273,15.179999351501465,-18.84000015258789
1766402559117270300,0.035270263671875,-30.599998474121094,15.179999351501465,-18.53999900817871
1766402559127279900,0.04527978515625,-31.3799991607666,15.179999351501465,-18.18000030517578
1766402559167319000,0.085319091796875,-31.67999839782715,17.100000381469727,-18.959999084472656
1766402559177328600,0.09532861328125,-31.3799991607666,17.15999984741211,-19.19999885559082
1766402559187369000,0.105368896484375,-31.19999885559082,16.799999237060547,-19.5
1766402559197378800,0.11537890625,-31.559999465942383,16.979999542236328,-19.619998931884766
1766402559207388700,0.125388671875,-31.01999855041504,16.979999542236328,-19.739999771118164
1766402559217367800,0.135367919921875,-31.01999855041504,16.799999237060547,-19.799999237060547
1766402559227408100,0.145408203125,-30.53999900817871,16.979999542236328,-19.3799991607666
1766402559237418000,0.15541796875,-31.559999465942383,17.03999900817871,-19.739999771118164
1766402559257437400,0.1754375,-31.559999465942383,17.219999313354492,-19.68000030517578
1766402559267477800,0.185477783203125,-32.099998474121094,17.579999923706055,-19.739999771118164
1766402559277487400,0.1954873046875,-31.139999389648438,17.8799991607666,-19.260000228881836
1766402559287497200,0.205497314453125,-30.35999870300293,18.420000076293945,-18.53999900817871
1766402559307516700,0.2255166015625,-30.479999542236328,18.899999618530273,-18.719999313354492
1766402559317526500,0.235526611328125,-30.65999984741211,19.079999923706055,-18.65999984741211
1766402559327536400,0.245536376953125,-30.899999618530273,19.079999923706055,-19.739999771118164
1766402559337546000,0.2555458984375,-31.3799991607666,18.959999084472656,-19.68000030517578
1766402559357565700,0.275565673828125,-30.599998474121094,19.799999237060547,-19.260000228881836
1766402559367605800,0.285605712890625,-30.779998779296875,19.799999237060547,-18.959999084472656
1766402559377615600,0.29561572265625,-30.35999870300293,20.459999084472656,-18.299999237060547
1766402559387686400,0.305686279296875,-31.85999870300293,20.81999969482422,-18.65999984741211
1766402559397696300,0.3156962890625,-31.3799991607666,19.979999542236328,-18.779998779296875
1766402559407705900,0.325705810546875,-31.3799991607666,20.520000457763672,-18.479999542236328
1766402559417685200,0.335685302734375,-30.84000015258789,20.760000228881836,-19.139999389648438
1766402559427725600,0.3457255859375,-29.939998626708984,20.939998626708984,-19.020000457763672
1766402559437735200,0.355735107421875,-30.059999465942383,22.19999885559082,-18.779998779296875
1766402559447745000,0.3657451171875,-29.51999855041504,22.079999923706055,-19.020000457763672
1766402559487845000,0.40584521484375,-27.84000015258789,22.979999542236328,-17.940000534057617
1766402559497855000,0.41585498046875,-28.31999969482422,23.03999900817871,-18.299999237060547
1766402559507834000,0.425834228515625,-29.099998474121094,23.51999855041504,-18.420000076293945
1766402559517844000,0.435843994140625,-28.439998626708984,23.03999900817871,-18.420000076293945
1766402559527853600,0.445853515625,-29.15999984741211,23.100000381469727,-18.059999465942383
1766402559537863400,0.455863525390625,-28.920000076293945,23.399999618530273,-18.35999870300293
1766402559547903700,0.46590380859375,-28.85999870300293,23.279998779296875,-18.35999870300293
1766402559577933000,0.49593310546875,-28.979999542236328,23.579999923706055,-18.239999771118164
1766402559587973400,0.505973388671875,-29.34000015258789,24,-17.69999885559082
1766402559598013700,0.516013671875,-29.03999900817871,23.459999084472656,-18
1766402559608023300,0.526023193359375,-28.85999870300293,24,-18.479999542236328
1766402559618002700,0.536002685546875,-28.139999389648438,23.8799991607666,-18.35999870300293
1766402559628042800,0.546042724609375,-27.420000076293945,23.51999855041504,-18.35999870300293
1766402559638052600,0.556052490234375,-25.85999870300293,24.239999771118164,-18.299999237060547
1766402559648062500,0.5660625,-26.099998474121094,24.779998779296875,-17.8799991607666
1766402559668082000,0.58608203125,-26.219999313354492,26.099998474121094,-18.299999237060547
1766402559678091800,0.596091796875,-27.53999900817871,26.15999984741211,-18.299999237060547
1766402559688101400,0.606101318359375,-27.35999870300293,26.459999084472656,-17.760000228881836
1766402559698111200,0.616111328125,-27.35999870300293,25.799999237060547,-18.059999465942383
1766402559708151600,0.626151611328125,-27.059999465942383,26.15999984741211,-17.760000228881836
1766402559718191900,0.63619189453125,-26.579999923706055,26.8799991607666,-17.940000534057617
1766402559728201500,0.646201416015625,-26.219999313354492,27.18000030517578,-17.940000534057617
1766402559738211300,0.65621142578125,-25.559999465942383,28.139999389648438,-17.15999984741211
1766402559748221200,0.66622119140625,-25.01999855041504,28.5,-16.85999870300293
1766402559758230800,0.676230712890625,-24.299999237060547,29.219999313354492,-16.31999969482422
1766402559768271000,0.68627099609375,-23.8799991607666,29.51999855041504,-15.839999198913574
1766402559788382200,0.70638232421875,-24.719999313354492,30.059999465942383,-16.68000030517578
1766402559798392000,0.71639208984375,-25.139999389648438,29.939998626708984,-16.260000228881836
1766402559808401700,0.726401611328125,-25.439998626708984,30.17999839782715,-16.85999870300293
1766402559818350600,0.7363505859375,-24.84000015258789,30.420000076293945,-16.440000534057617
1766402559828390700,0.746390625,-24.959999084472656,30.17999839782715,-15.899999618530273
1766402559838431000,0.756430908203125,-24.600000381469727,30.17999839782715,-16.440000534057617
1766402559848440800,0.76644091796875,-24.53999900817871,30.65999984741211,-16.19999885559082
1766402559858450700,0.77645068359375,-25.01999855041504,31.079999923706055,-16.619998931884766
1766402559888541000,0.806541015625,-24.299999237060547,31.739999771118164,-15.239999771118164
1766402559898581200,0.816581298828125,-23.69999885559082,31.5,-15.539999961853027
1766402559908590800,0.8265908203125,-22.979999542236328,31.67999839782715,-15.719999313354492
1766402559918600700,0.8366005859375,-22.799999237060547,31.619998931884766,-16.079999923706055
1766402559928610600,0.846610595703125,-23.15999984741211,31.739999771118164,-16.31999969482422
1766402559938620200,0.8566201171875,-23.459999084472656,32.57999801635742,-15.539999961853027
1766402559948630000,0.866630126953125,-23.279998779296875,32.81999969482422,-15.179999351501465
1766402559958639900,0.876639892578125,-23.15999984741211,32.880001068115234,-14.9399995803833
1766402559998709200,0.916709228515625,-20.520000457763672,33.779998779296875,-14.15999984741211
1766402560018820400,0.9368203125,-19.3799991607666,34.439998626708984,-14.279999732971191
1766402560028830200,0.946830322265625,-18.779998779296875,34.619998931884766,-14.519999504089355
1766402560038840000,0.956840087890625,-17.940000534057617,34.86000061035156,-14.639999389648438
1766402560048880400,0.96688037109375,-17.639999389648438,34.79999923706055,-14.9399995803833
1766402560058890000,0.976889892578125,-16.3799991607666,35.63999938964844,-14.639999389648438
1766402560068899800,0.98689990234375,-16.139999389648438,36.29999923706055,-13.799999237060547
1766402560088949800,1.00694970703125,-15.839999198913574,37.55999755859375,-13.5
1766402560098959600,1.016959716796875,-16.020000457763672,37.31999969482422,-13.799999237060547
1766402560108969500,1.026969482421875,-15.119999885559082,37.86000061035156,-13.979999542236328
1766402560118979000,1.03697900390625,-14.639999389648438,38.52000045776367,-13.619999885559082
1766402560129019400,1.047019287109375,-13.979999542236328,38.81999969482422,-13.199999809265137
1766402560139059700,1.057059814453125,-13.4399995803833,39.47999954223633,-12.59999942779541
1766402560149069600,1.067069580078125,-12.960000038146973,39.41999816894531,-12.59999942779541
1766402560159079200,1.0770791015625,-11.219999313354492,39.18000030517578,-12.119999885559082
1766402560169119500,1.087119384765625,-10.079999923706055,39.779998779296875,-11.819999694824219
1766402560189169700,1.107169677734375,-7.859999656677246,40.619998931884766,-10.5
1766402560209219600,1.127219482421875,-5.940000057220459,42.18000030517578,-9.059999465942383
1766402560219229400,1.1372294921875,-4.799999713897705,42.05999755859375,-8.399999618530273
1766402560229269800,1.147269775390625,-3.359999895095825,42.23999786376953,-7.37999963760376
1766402560239279400,1.157279296875,-1.5,42.05999755859375,-6.179999828338623
1766402560249319700,1.167319580078125,-0.5999999642372131,41.939998626708984,-4.619999885559082
1766402560259390500,1.177390380859375,1.3199999332427979,42.36000061035156,-3.240000009536743
1766402560269400300,1.187400390625,2.2799999713897705,42.47999954223633,-1.6200000047683716
1766402560309439200,1.227439208984375,2.1599998474121094,41.279998779296875,4.019999980926514
1766402560319449000,1.237448974609375,1.0799999237060547,40.37999725341797,5.039999961853027
1766402560329459000,1.247458984375,0.35999998450279236,39.71999740600586,6.539999961853027
1766402560339468500,1.257468505859375,-1.0799999237060547,39,8.039999961853027
1766402560349478400,1.267478515625,-2.5799999237060547,38.459999084472656,9.719999313354492
1766402560359488300,1.27748828125,-2.700000047683716,38.34000015258789,12.119999885559082
1766402560369528600,1.287528564453125,-2.879999876022339,37.2599983215332,13.679999351501465
1766402560429678600,1.3476787109375,1.3199999332427979,34.73999786376953,18.35999870300293
1766402560459799600,1.377799560546875,2.2200000286102295,34.07999801635742,18.18000030517578
1766402560519858200,1.437858154296875,3,34.07999801635742,18.059999465942383
1766402560549918000,1.46791796875,2.6399998664855957,34.07999801635742,17.760000228881836
1766402560580038700,1.49803857421875,2.3999998569488525,34.55999755859375,16.979999542236328
1766402560590048500,1.508048583984375,2.3999998569488525,34.619998931884766,16.85999870300293
1766402560600058400,1.518058349609375,2.759999990463257,33.540000915527344,16.979999542236328
1766402560620138800,1.538138671875,3.4800000190734863,33.41999816894531,18.18000030517578
1766402560660178000,1.578177978515625,3.240000009536743,34.13999938964844,18.059999465942383
1766402560690268200,1.60826806640625,3.240000009536743,33.41999816894531,18.239999771118164
1766402560700278000,1.618278076171875,2.879999876022339,33.23999786376953,18.53999900817871
1766402560710288000,1.628287841796875,2.879999876022339,33.540000915527344,18.719999313354492
1766402560720297500,1.63829736328125,2.93999981880188,33.36000061035156,18
1766402560740317000,1.65831689453125,3.8399999141693115,33.599998474121094,17.579999923706055
1766402560750326800,1.668326904296875,4.259999752044678,33.29999923706055,17.639999389648438
1766402560760336600,1.678336669921875,4.980000019073486,33.65999984741211,18.719999313354492
1766402560770377000,1.688376953125,5.339999675750732,33,19.439998626708984
1766402560780386600,1.698386474609375,5.759999752044678,33.47999954223633,20.15999984741211
1766402560800406300,1.71840625,4.619999885559082,33.540000915527344,19.979999542236328
1766402560810446300,1.7284462890625,4.139999866485596,34.02000045776367,19.260000228881836
1766402560850516000,1.768515869140625,5.759999752044678,33.71999740600586,18.84000015258789
1766402560860556300,1.778556396484375,5.460000038146973,33.599998474121094,19.439998626708984
1766402560870596600,1.7885966796875,5.099999904632568,32.880001068115234,19.139999389648438
1766402560880637000,1.798636962890625,6,33.36000061035156,19.5
1766402560890677200,1.80867724609375,6.539999961853027,33.119998931884766,19.85999870300293
1766402560900656400,1.818656494140625,7.319999694824219,32.880001068115234,19.920000076293945
1766402560910696700,1.82869677734375,7.5,32.63999938964844,19.439998626708984
1766402560950857700,1.868857666015625,6.420000076293945,33.84000015258789,19.68000030517578
1766402560960867600,1.87886767578125,7.079999923706055,34.07999801635742,20.03999900817871
1766402560970877400,1.88887744140625,6.779999732971191,34.20000076293945,19.559999465942383
1766402560980917500,1.89891748046875,7.37999963760376,33.89999771118164,20.100000381469727
1766402560990957800,1.908957763671875,8.399999618530273,33.89999771118164,19.920000076293945
1766402561000967700,1.9189677734375,8.819999694824219,33.599998474121094,19.85999870300293
1766402561011038500,1.92903857421875,9.359999656677246,33.36000061035156,20.639999389648438
1766402561021048300,1.93904833984375,8.399999618530273,33.599998474121094,20.69999885559082
1766402561031088600,1.949088623046875,8.15999984741211,33.29999923706055,20.579999923706055
1766402561071188700,1.989188720703125,7.559999942779541,32.7599983215332,19.920000076293945
1766402561081228800,1.999228759765625,7.319999694824219,32.70000076293945,20.15999984741211
1766402561091269000,2.00926904296875,7.739999771118164,32.63999938964844,20.399999618530273
1766402561101309400,2.019309326171875,8.279999732971191,32.279998779296875,20.279998779296875
1766402561111349800,2.029349853515625,7.980000019073486,32.099998474121094,20.760000228881836
1766402561121359600,2.039359619140625,7.980000019073486,32.15999984741211,21.299999237060547
1766402561141440000,2.05943994140625,5.87999963760376,32.459999084472656,21
1766402561161490200,2.079490234375,5.579999923706055,33.119998931884766,20.399999618530273
1766402561171561000,2.08956103515625,6.420000076293945,33.540000915527344,20.69999885559082
1766402561181570800,2.09957080078125,7.739999771118164,33.540000915527344,20.279998779296875
1766402561191611000,2.10961083984375,7.679999828338623,33.29999923706055,20.520000457763672
1766402561201651200,2.119651123046875,8.639999389648438,33.29999923706055,20.100000381469727
1766402561211661000,2.1296611328125,7.440000057220459,33.05999755859375,20.219999313354492
1766402561221701400,2.139701416015625,6.119999885559082,32.880001068115234,20.15999984741211
1766402561251761200,2.16976123046875,5.940000057220459,33,20.639999389648438
1766402561261832000,2.17983203125,5.87999963760376,33.05999755859375,20.279998779296875
1766402561271841800,2.189841796875,5.87999963760376,34.2599983215332,20.579999923706055
1766402561281851400,2.199851318359375,6.179999828338623,34.02000045776367,20.100000381469727
1766402561301901600,2.219901611328125,8.34000015258789,34.02000045776367,20.34000015258789
1766402561311911200,2.2299111328125,7.559999942779541,33.65999984741211,20.8799991607666
1766402561321921000,2.239921142578125,7.559999942779541,33.540000915527344,20.8799991607666
1766402561331931000,2.249930908203125,6.239999771118164,33.119998931884766,20.760000228881836
1766402561341940500,2.2599404296875,5.400000095367432,33.36000061035156,20.81999969482422
1766402561361990700,2.27999072265625,6.179999828338623,32.939998626708984,19.979999542236328
1766402561372031000,2.290031005859375,7.440000057220459,33.23999786376953,19.979999542236328
1766402561382040600,2.30004052734375,7.319999694824219,33.36000061035156,19.979999542236328
1766402561392081000,2.310080810546875,6.839999675750732,33.959999084472656,20.399999618530273
1766402561402121200,2.320121337890625,6.420000076293945,34.13999938964844,21.119998931884766
1766402561412161500,2.33016162109375,5.819999694824219,33.65999984741211,21.059999465942383
1766402561422171400,2.34017138671875,5.579999923706055,33.29999923706055,21
1766402561432181000,2.350180908203125,6.179999828338623,33,20.760000228881836
1766402561472220200,2.39022021484375,6.239999771118164,33.29999923706055,19.799999237060547
1766402561482229800,2.400229736328125,6.71999979019165,33.47999954223633,20.520000457763672
1766402561492239600,2.410239501953125,6.179999828338623,32.939998626708984,20.399999618530273
1766402561502249500,2.42024951171875,5.579999923706055,33.23999786376953,20.399999618530273
1766402561512259000,2.430259033203125,5.279999732971191,33.41999816894531,20.579999923706055
1766402561522299400,2.44029931640625,5.400000095367432,33.959999084472656,19.799999237060547
1766402561532339700,2.450339599609375,5.699999809265137,34.13999938964844,19.920000076293945
1766402561572409300,2.490409423828125,6.420000076293945,33.599998474121094,20.639999389648438
1766402561582388500,2.500388427734375,6.899999618530273,33.36000061035156,21.18000030517578
1766402561592459300,2.510459228515625,6.71999979019165,33.05999755859375,20.81999969482422
1766402561612448500,2.530448486328125,7.679999828338623,33,20.279998779296875
1766402561622458000,2.5404580078125,7.679999828338623,33.36000061035156,19.559999465942383
1766402561632529000,2.55052880859375,7.980000019073486,33.84000015258789,19.020000457763672
1766402561652548600,2.570548583984375,7.019999980926514,34.5,19.020000457763672
1766402561662558200,2.58055810546875,7.319999694824219,34.55999755859375,19.139999389648438
1766402561672629000,2.59062890625,7.37999963760376,34.55999755859375,19.260000228881836
1766402561682638800,2.600638916015625,8.279999732971191,33.779998779296875,19.079999923706055
1766402561692679200,2.61067919921875,9.119999885559082,33.779998779296875,19.020000457763672
1766402561712698600,2.63069873046875,7.679999828338623,32.880001068115234,19.079999923706055
1766402561722708500,2.64070849609375,6.71999979019165,33.18000030517578,18.899999618530273
1766402561732718000,2.650718017578125,6.539999961853027,33.65999984741211,19.739999771118164
1766402561742728000,2.66072802734375,6.599999904632568,33.65999984741211,19.619998931884766
1766402561762747400,2.680747314453125,8.09999942779541,34.2599983215332,20.279998779296875
1766402561772787700,2.69078759765625,8.760000228881836,33.47999954223633,19.5
1766402561782797600,2.700797607421875,9.179999351501465,33.71999740600586,19.920000076293945
1766402561792838000,2.710837890625,9.359999656677246,33.05999755859375,19.439998626708984
1766402561802847500,2.720847412109375,8.460000038146973,33.36000061035156,18.959999084472656
1766402561812857300,2.730857421875,7.37999963760376,34.439998626708984,19.439998626708984
1766402561822928100,2.74092822265625,6.71999979019165,33.89999771118164,18.959999084472656
1766402561832938000,2.75093798828125,6.119999885559082,34.02000045776367,19.559999465942383
1766402561842978000,2.76097802734375,6.059999942779541,33.89999771118164,19.559999465942383
1766402561882986800,2.80098681640625,6.960000038146973,33.540000915527344,19.920000076293945
1766402561893027000,2.811027099609375,6.659999847412109,33.779998779296875,19.31999969482422
1766402561903006200,2.821006103515625,6.359999656677246,34.20000076293945,19.739999771118164
1766402561913077000,2.831076904296875,6.059999942779541,33.47999954223633,19.559999465942383
1766402561923056400,2.841056396484375,6.119999885559082,33.599998474121094,19.31999969482422
1766402561933066000,2.85106591796875,6.179999828338623,32.81999969482422,19.619998931884766
1766402561943075800,2.861075927734375,7.199999809265137,32.939998626708984,19.85999870300293
1766402561983084300,2.901084228515625,8.220000267028809,33.65999984741211,19.5
1766402562003104000,2.92110400390625,8.09999942779541,34.55999755859375,18.65999984741211
1766402562013113600,2.931113525390625,8.279999732971191,34.380001068115234,18.65999984741211
1766402562023123500,2.94112353515625,8.579999923706055,34.73999786376953,19.020000457763672
1766402562033133300,2.95113330078125,9.239999771118164,33.65999984741211,18.719999313354492
1766402562043143000,2.961142822265625,9.779999732971191,34.13999938964844,19.079999923706055
1766402562053152800,2.97115283203125,10.739999771118164,34.20000076293945,18.65999984741211
1766402562083182000,3.00118212890625,10.260000228881836,35.040000915527344,17.579999923706055
1766402562093222400,3.011222412109375,10.4399995803833,35.459999084472656,18.059999465942383
1766402562103201500,3.021201416015625,10.5,35.57999801635742,17.81999969482422
1766402562113241900,3.031241943359375,10.619999885559082,35.39999771118164,17.69999885559082
1766402562123282200,3.0412822265625,11.75999927520752,35.15999984741211,18.239999771118164
1766402562133291800,3.051291748046875,11.699999809265137,34.86000061035156,17.459999084472656
1766402562143301600,3.061301513671875,13.079999923706055,34.86000061035156,17.520000457763672
1766402562153311500,3.0713115234375,14.039999961853027,34.73999786376953,16.85999870300293
1766402562173331000,3.0913310546875,14.279999732971191,35.459999084472656,16.260000228881836
1766402562203390700,3.121390625,14.460000038146973,35.21999740600586,14.819999694824219
1766402562213400600,3.131400634765625,15.479999542236328,35.040000915527344,14.279999732971191
1766402562223410200,3.14141015625,16.31999969482422,35.099998474121094,14.460000038146973
1766402562233450500,3.151450439453125,16.799999237060547,35.459999084472656,14.460000038146973
1766402562243460400,3.16146044921875,17.760000228881836,35.459999084472656,13.739999771118164
1766402562253500700,3.171500732421875,17.34000015258789,35.57999801635742,13.799999237060547
1766402562283560400,3.201560546875,19.619998931884766,34.380001068115234,12.65999984741211
1766402562293600800,3.211600830078125,20.69999885559082,34.439998626708984,11.880000114440918
1766402562303610600,3.221610595703125,21.239999771118164,34.68000030517578,11.219999313354492
1766402562313620200,3.2316201171875,20.8799991607666,34.91999816894531,10.739999771118164
1766402562323630000,3.241630126953125,21.479999542236328,35.459999084472656,10.800000190734863
1766402562333639700,3.2516396484375,21.65999984741211,35.099998474121094,10.920000076293945
1766402562343649500,3.2616494140625,21.899999618530273,34.55999755859375,11.09999942779541
1766402562353659400,3.271659423828125,22.31999969482422,34.439998626708984,10.380000114440918
1766402562363669000,3.2816689453125,22.799999237060547,34.380001068115234,10.019999504089355
1766402562373709300,3.291709228515625,22.85999870300293,34.380001068115234,9.239999771118164
1766402562383688700,3.301688720703125,22.739999771118164,35.15999984741211,9.239999771118164
1766402562403677700,3.321677734375,22.439998626708984,36,9.239999771118164
1766402562443777800,3.36177783203125,25.01999855041504,35.39999771118164,8.399999618530273
1766402562453848600,3.3718486328125,25.01999855041504,35.279998779296875,7.980000019073486
1766402562463858200,3.381858154296875,25.19999885559082,35.7599983215332,7.919999599456787
1766402562483878000,3.4018779296875,23.8799991607666,36.47999954223633,7.859999656677246
1766402562503927800,3.421927734375,22.979999542236328,36.89999771118164,7.799999713897705
1766402562513907200,3.4319072265625,22.85999870300293,36.84000015258789,8.09999942779541
1766402562523916800,3.441916748046875,23.219999313354492,36.65999984741211,8.519999504089355
1766402562533926700,3.4519267578125,24.239999771118164,36.05999755859375,9.539999961853027
1766402562543936500,3.4619365234375,25.079999923706055,35.39999771118164,9.84000015258789
1766402562553946000,3.471946044921875,26.34000015258789,35.15999984741211,10.260000228881836
1766402562563956000,3.4819560546875,27.18000030517578,34.86000061035156,10.4399995803833
1766402562594015700,3.512015625,26.459999084472656,35.040000915527344,9.719999313354492
1766402562604056000,3.52205615234375,26.579999923706055,34.91999816894531,9.899999618530273
1766402562614096400,3.532096435546875,27.35999870300293,34.91999816894531,10.079999923706055
1766402562624075500,3.542075439453125,27.959999084472656,35.15999984741211,9.899999618530273
1766402562634085400,3.55208544921875,28.68000030517578,34.91999816894531,10.800000190734863
1766402562644095200,3.56209521484375,28.920000076293945,35.040000915527344,10.979999542236328
1766402562654166000,3.572166015625,29.51999855041504,34.86000061035156,11.460000038146973
1766402562664175600,3.582175537109375,29.81999969482422,34.2599983215332,12.59999942779541
1766402562674185500,3.592185546875,29.15999984741211,34.07999801635742,12.179999351501465
1766402562704214800,3.62221484375,28.559999465942383,32.70000076293945,11.09999942779541
1766402562724234200,3.642234130859375,30.35999870300293,32.15999984741211,11.460000038146973
1766402562734274600,3.652274658203125,30.17999839782715,31.67999839782715,11.75999927520752
1766402562744284400,3.662284423828125,30.53999900817871,31.5,12.239999771118164
1766402562754294000,3.6722939453125,30.420000076293945,31.260000228881836,12.779999732971191
1766402562764304000,3.682303955078125,30.719999313354492,30.420000076293945,12.179999351501465
1766402562774344200,3.69234423828125,31.739999771118164,30.059999465942383,12.719999313354492
1766402562814413800,3.732413818359375,34.439998626708984,28.31999969482422,15.179999351501465
1766402562824393000,3.74239306640625,34.07999801635742,27.779998779296875,16.079999923706055
1766402562834433300,3.752433349609375,33.36000061035156,27.119998931884766,16.139999389648438
1766402562844473600,3.7624736328125,33.119998931884766,26.8799991607666,16.3799991607666
1766402562854483200,3.772483154296875,32.939998626708984,26.34000015258789,17.219999313354492
1766402562864493000,3.7824931640625,32.57999801635742,25.559999465942383,17.219999313354492
1766402562874503000,3.7925029296875,33.959999084472656,24.420000076293945,17.639999389648438
1766402562914572300,3.832572265625,36.29999923706055,21.959999084472656,17.579999923706055
1766402562934622500,3.85262255859375,35.63999938964844,21.059999465942383,17.81999969482422
1766402562944601600,3.8626015625,34.55999755859375,21.119998931884766,18.719999313354492
1766402562954642000,3.872641845703125,35.459999084472656,20.760000228881836,19.139999389648438
1766402562964682200,3.88268212890625,36.23999786376953,20.760000228881836,19.19999885559082
1766402563014761700,3.93276171875,37.619998931884766,19.020000457763672,18.959999084472656
1766402563024771300,3.942771240234375,37.380001068115234,18.479999542236328,18.899999618530273
1766402563034781200,3.95278125,36.05999755859375,18.53999900817871,19.079999923706055
1766402563044791000,3.962791015625,36.65999984741211,17.81999969482422,19.079999923706055
1766402563054800600,3.972800537109375,36.84000015258789,17.579999923706055,19.3799991607666
1766402563064810500,3.982810546875,36.779998779296875,18,19.439998626708984
1766402563074820000,3.992820068359375,38.099998474121094,18.18000030517578,19.3799991607666
1766402563084860400,4.0028603515625,37.91999816894531,18,18.779998779296875
1766402563134909400,4.052909423828125,37.73999786376953,19.31999969482422,17.399999618530273
1766402563144980200,4.062980224609375,37.68000030517578,19.5,16.920000076293945
1766402563154989800,4.07298974609375,37.2599983215332,19.85999870300293,16.739999771118164
1766402563164999700,4.082999755859375,38.279998779296875,19.920000076293945,17.03999900817871
1766402563175070500,4.093070556640625,38.459999084472656,19.68000030517578,16.920000076293945
1766402563185049600,4.103049560546875,37.91999816894531,20.15999984741211,17.15999984741211
1766402563215109600,4.133109619140625,36.540000915527344,21.35999870300293,16.799999237060547
1766402563225119200,4.143119140625,36.41999816894531,21.65999984741211,17.03999900817871
1766402563235129000,4.153129150390625,36.84000015258789,21.35999870300293,16.5
1766402563245108200,4.163108154296875,36.599998474121094,21.959999084472656,16.079999923706055
1766402563255148500,4.1731484375,36,22.559999465942383,15.839999198913574
1766402563265158400,4.183158447265625,36,22.979999542236328,15.479999542236328
1766402563275198700,4.19319873046875,36.29999923706055,23.579999923706055,15.779999732971191
1766402563285208300,4.203208251953125,36.23999786376953,23.399999618530273,15.899999618530273
1766402563335257300,4.25325732421875,35.52000045776367,24.65999984741211,13.4399995803833
1766402563345267000,4.263266845703125,35.279998779296875,24.600000381469727,13.559999465942383
1766402563355337700,4.273337646484375,35.15999984741211,24.420000076293945,13.380000114440918
1766402563365347600,4.28334765625,34.5,24.779998779296875,13.739999771118164
1766402563375388000,4.293387939453125,34.73999786376953,25.19999885559082,13.859999656677246
1766402563385428200,4.30342822265625,35.39999771118164,25.5,13.559999465942383
1766402563395437800,4.313437744140625,36.119998931884766,25.739999771118164,14.09999942779541
1766402563415426800,4.3334267578125,36.779998779296875,25.619998931884766,14.699999809265137
1766402563425406200,4.34340625,36.119998931884766,25.619998931884766,15.119999885559082
1766402563435446500,4.353446533203125,35.63999938964844,25.979999542236328,14.880000114440918
1766402563445456100,4.3634560546875,35.34000015258789,26.03999900817871,14.819999694824219
1766402563455466000,4.373466064453125,34.619998931884766,25.68000030517578,14.219999313354492
1766402563465475800,4.383475830078125,35.15999984741211,25.439998626708984,14.219999313354492
1766402563475485400,4.3934853515625,35.15999984741211,24.899999618530273,14.399999618530273
1766402563485495300,4.403495361328125,34.68000030517578,24.65999984741211,15.059999465942383
1766402563495535600,4.41353564453125,34.68000030517578,25.139999389648438,15.59999942779541
1766402563505545200,4.423545166015625,33.84000015258789,25.19999885559082,15.779999732971191
1766402563535544000,4.4535439453125,34.02000045776367,25.19999885559082,15.299999237060547
1766402563545554000,4.463553955078125,34.380001068115234,25.619998931884766,14.9399995803833
1766402563555624700,4.473624755859375,34.79999923706055,25.799999237060547,15.65999984741211
1766402563565665000,4.4836650390625,35.81999969482422,25.799999237060547,16.020000457763672
1766402563575705300,4.493705322265625,36.29999923706055,25.260000228881836,16.19999885559082
1766402563585715000,4.50371484375,36.959999084472656,25.3799991607666,16.739999771118164
1766402563595724800,4.513724853515625,36.47999954223633,25.260000228881836,16.440000534057617
1766402563605734400,4.523734375,35.57999801635742,25.139999389648438,16.3799991607666
1766402563635794400,4.55379443359375,34.97999954223633,24.239999771118164,16.5
1766402563645773600,4.563773681640625,35.279998779296875,23.8799991607666,16.19999885559082
1766402563655783400,4.573783447265625,34.07999801635742,23.760000228881836,15.899999618530273
1766402563665793000,4.58379296875,34.02000045776367,23.399999618530273,15.359999656677246
1766402563675803000,4.593802978515625,34.97999954223633,23.399999618530273,14.9399995803833
1766402563685812700,4.603812744140625,35.040000915527344,24.299999237060547,15.359999656677246
1766402563695822300,4.613822265625,35.459999084472656,24.779998779296875,15.779999732971191
1766402563705801700,4.6238017578125,35.099998474121094,25.19999885559082,16.559999465942383
1766402563715811300,4.633811279296875,34.86000061035156,25.079999923706055,16.739999771118164
1766402563735831000,4.6538310546875,36.05999755859375,23.100000381469727,15.719999313354492
1766402563755881000,4.673880859375,37.13999938964844,22.739999771118164,15.779999732971191
1766402563765890800,4.683890869140625,36.71999740600586,23.639999389648438,16.440000534057617
1766402563775900400,4.693900390625,36.23999786376953,24.239999771118164,16.979999542236328
1766402563785910300,4.70391015625,36.65999984741211,24.119998931884766,17.219999313354492
1766402563805929700,4.7239296875,36.599998474121094,23.760000228881836,16.68000030517578
1766402563815939600,4.733939697265625,37.31999969482422,23.579999923706055,16.31999969482422
1766402563825949400,4.743949462890625,38.040000915527344,23.459999084472656,16.440000534057617
1766402563866080000,4.784080078125,36.65999984741211,23.279998779296875,16.31999969482422
1766402563876089900,4.79408984375,36.47999954223633,23.459999084472656,16.260000228881836
1766402563886099500,4.804099365234375,37.02000045776367,22.799999237060547,15.539999961853027
1766402563896109300,4.814109375,36,22.799999237060547,15.719999313354492
1766402563906088400,4.82408837890625,35.70000076293945,22.799999237060547,15.59999942779541
1766402563916098300,4.834098388671875,35.70000076293945,22.85999870300293,15.479999542236328
1766402563926138600,4.844138671875,36.18000030517578,23.399999618530273,15.779999732971191
1766402563956198400,4.874198486328125,37.02000045776367,23.639999389648438,16.68000030517578
1766402563976217900,4.8942177734375,38.040000915527344,24.119998931884766,16.85999870300293
1766402563986227700,4.904227783203125,37.73999786376953,23.399999618530273,16.440000534057617
1766402563996237600,4.914237548828125,37.13999938964844,23.81999969482422,16.5
1766402564006247200,4.9242470703125,36.65999984741211,23.100000381469727,15.899999618530273
1766402564016287500,4.93428759765625,36.23999786376953,23.34000015258789,15.719999313354492
1766402564026266600,4.9442666015625,36.599998474121094,23.219999313354492,15.59999942779541
1766402564036307000,4.954306884765625,37.5,23.51999855041504,15.59999942779541
1766402564066366700,4.98436669921875,37.20000076293945,23.639999389648438,14.579999923706055
1766402564076376600,4.99437646484375,37.2599983215332,23.579999923706055,15.059999465942383
1766402564086386400,5.004386474609375,37.13999938964844,23.760000228881836,16.079999923706055
1766402564096426800,5.0144267578125,37.91999816894531,23.8799991607666,16.260000228881836
1766402564106466800,5.024466796875,37.86000061035156,23.8799991607666,16.619998931884766
1766402564116476700,5.0344765625,38.279998779296875,23.279998779296875,16.260000228881836
1766402564126486500,5.044486572265625,37.91999816894531,23.03999900817871,15.59999942779541
1766402564136496000,5.05449609375,37.13999938964844,22.799999237060547,15.59999942779541
1766402564146506000,5.064506103515625,37.02000045776367,22.3799991607666,15.59999942779541
1766402564166556200,5.08455615234375,36.71999740600586,22.799999237060547,15.239999771118164
1766402564186606000,5.104606201171875,36.47999954223633,23.219999313354492,15.59999942779541
1766402564196646400,5.114646484375,36.65999984741211,23.34000015258789,15.839999198913574
1766402564206717200,5.12471728515625,37.31999969482422,22.979999542236328,16.3799991607666
1766402564216696300,5.1346962890625,37.55999755859375,23.34000015258789,16.440000534057617
1766402564226767400,5.144767333984375,38.34000015258789,23.8799991607666,16.619998931884766
1766402564236838100,5.154838134765625,38.34000015258789,23.69999885559082,15.960000038146973
1766402564246847700,5.16484765625,38.21999740600586,23.579999923706055,15.539999961853027
1766402564266928400,5.184928466796875,37.439998626708984,22.68000030517578,14.399999618530273
1766402564276938200,5.194938232421875,36.779998779296875,22.559999465942383,14.699999809265137
1766402564286947800,5.20494775390625,36.05999755859375,22.85999870300293,15.059999465942383
1766402564297018600,5.2150185546875,35.63999938964844,23.03999900817871,15.960000038146973
1766402564307028500,5.225028564453125,35.15999984741211,22.799999237060547,16.3799991607666
1766402564317038300,5.235038330078125,35.939998626708984,23.279998779296875,16.5
1766402564327017500,5.245017578125,36.540000915527344,23.760000228881836,17.15999984741211
1766402564337057800,5.255057861328125,37.73999786376953,24.119998931884766,16.85999870300293
1766402564347067600,5.265067626953125,38.459999084472656,23.69999885559082,16.799999237060547
1766402564357077200,5.2750771484375,38.15999984741211,23.51999855041504,16.920000076293945
1766402564387106600,5.3051064453125,36.47999954223633,23.459999084472656,16.31999969482422
1766402564397147000,5.31514697265625,36.18000030517578,22.979999542236328,15.960000038146973
1766402564407187200,5.325187255859375,36.89999771118164,23.100000381469727,16.739999771118164
1766402564417227500,5.3352275390625,37.5,23.03999900817871,16.619998931884766
1766402564427237000,5.345237060546875,37.20000076293945,22.979999542236328,16.260000228881836
1766402564437247000,5.3552470703125,37.619998931884766,23.51999855041504,16.799999237060547
1766402564447256800,5.3652568359375,37.2599983215332,22.68000030517578,15.899999618530273
1766402564457266400,5.375266357421875,37.20000076293945,22.139999389648438,15.839999198913574
1766402564487265300,5.405265380859375,38.39999771118164,22.260000228881836,16.139999389648438
1766402564497336000,5.415336181640625,37.73999786376953,22.5,16.079999923706055
1766402564507346000,5.425345947265625,36.779998779296875,22.920000076293945,16.5
1766402564517355500,5.43535546875,35.880001068115234,22.979999542236328,15.839999198913574
1766402564527365400,5.445365478515625,35.57999801635742,23.279998779296875,15.779999732971191
1766402564537405700,5.45540576171875,36.41999816894531,23.69999885559082,16.260000228881836
1766402564547415600,5.46541552734375,35.70000076293945,23.459999084472656,16.079999923706055
1766402564587454500,5.505454345703125,36.71999740600586,23.34000015258789,15.839999198913574
1766402564607474000,5.525473876953125,37.380001068115234,23.69999885559082,15
1766402564617514200,5.53551416015625,37.55999755859375,23.100000381469727,14.880000114440918
1766402564627524000,5.545524169921875,36.65999984741211,23.34000015258789,14.880000114440918
1766402564637534000,5.555533935546875,36.84000015258789,23.81999969482422,15.539999961853027
1766402564647604700,5.565604736328125,36.36000061035156,23.81999969482422,16.260000228881836
1766402564657644800,5.575644775390625,36,23.8799991607666,16.19999885559082
1766402564667654700,5.585654541015625,36.29999923706055,23.939998626708984,15.420000076293945
1766402564677695000,5.595695068359375,36.29999923706055,23.579999923706055,15.420000076293945
1766402564707724300,5.625724365234375,37.79999923706055,22.079999923706055,15.899999618530273
1766402564717734100,5.635734130859375,37.380001068115234,22.020000457763672,15.479999542236328
1766402564727713300,5.64571337890625,36.47999954223633,22.5,15.65999984741211
1766402564737753600,5.655753662109375,36.65999984741211,22.31999969482422,15.899999618530273
1766402564747763500,5.665763427734375,35.63999938964844,22.31999969482422,16.020000457763672
1766402564757773000,5.67577294921875,35.57999801635742,22.31999969482422,16.079999923706055
1766402564767783000,5.685782958984375,35.57999801635742,22.439998626708984,16.139999389648438
1766402564777792500,5.69579248046875,34.55999755859375,23.399999618530273,16.020000457763672
1766402564817892600,5.735892578125,35.81999969482422,23.939998626708984,17.459999084472656
1766402564838003700,5.756003662109375,36,23.399999618530273,15.719999313354492
1766402564848044000,5.7660439453125,35.52000045776367,23.15999984741211,15.239999771118164
1766402564858084400,5.77608447265625,35.34000015258789,23.100000381469727,15.179999351501465
1766402564868094200,5.78609423828125,33.959999084472656,23.03999900817871,14.75999927520752
1766402564878103800,5.796103759765625,34.31999969482422,23.399999618530273,15.960000038146973
1766402564918204000,5.836203857421875,35.70000076293945,24.299999237060547,15.179999351501465
1766402564928183300,5.846183349609375,36.05999755859375,24.299999237060547,16.079999923706055
1766402564938223600,5.8562236328125,36.599998474121094,24.53999900817871,16.979999542236328
1766402564948264000,5.866263916015625,36.599998474121094,24.119998931884766,17.520000457763672
1766402564958334700,5.876334716796875,35.52000045776367,24.779998779296875,17.279998779296875
1766402564968313900,5.88631396484375,35.15999984741211,25.139999389648438,16.739999771118164
1766402564988364000,5.906364013671875,34.79999923706055,25.920000076293945,15.839999198913574
1766402565008414000,5.9264140625,34.91999816894531,24.959999084472656,15.719999313354492
1766402565018454300,5.936454345703125,35.7599983215332,24.899999618530273,15.960000038146973
1766402565028464000,5.946464111328125,35.70000076293945,24.600000381469727,16.31999969482422
1766402565048544500,5.96654443359375,36.119998931884766,24.899999618530273,16.3799991607666
1766402565058554400,5.976554443359375,35.70000076293945,24.65999984741211,15.719999313354492
1766402565068625200,5.986625244140625,35.39999771118164,25.559999465942383,15.59999942779541
1766402565078665500,5.99666552734375,34.68000030517578,25.979999542236328,15.779999732971191
1766402565088675000,6.006675048828125,34.20000076293945,26.34000015258789,15.479999542236328
1766402565118735000,6.036735107421875,36.29999923706055,26.81999969482422,15.779999732971191
1766402565128744700,6.04674462890625,36.47999954223633,26.639999389648438,15.65999984741211
1766402565138785000,6.056784912109375,35.15999984741211,26.639999389648438,15.539999961853027
1766402565148764400,6.066764404296875,34.02000045776367,27.599998474121094,15.479999542236328
1766402565158774000,6.07677392578125,33.119998931884766,28.01999855041504,14.9399995803833
1766402565168784000,6.086783935546875,32.15999984741211,28.619998931884766,15.239999771118164
1766402565178793700,6.096793701171875,31.619998931884766,29.34000015258789,15.539999961853027
1766402565188803300,6.10680322265625,31.979999542236328,28.31999969482422,15.299999237060547
1766402565208853500,6.126853515625,31.619998931884766,28.85999870300293,15.539999961853027
1766402565218863000,6.136863037109375,32.040000915527344,28.799999237060547,14.880000114440918
1766402565228873000,6.146873046875,31.3799991607666,30,14.519999504089355
1766402565238882800,6.1568828125,31.139999389648438,29.639999389648438,14.699999809265137
1766402565248892400,6.166892333984375,30.35999870300293,29.69999885559082,14.519999504089355
1766402565258902300,6.17690234375,30.17999839782715,30.53999900817871,15.299999237060547
1766402565268912000,6.186912109375,29.939998626708984,30.599998474121094,15.420000076293945
1766402565278952200,6.1969521484375,30,31.19999885559082,15.420000076293945
1766402565288962000,6.206962158203125,30.35999870300293,30.599998474121094,14.819999694824219
1766402565309012200,6.22701220703125,30.35999870300293,30.239999771118164,14.519999504089355
1766402565319021800,6.237021728515625,30.53999900817871,30.119998931884766,14.219999313354492
1766402565329062100,6.247062255859375,30.899999618530273,30.420000076293945,14.699999809265137
1766402565339072000,6.257072021484375,31.01999855041504,30.599998474121094,14.460000038146973
1766402565349081600,6.26708154296875,30.479999542236328,30.35999870300293,14.219999313354492
1766402565359091500,6.277091552734375,29.939998626708984,30.599998474121094,14.399999618530273
1766402565369101300,6.287101318359375,29.639999389648438,30.779998779296875,14.09999942779541
1766402565379111000,6.29711083984375,29.939998626708984,30.299999237060547,14.819999694824219
1766402565389120800,6.307120849609375,30.17999839782715,30.239999771118164,14.699999809265137
1766402565429251300,6.347251220703125,31.85999870300293,30.479999542236328,14.279999732971191
1766402565439261200,6.35726123046875,32.7599983215332,30.119998931884766,13.979999542236328
1766402565449270800,6.367270751953125,31.739999771118164,30.899999618530273,14.219999313354492
1766402565459280600,6.37728076171875,30.65999984741211,30.899999618530273,14.279999732971191
1766402565469290500,6.38729052734375,29.8799991607666,30.719999313354492,14.039999961853027
1766402565479300000,6.397300048828125,29.219999313354492,31.260000228881836,13.859999656677246
1766402565489310000,6.40731005859375,29.15999984741211,31.01999855041504,13.679999351501465
1766402565499319800,6.41731982421875,29.34000015258789,31.260000228881836,14.579999923706055
1766402565519339300,6.43733935546875,29.8799991607666,31.85999870300293,15.779999732971191
1766402565539389200,6.45738916015625,31.19999885559082,31.85999870300293,15.59999942779541
1766402565549399000,6.46739892578125,30.65999984741211,31.619998931884766,15.839999198913574
1766402565559409000,6.477408935546875,30.239999771118164,31.01999855041504,15.65999984741211
1766402565569449200,6.48744921875,29.15999984741211,30.779998779296875,15.719999313354492
1766402565579458800,6.497458740234375,29.03999900817871,30.17999839782715,15.420000076293945
1766402565589468700,6.50746875,28.979999542236328,29.8799991607666,15.719999313354492
1766402565599478500,6.517478515625,28.979999542236328,29.579999923706055,15.719999313354492
1766402565619498000,6.537498046875,30.420000076293945,29.69999885559082,16.079999923706055
1766402565629507800,6.5475078125,31.739999771118164,29.8799991607666,16.020000457763672
1766402565639517400,6.557517333984375,32.21999740600586,30.119998931884766,16.3799991607666
1766402565649527300,6.56752734375,32.70000076293945,29.760000228881836,15.719999313354492
1766402565659537000,6.577536865234375,32.459999084472656,29.69999885559082,15.65999984741211
1766402565669546800,6.587546630859375,32.34000015258789,29.399999618530273,16.260000228881836
1766402565679556600,6.597556640625,32.34000015258789,29.15999984741211,15.239999771118164
1766402565689566200,6.607566162109375,31.260000228881836,29.279998779296875,15.65999984741211
1766402565699576000,6.617576171875,32.15999984741211,28.920000076293945,16.3799991607666
1766402565709586000,6.6275859375,31.979999542236328,28.68000030517578,15.479999542236328
1766402565729635800,6.6476357421875,34.2599983215332,28.619998931884766,15.899999618530273
1766402565759695600,6.677695556640625,33.540000915527344,28.079999923706055,15.779999732971191
1766402565769705500,6.68770556640625,32.880001068115234,27.599998474121094,15.779999732971191
1766402565779745800,6.697745849609375,32.34000015258789,27.420000076293945,15.539999961853027
1766402565789755400,6.70775537109375,32.52000045776367,28.079999923706055,15.839999198913574
1766402565799795700,6.717795654296875,32.81999969482422,28.139999389648438,16.5
1766402565809805600,6.7278056640625,33.23999786376953,28.3799991607666,16.619998931884766
1766402565849875200,6.767875244140625,34.86000061035156,26.34000015258789,16.85999870300293
1766402565859884800,6.777884765625,34.79999923706055,25.85999870300293,17.15999984741211
1766402565869894700,6.787894775390625,34.5,25.3799991607666,17.69999885559082
1766402565879904500,6.797904541015625,34.13999938964844,24.959999084472656,16.979999542236328
1766402565889914000,6.8079140625,33.71999740600586,25.01999855041504,17.69999885559082
1766402565899954400,6.817954345703125,34.5,25.19999885559082,18.239999771118164
1766402565909964300,6.82796435546875,34.20000076293945,25.619998931884766,18.35999870300293
1766402565919974100,6.83797412109375,34.97999954223633,25.5,18.779998779296875
1766402565950064400,6.868064453125,35.279998779296875,23.639999389648438,18.53999900817871
1766402565970114300,6.8881142578125,34.79999923706055,23.399999618530273,18.84000015258789
1766402565990164500,6.90816455078125,35.279998779296875,22.739999771118164,18.299999237060547
1766402566000174300,6.91817431640625,35.459999084472656,22.619998931884766,18.239999771118164
1766402566010245000,6.9282451171875,36.36000061035156,22.85999870300293,18.959999084472656
1766402566020254700,6.938254638671875,36.71999740600586,22.85999870300293,19.439998626708984
1766402566030264600,6.9482646484375,37.13999938964844,23.219999313354492,19.559999465942383
1766402566060324400,6.978324462890625,36.36000061035156,22.619998931884766,18.53999900817871
1766402566070334200,6.988334228515625,35.57999801635742,22.020000457763672,18.35999870300293
1766402566080374500,6.99837451171875,35.34000015258789,21.84000015258789,18.420000076293945
1766402566090414600,7.00841455078125,35.52000045776367,22.020000457763672,18.059999465942383
1766402566100424400,7.018424560546875,35.63999938964844,23.15999984741211,18.53999900817871
1766402566110434300,7.028434326171875,36.18000030517578,23.03999900817871,18.84000015258789
1766402566120474600,7.038474609375,37.07999801635742,22.68000030517578,18.779998779296875
1766402566130484200,7.048484130859375,37.31999969482422,21.959999084472656,18.299999237060547
1766402566150504000,7.06850390625,37.86000061035156,21.059999465942383,16.979999542236328
1766402566160574700,7.07857470703125,38.34000015258789,20.639999389648438,16.920000076293945
1766402566170553900,7.088553955078125,37.68000030517578,20.459999084472656,17.34000015258789
1766402566180563700,7.098563720703125,37.97999954223633,20.34000015258789,17.520000457763672
1766402566190573300,7.1085732421875,37.68000030517578,20.03999900817871,17.81999969482422
1766402566200583200,7.118583251953125,36.65999984741211,20.639999389648438,17.940000534057617
1766402566210593000,7.128593017578125,37.68000030517578,20.219999313354492,17.8799991607666
1766402566220602600,7.1386025390625,37.619998931884766,19.979999542236328,18.35999870300293
1766402566230612500,7.148612548828125,38.459999084472656,20.100000381469727,18.239999771118164
1766402566260641800,7.178641845703125,39.23999786376953,20.399999618530273,19.139999389648438
1766402566270651400,7.1886513671875,38.39999771118164,20.34000015258789,19.19999885559082
1766402566280661200,7.1986611328125,37.5,20.520000457763672,19.19999885559082
1766402566290671000,7.208671142578125,37.07999801635742,19.920000076293945,19.5
1766402566300711400,7.21871142578125,36.47999954223633,19.979999542236328,18.959999084472656
1766402566310721000,7.228720947265625,37.13999938964844,19.260000228881836,18.719999313354492
1766402566320731000,7.23873095703125,37.79999923706055,18.299999237060547,18.600000381469727
1766402566330771200,7.248771240234375,38.52000045776367,18.18000030517578,18.53999900817871
1766402566340780800,7.25878076171875,38.87999725341797,18.239999771118164,18.420000076293945
1766402566370810000,7.28881005859375,37.31999969482422,18.600000381469727,17.940000534057617
1766402566390829800,7.308829833984375,36.540000915527344,17.940000534057617,17.520000457763672
1766402566400839400,7.31883935546875,36.599998474121094,18.18000030517578,17.520000457763672
1766402566410849300,7.328849365234375,36.47999954223633,18.65999984741211,18.420000076293945
1766402566420889600,7.3388896484375,36.540000915527344,19.5,18.84000015258789
1766402566430899200,7.348899169921875,36.65999984741211,19.739999771118164,19.079999923706055
1766402566440970200,7.35897021484375,37.619998931884766,19.619998931884766,19.260000228881836
1766402566491110400,7.4091103515625,38.21999740600586,19.68000030517578,18.899999618530273
1766402566501120300,7.419120361328125,38.099998474121094,20.03999900817871,18.719999313354492
1766402566511130000,7.429130126953125,38.279998779296875,19.31999969482422,18.299999237060547
1766402566521139700,7.4391396484375,37.439998626708984,19.31999969482422,18.059999465942383
1766402566531149600,7.449149658203125,37.13999938964844,19.19999885559082,17.639999389648438
1766402566541159400,7.459159423828125,37.07999801635742,19.260000228881836,17.940000534057617
1766402566571188700,7.489188720703125,37.02000045776367,19.68000030517578,18.779998779296875
1766402566581228800,7.499228759765625,37.02000045776367,19.5,18.899999618530273
1766402566591238700,7.50923876953125,37.20000076293945,19.139999389648438,18.479999542236328
1766402566601248500,7.51924853515625,36.65999984741211,18.719999313354492,18.299999237060547
1766402566611258000,7.529258056640625,37.07999801635742,18.35999870300293,18.35999870300293
1766402566621268000,7.53926806640625,36.36000061035156,18.18000030517578,18.059999465942383
1766402566631277800,7.54927783203125,36.23999786376953,18.239999771118164,18.420000076293945
1766402566641287400,7.559287353515625,37.13999938964844,18.53999900817871,19.079999923706055
1766402566651297300,7.56929736328125,37.380001068115234,18.35999870300293,19.3799991607666
1766402566671347200,7.58934716796875,39.18000030517578,17.81999969482422,19.68000030517578
1766402566681357000,7.599357177734375,38.21999740600586,17.81999969482422,19.079999923706055
1766402566711416800,7.629416748046875,36.540000915527344,18.65999984741211,18.600000381469727
1766402566721426700,7.6394267578125,37.13999938964844,18.779998779296875,18.53999900817871
1766402566731436500,7.6494365234375,37.20000076293945,19.079999923706055,19.079999923706055
1766402566741446100,7.659446044921875,37.380001068115234,19.139999389648438,18.65999984741211
1766402566751456000,7.6694560546875,38.099998474121094,18.719999313354492,18.899999618530273
1766402566761465600,7.679465576171875,38.15999984741211,18.719999313354492,19.260000228881836
1766402566821585400,7.73958544921875,39.05999755859375,18.899999618530273,18.059999465942383
1766402566831595000,7.749594970703125,38.099998474121094,18.600000381469727,18.299999237060547
1766402566841635300,7.75963525390625,37.68000030517578,18.65999984741211,18.239999771118164
1766402566851706000,7.7697060546875,37.73999786376953,18.53999900817871,18.35999870300293
1766402566861746400,7.779746337890625,36.599998474121094,17.760000228881836,18.479999542236328
1766402566881766000,7.799765869140625,37.439998626708984,17.279998779296875,17.81999969482422
1766402566901816000,7.819816162109375,37.91999816894531,17.69999885559082,18
1766402566911826000,7.829825927734375,37.31999969482422,18.53999900817871,18.600000381469727
1766402566921835500,7.83983544921875,37.55999755859375,17.81999969482422,18.420000076293945
1766402566931875800,7.849875732421875,38.099998474121094,17.639999389648438,18.84000015258789
1766402566941885700,7.8598857421875,38.81999969482422,17.639999389648438,18.84000015258789
1766402566961905200,7.8799052734375,39.959999084472656,18.299999237060547,19.5
1766402566971884500,7.889884521484375,39.29999923706055,18.479999542236328,19.19999885559082
1766402566991904000,7.909904052734375,39.29999923706055,17.219999313354492,18.18000030517578
1766402567021933300,7.939933349609375,38.81999969482422,16.85999870300293,17.279998779296875
1766402567031943000,7.94994287109375,37.79999923706055,17.399999618530273,17.279998779296875
1766402567041952800,7.959952880859375,38.15999984741211,16.979999542236328,17.520000457763672
1766402567051993000,7.9699931640625,38.7599983215332,16.920000076293945,17.8799991607666
1766402567062003000,7.9800029296875,39.71999740600586,17.69999885559082,18.059999465942383
1766402567072012500,7.990012451171875,40.439998626708984,18.420000076293945,18.479999542236328
1766402567102103000,8.02010302734375,39.36000061035156,18.479999542236328,17.940000534057617
1766402567112112600,8.030112548828125,39.47999954223633,17.459999084472656,17.520000457763672
1766402567122122500,8.04012255859375,38.81999969482422,17.520000457763672,17.15999984741211
1766402567132132400,8.05013232421875,38.21999740600586,17.520000457763672,17.399999618530273
1766402567142203100,8.060203125,38.7599983215332,17.459999084472656,17.100000381469727
1766402567152182300,8.070182373046874,39.23999786376953,18.299999237060547,17.34000015258789
1766402567162222600,8.08022265625,39.47999954223633,18.420000076293945,18.35999870300293
1766402567172232400,8.090232421875,40.5,17.940000534057617,18.35999870300293
1766402567182242000,8.100241943359375,40.20000076293945,17.81999969482422,18.779998779296875
1766402567222250800,8.140250732421874,40.68000030517578,17.399999618530273,17.03999900817871
1766402567232260400,8.15026025390625,40.439998626708984,16.799999237060547,17.279998779296875
1766402567242270200,8.160270263671874,39.71999740600586,16.260000228881836,17.279998779296875
1766402567252341000,8.170341064453124,38.7599983215332,16.440000534057617,17.760000228881836
1766402567262381300,8.18038134765625,38.21999740600586,17.15999984741211,17.8799991607666
1766402567272391000,8.190390869140625,37.55999755859375,17.520000457763672,17.520000457763672
1766402567282400800,8.20040087890625,38.15999984741211,18,18
1766402567312491000,8.230490966796875,38.87999725341797,18.84000015258789,17.579999923706055
1766402567322500900,8.2405009765625,38.15999984741211,18.84000015258789,16.85999870300293
1766402567332510700,8.2505107421875,38.52000045776367,18.719999313354492,17.940000534057617
1766402567342520300,8.260520263671875,39.119998931884766,18.65999984741211,17.760000228881836
1766402567352530200,8.2705302734375,39.36000061035156,18.059999465942383,17.579999923706055
1766402567362540000,8.2805400390625,39.65999984741211,18.059999465942383,17.34000015258789
1766402567372549600,8.290549560546875,38.87999725341797,18.18000030517578,16.920000076293945
1766402567382620400,8.300620361328125,38.15999984741211,18.600000381469727,16.68000030517578
1766402567392599800,8.310599853515624,37.55999755859375,19.139999389648438,16.440000534057617
1766402567402609400,8.320609375,37.97999954223633,19.020000457763672,17.219999313354492
1766402567432638700,8.350638671875,39.47999954223633,19.31999969482422,16.979999542236328
1766402567442648600,8.360648681640624,39.65999984741211,19.559999465942383,16.559999465942383
1766402567452658400,8.370658447265624,40.20000076293945,19.799999237060547,16.739999771118164
1766402567462668000,8.38066796875,40.55999755859375,19.559999465942383,16.559999465942383
1766402567472678000,8.390677978515624,40.31999969482422,19.439998626708984,16.440000534057617
1766402567482687700,8.400687744140624,39.540000915527344,19.68000030517578,16.31999969482422
1766402567492697300,8.410697265625,39.65999984741211,19.979999542236328,16.020000457763672
1766402567502737700,8.420737548828125,39.540000915527344,20.279998779296875,15.839999198913574
1766402567542807300,8.460807373046874,39.47999954223633,20.81999969482422,15.719999313354492
1766402567552817200,8.470817138671874,38.70000076293945,20.459999084472656,15.119999885559082
1766402567572836600,8.490836669921874,38.21999740600586,21.239999771118164,15.539999961853027
1766402567582877000,8.500876953125,37.86000061035156,20.939998626708984,15.59999942779541
1766402567592886500,8.510886474609375,37.91999816894531,21.600000381469727,15.359999656677246
1766402567602896400,8.520896484375,38.040000915527344,21.600000381469727,14.9399995803833
1766402567622915800,8.540915771484375,37.73999786376953,21.65999984741211,14.399999618530273
1766402567632956200,8.5509560546875,37.79999923706055,21.420000076293945,14.639999389648438
1766402567642966000,8.560966064453124,38.099998474121094,21.779998779296875,15.119999885559082
1766402567652975600,8.5709755859375,37.68000030517578,21.779998779296875,14.819999694824219
1766402567662985500,8.5809853515625,36.959999084472656,22.920000076293945,15.359999656677246
1766402567672995300,8.590995361328124,37.13999938964844,23.03999900817871,15.59999942779541
1766402567683005000,8.6010048828125,36.540000915527344,23.15999984741211,15.420000076293945
1766402567693014800,8.611014892578124,36.599998474121094,23.8799991607666,15.359999656677246
1766402567703024600,8.621024658203124,36.41999816894531,23.8799991607666,14.75999927520752
1766402567713034200,8.6310341796875,36.05999755859375,24.299999237060547,15
1766402567743094000,8.661093994140625,34.73999786376953,25.85999870300293,15.420000076293945
1766402567753104000,8.671103759765625,33.779998779296875,27,14.9399995803833
1766402567763144200,8.681144287109374,33.36000061035156,27,14.9399995803833
1766402567773184500,8.6911845703125,33,27.420000076293945,14.09999942779541
1766402567783194000,8.701194091796875,33.65999984741211,28.439998626708984,14.460000038146973
1766402567793173500,8.711173583984374,34.31999969482422,28.799999237060547,14.699999809265137
1766402567803183400,8.721183349609374,34.73999786376953,29.8799991607666,14.09999942779541
1766402567813223400,8.731223388671875,33.84000015258789,30.719999313354492,14.579999923706055
1766402567823263700,8.741263671875,32.7599983215332,31.5,14.09999942779541
1766402567833273600,8.751273681640624,31.139999389648438,32.34000015258789,13.4399995803833
1766402567843314000,8.76131396484375,29.34000015258789,32.7599983215332,13.25999927520752
1766402567853323500,8.771323486328125,28.739999771118164,33.05999755859375,12.300000190734863
1766402567863333400,8.78133349609375,27.599998474121094,33.540000915527344,11.75999927520752
1766402567873343200,8.79134326171875,26.939998626708984,34.31999969482422,11.399999618530273
1766402567883352800,8.801352783203125,26.579999923706055,35.21999740600586,11.75999927520752
1766402567893362700,8.81136279296875,25.5,35.459999084472656,11.039999961853027
1766402567903372500,8.82137255859375,24.84000015258789,35.63999938964844,11.15999984741211
1766402567913382100,8.831382080078125,24.18000030517578,35.57999801635742,10.4399995803833
1766402567933462800,8.851462890625,21.059999465942383,37.86000061035156,11.399999618530273
1766402567943472600,8.86147265625,19.31999969482422,38.279998779296875,11.460000038146973
1766402567953482200,8.871482177734375,17.8799991607666,39.23999786376953,12.059999465942383
1766402567963492000,8.8814921875,17.579999923706055,38.57999801635742,11.75999927520752
1766402567973532400,8.891532470703124,17.219999313354492,38.57999801635742,12.420000076293945
1766402567983572700,8.90157275390625,17.219999313354492,38.459999084472656,12.899999618530273
1766402567993552000,8.9115517578125,16.079999923706055,37.68000030517578,13.319999694824219
1766402568003561700,8.921561767578124,14.699999809265137,37.55999755859375,13.679999351501465
1766402568013602000,8.93160205078125,13.019999504089355,37.2599983215332,14.09999942779541
1766402568023611600,8.941611572265625,11.399999618530273,36.89999771118164,15.059999465942383
1766402568053702100,8.9717021484375,10.260000228881836,35.70000076293945,17.69999885559082
1766402568063742200,8.9817421875,10.380000114440918,34.68000030517578,18.35999870300293
1766402568073782500,8.991782470703125,10.079999923706055,34.07999801635742,18.959999084472656
1766402568083792400,9.00179248046875,9.179999351501465,33.540000915527344,19.3799991607666
1766402568093802200,9.01180224609375,8.220000267028809,33.119998931884766,20.219999313354492
1766402568103842300,9.02184228515625,7.5,32.939998626708984,20.399999618530273
1766402568113821700,9.03182177734375,7.619999885559082,31.67999839782715,21.420000076293945
1766402568123862000,9.041862060546874,8.639999389648438,31.079999923706055,22.31999969482422
1766402568153860900,9.07186083984375,12.420000076293945,30.84000015258789,24.84000015258789
1766402568163931600,9.081931640625,12.719999313354492,29.69999885559082,24.299999237060547
1766402568173910800,9.091910888671874,12.359999656677246,29.51999855041504,24.420000076293945
1766402568183920600,9.101920654296874,12.239999771118164,29.03999900817871,23.8799991607666
1766402568193991400,9.111991455078124,11.699999809265137,28.439998626708984,23.279998779296875
1766402568204001000,9.1220009765625,11.279999732971191,28.3799991607666,24.299999237060547
1766402568214071800,9.13207177734375,11.279999732971191,28.079999923706055,24.239999771118164
1766402568224081700,9.14208154296875,11.279999732971191,28.19999885559082,24.299999237060547
1766402568264151300,9.1821513671875,11.699999809265137,30.059999465942383,23.8799991607666
1766402568274161200,9.1921611328125,12.359999656677246,29.69999885559082,23.399999618530273
1766402568294241500,9.212241455078125,11.880000114440918,28.85999870300293,23.34000015258789
1766402568304251400,9.22225146484375,11.819999694824219,28.979999542236328,23.34000015258789
1766402568314291700,9.232291748046874,11.34000015258789,28.920000076293945,23.219999313354492
1766402568324301300,9.24230126953125,11.519999504089355,28.920000076293945,23.69999885559082
1766402568344321000,9.262321044921874,10.319999694824219,29.279998779296875,24.65999984741211
1766402568354330600,9.27233056640625,10.619999885559082,29.099998474121094,24.959999084472656
1766402568364340500,9.282340576171874,10.859999656677246,28.68000030517578,24.420000076293945
1766402568374350300,9.292350341796874,11.639999389648438,28.260000228881836,24.479999542236328
1766402568384360000,9.30235986328125,11.75999927520752,27.899999618530273,23.939998626708984
1766402568394369800,9.312369873046874,10.979999542236328,28.079999923706055,23.459999084472656
1766402568404379600,9.322379638671874,10.5,28.3799991607666,23.219999313354492
1766402568414389200,9.33238916015625,10.920000076293945,28.68000030517578,23.579999923706055
1766402568424399000,9.342399169921874,11.09999942779541,28.5,23.579999923706055
1766402568434409000,9.352408935546874,11.880000114440918,29.15999984741211,24.600000381469727
1766402568464468700,9.38246875,11.579999923706055,29.579999923706055,23.279998779296875
1766402568474478300,9.392478271484375,11.279999732971191,29.34000015258789,22.079999923706055
1766402568484518700,9.4025185546875,11.09999942779541,29.639999389648438,22.139999389648438
1766402568494559000,9.41255908203125,11.519999504089355,29.939998626708984,22.3799991607666
1766402568504568800,9.42256884765625,12.179999351501465,29.459999084472656,22.020000457763672
1766402568514578400,9.432578369140625,11.9399995803833,29.639999389648438,22.619998931884766
1766402568524588300,9.44258837890625,12.239999771118164,29.760000228881836,22.439998626708984
1766402568534567400,9.4525673828125,12.359999656677246,30.119998931884766,21.53999900817871
1766402568544607700,9.462607666015625,13.019999504089355,30.53999900817871,21.299999237060547
1766402568584799500,9.502799560546874,13.799999237060547,31.439998626708984,20.100000381469727
1766402568594778600,9.512778564453125,13.799999237060547,31.260000228881836,19.3799991607666
1766402568604788500,9.52278857421875,13.380000114440918,31.739999771118164,19.3799991607666
1766402568614828800,9.532828857421874,14.039999961853027,32.040000915527344,19.260000228881836
1766402568634848300,9.55284814453125,14.519999504089355,30.899999618530273,19.85999870300293
1766402568644888600,9.562888671875,13.859999656677246,30.53999900817871,20.03999900817871
1766402568654898400,9.5728984375,13.019999504089355,30.35999870300293,20.03999900817871
1766402568684958200,9.602958251953124,14.579999923706055,29.34000015258789,20.219999313354492
1766402568694998500,9.61299853515625,15.59999942779541,28.85999870300293,20.81999969482422
1766402568715018000,9.63301806640625,15.960000038146973,28.799999237060547,22.079999923706055
1766402568725027800,9.64302783203125,15.059999465942383,28.260000228881836,22.020000457763672
1766402568735068000,9.65306787109375,13.799999237060547,28.139999389648438,22.19999885559082
1766402568745077800,9.663077880859374,12.960000038146973,28.5,22.260000228881836
1766402568755087600,9.673087646484374,12.239999771118164,28.739999771118164,22.31999969482422
1766402568765066800,9.683066650390625,11.399999618530273,29.51999855041504,22.799999237060547
1766402568795157200,9.7131572265625,11.039999961853027,29.219999313354492,22.739999771118164
1766402568805166800,9.723166748046875,10.679999351501465,29.03999900817871,22.559999465942383
1766402568815207200,9.733207275390624,10.619999885559082,29.15999984741211,22.799999237060547
1766402568825217000,9.743217041015624,10.380000114440918,28.619998931884766,22.3799991607666
1766402568835226600,9.7532265625,10.079999923706055,28.68000030517578,22.979999542236328
1766402568845236500,9.763236572265624,10.199999809265137,28.439998626708984,23.399999618530273
1766402568855276800,9.77327685546875,10.139999389648438,28.079999923706055,23.399999618530273
1766402568865347600,9.78334765625,10.139999389648438,27.959999084472656,24.059999465942383
1766402568905386500,9.823386474609375,12.84000015258789,26.81999969482422,24.959999084472656
1766402568915396400,9.833396240234375,13.139999389648438,26.51999855041504,24.420000076293945
1766402568925436700,9.843436767578124,13.199999809265137,25.979999542236328,23.81999969482422
1766402568935477000,9.85347705078125,12.960000038146973,26.399999618530273,24.239999771118164
1766402568945486600,9.863486572265625,12.059999465942383,26.219999313354492,24.479999542236328
1766402568955496400,9.873496337890625,12.059999465942383,26.51999855041504,24.53999900817871
1766402568965506300,9.88350634765625,12.119999885559082,26.639999389648438,24.239999771118164
1766402568975546600,9.893546630859374,12.59999942779541,26.639999389648438,23.939998626708984
1766402569015646700,9.933646728515624,14.819999694824219,26.939998626708984,22.139999389648438
1766402569025687000,9.94368701171875,15.119999885559082,27.059999465942383,21.84000015258789
1766402569035696600,9.953696533203125,15.59999942779541,26.81999969482422,21.600000381469727
1766402569045706500,9.96370654296875,15.960000038146973,27.119998931884766,22.19999885559082
1766402569055716000,9.973716064453125,17.639999389648438,26.8799991607666,21.959999084472656
1766402569065726000,9.983725830078125,18.600000381469727,26.219999313354492,21.719999313354492
1766402569075735800,9.99373583984375,20.15999984741211,25.799999237060547,22.5
1766402569085776100,10.003776123046874,21.779998779296875,24.779998779296875,22.439998626708984
1766402569135855400,10.05385546875,21.959999084472656,22.3799991607666,20.69999885559082
1766402569145865200,10.063865234375,23.579999923706055,22.260000228881836,20.760000228881836
1766402569155905500,10.073905517578124,24.239999771118164,22.31999969482422,20.579999923706055
1766402569165915100,10.0839150390625,24.65999984741211,22.19999885559082,21
1766402569175955500,10.09395556640625,26.15999984741211,21.479999542236328,21.600000381469727
1766402569185965300,10.10396533203125,27.059999465942383,20.100000381469727,21.600000381469727
1766402569195975000,10.113974853515625,28.079999923706055,18.959999084472656,21.779998779296875
1766402569205954300,10.123954345703124,29.219999313354492,18,21.600000381469727
1766402569226065400,10.1440654296875,29.03999900817871,16.799999237060547,21.53999900817871
1766402569236075000,10.154074951171875,28.920000076293945,16.079999923706055,21.420000076293945
1766402569246084900,10.1640849609375,28.439998626708984,15.839999198913574,21.779998779296875
1766402569256094700,10.1740947265625,28.439998626708984,15.059999465942383,22.079999923706055
1766402569266104300,10.184104248046875,28.31999969482422,15.059999465942383,22.619998931884766
1766402569276114200,10.1941142578125,29.099998474121094,14.579999923706055,23.100000381469727
1766402569286124000,10.2041240234375,29.51999855041504,13.979999542236328,22.920000076293945
1766402569296133600,10.214133544921875,29.459999084472656,13.559999465942383,22.85999870300293
1766402569346213000,10.264213134765624,29.81999969482422,12.899999618530273,22.799999237060547
1766402569356222700,10.27422265625,30.599998474121094,12.179999351501465,22.920000076293945
1766402569366202000,10.2842021484375,32.040000915527344,11.75999927520752,22.5
1766402569376242400,10.294242431640624,31.920000076293945,11.219999313354492,22.559999465942383
1766402569386282500,10.304282470703125,31.5,10.979999542236328,21.600000381469727
1766402569396322800,10.31432275390625,31.67999839782715,11.699999809265137,21.119998931884766
1766402569416373000,10.334373046875,30.059999465942383,12.300000190734863,20.8799991607666
1766402569436423000,10.3544228515625,30.65999984741211,11.9399995803833,21.420000076293945
1766402569446402300,10.36440234375,31.799999237060547,12.359999656677246,21.719999313354492
1766402569456442600,10.374442626953124,32.459999084472656,12.300000190734863,21.779998779296875
1766402569466421800,10.384421875,32.70000076293945,12.119999885559082,21.299999237060547
1766402569476431600,10.394431640625,32.7599983215332,11.699999809265137,20.81999969482422
1766402569486441200,10.404441162109375,33.23999786376953,11.219999313354492,20.399999618530273
1766402569496481500,10.4144814453125,32.7599983215332,11.399999618530273,19.85999870300293
1766402569506521900,10.42452197265625,32.57999801635742,12,19.5
1766402569556570600,10.474570556640625,34.439998626708984,12.960000038146973,18.299999237060547
1766402569566641400,10.484641357421875,34.86000061035156,12.65999984741211,18.53999900817871
1766402569576651300,10.4946513671875,34.20000076293945,12.059999465942383,18
1766402569586691600,10.504691650390624,33.41999816894531,11.880000114440918,18
1766402569596701400,10.514701416015624,33.71999740600586,11.34000015258789,17.69999885559082
1766402569606772200,10.524772216796874,33.18000030517578,11.639999389648438,17.279998779296875
1766402569616751400,10.53475146484375,33.71999740600586,12.479999542236328,17.459999084472656
1766402569646841600,10.564841552734375,34.68000030517578,14.519999504089355,17.69999885559082
1766402569666891800,10.584891845703124,34.2599983215332,14.34000015258789,17.579999923706055
1766402569676901600,10.594901611328124,33.29999923706055,14.639999389648438,17.219999313354492
1766402569686941700,10.604941650390625,33.84000015258789,14.15999984741211,17.459999084472656
1766402569696951600,10.61495166015625,33.540000915527344,14.219999313354492,17.760000228881836
1766402569706961400,10.62496142578125,33.71999740600586,14.460000038146973,17.81999969482422
1766402569716971000,10.634970947265625,33.959999084472656,13.679999351501465,17.69999885559082
1766402569726980900,10.64498095703125,34.02000045776367,14.09999942779541,17.459999084472656
1766402569777090800,10.6950908203125,33,15.299999237060547,17.760000228881836
1766402569787100400,10.705100341796875,32.7599983215332,15.779999732971191,17.579999923706055
1766402569797110300,10.7151103515625,32.880001068115234,16.31999969482422,17.279998779296875
1766402569807150600,10.725150634765624,32.39999771118164,17.279998779296875,17.219999313354492
1766402569817191000,10.73519091796875,31.67999839782715,18.18000030517578,16.979999542236328
1766402569827200500,10.745200439453125,31.3799991607666,19.619998931884766,17.459999084472656
1766402569847220200,10.76522021484375,31.85999870300293,20.81999969482422,17.69999885559082
1766402569857229800,10.775229736328125,32.099998474121094,22.020000457763672,17.760000228881836
1766402569867270100,10.785270263671874,31.31999969482422,22.559999465942383,17.399999618530273
1766402569877280000,10.795280029296874,30.299999237060547,23.760000228881836,17.579999923706055
1766402569887320300,10.8053203125,28.559999465942383,25.01999855041504,17.81999969482422
1766402569897330000,10.815329833984375,26.219999313354492,24.959999084472656,17.940000534057617
1766402569907339800,10.82533984375,24.65999984741211,26.03999900817871,18.420000076293945
1766402569917349600,10.835349609375,22.3799991607666,26.639999389648438,18.420000076293945
1766402569927420400,10.84542041015625,21.600000381469727,27.35999870300293,19.260000228881836
1766402569937430000,10.855429931640625,21.239999771118164,28.3799991607666,20.03999900817871
1766402569957449700,10.87544970703125,21.84000015258789,28.559999465942383,20.69999885559082
1766402569967459300,10.885459228515625,20.8799991607666,28.85999870300293,21.059999465942383
1766402569977469200,10.89546923828125,19.3799991607666,29.760000228881836,20.8799991607666
1766402569987478800,10.905478759765625,16.979999542236328,30.65999984741211,21.059999465942383
1766402569997488600,10.915488525390625,15.59999942779541,31.739999771118164,21.600000381469727
1766402570007529000,10.925529052734374,14.219999313354492,32.21999740600586,20.399999618530273
1766402570017538800,10.935538818359374,13.799999237060547,32.63999938964844,20.219999313354492
1766402570027548400,10.94554833984375,13.25999927520752,33.36000061035156,19.3799991607666
1766402570037558300,10.955558349609374,11.819999694824219,33.71999740600586,18.239999771118164
1766402570057608200,10.975608154296875,10.979999542236328,36.119998931884766,17.459999084472656
1766402570077658400,10.995658447265624,11.039999961853027,37.5,14.519999504089355
1766402570087668200,11.005668212890624,10.139999389648438,37.91999816894531,12.359999656677246
1766402570097677800,11.015677734375,8.34000015258789,38.87999725341797,10.139999389648438
1766402570107718100,11.02571826171875,6.179999828338623,39.779998779296875,8.639999389648438
1766402570117789000,11.035788818359375,4.980000019073486,41.040000915527344,7.079999923706055
1766402570127798800,11.045798828125,4.139999866485596,41.52000045776367,4.980000019073486
1766402570137808400,11.055808349609375,3.359999895095825,41.57999801635742,2.93999981880188
1766402570177939200,11.095939208984374,7.319999694824219,43.02000045776367,-6
1766402570187948800,11.10594873046875,7.139999866485596,42.89999771118164,-8.460000038146973
1766402570197989000,11.115989013671875,7.019999980926514,42.29999923706055,-10.979999542236328
1766402570208029400,11.126029541015624,6.960000038146973,41.63999938964844,-13.799999237060547
1766402570218039300,11.136039306640624,7.019999980926514,41.39999771118164,-15.779999732971191
1766402570228049000,11.146048828125,9.059999465942383,40.619998931884766,-17.639999389648438
1766402570238089200,11.156089111328125,10.679999351501465,39.84000015258789,-19.739999771118164
1766402570248099000,11.16609912109375,12,38.7599983215332,-21.53999900817871
1766402570298178300,11.21617822265625,15.719999313354492,32.459999084472656,-30.479999542236328
1766402570308188200,11.226188232421874,16.85999870300293,31.260000228881836,-31.31999969482422
1766402570338248000,11.256248046875,19.079999923706055,26.760000228881836,-34.73999786376953
1766402570348257800,11.2662578125,19.020000457763672,25.139999389648438,-35.880001068115234
1766402570358267400,11.276267333984375,18.18000030517578,23.760000228881836,-37.13999938964844
1766402570368277200,11.28627734375,18.65999984741211,22.5,-37.439998626708984
1766402570378287000,11.296287109375,17.760000228881836,21.479999542236328,-38.63999938964844
1766402570398337000,11.3163369140625,18.18000030517578,19.619998931884766,-40.31999969482422
1766402570408347000,11.326346923828124,17.639999389648438,19.19999885559082,-40.5
1766402570418387200,11.33638720703125,17.399999618530273,18.719999313354492,-41.21999740600586
1766402570428396800,11.346396728515625,16.19999885559082,17.639999389648438,-41.15999984741211
1766402570438406700,11.35640673828125,14.819999694824219,17.219999313354492,-41.099998474121094
1766402570448416500,11.36641650390625,13.619999885559082,16.31999969482422,-42.119998931884766
1766402570458395600,11.376395751953124,13.139999389648438,16.31999969482422,-42.29999923706055
1766402570468405500,11.386405517578124,12.359999656677246,16.020000457763672,-42.959999084472656
1766402570478415000,11.3964150390625,12.179999351501465,15.839999198913574,-43.86000061035156
1766402570508475000,11.426474853515625,12.960000038146973,14.039999961853027,-44.099998474121094
1766402570518484700,11.436484619140625,12.84000015258789,13.679999351501465,-43.73999786376953
1766402570528525000,11.446525146484374,12.179999351501465,13.25999927520752,-44.279998779296875
1766402570538535000,11.456534912109374,11.880000114440918,13.619999885559082,-44.21999740600586
1766402570548575000,11.466574951171875,10.800000190734863,13.079999923706055,-44.57999801635742
1766402570558584800,11.476584716796875,10.559999465942383,12.719999313354492,-45
1766402570568625200,11.486625244140624,10.380000114440918,12.420000076293945,-44.939998626708984
1766402570578635000,11.496635009765624,9.960000038146973,11.819999694824219,-45.05999755859375
1766402570628744700,11.54674462890625,11.9399995803833,12.119999885559082,-43.37999725341797
1766402570638754600,11.556754638671874,12.059999465942383,11.039999961853027,-43.5
1766402570648764400,11.566764404296874,10.800000190734863,11.219999313354492,-43.68000030517578
1766402570658804500,11.576804443359375,10.079999923706055,11.639999389648438,-43.79999923706055
1766402570668844800,11.5868447265625,9.119999885559082,12,-44.34000015258789
1766402570678854700,11.596854736328124,9.420000076293945,11.75999927520752,-44.099998474121094
1766402570718893800,11.636893798828124,10.380000114440918,12.719999313354492,-44.39999771118164
1766402570728934000,11.646933837890625,11.09999942779541,12.779999732971191,-44.52000045776367
1766402570738913300,11.656913330078124,10.619999885559082,12.179999351501465,-45.18000030517578
1766402570748953600,11.66695361328125,10.679999351501465,12.359999656677246,-45.18000030517578
1766402570758963200,11.676963134765625,10.739999771118164,11.819999694824219,-45
1766402570768973000,11.68697314453125,10.4399995803833,12.119999885559082,-44.459999084472656
1766402570778983000,11.69698291015625,10.739999771118164,12.059999465942383,-44.34000015258789
1766402570788992500,11.706992431640625,10.739999771118164,11.9399995803833,-44.70000076293945
1766402570839072000,11.757072021484374,10.4399995803833,11.819999694824219,-45.119998931884766
1766402570849112300,11.7671123046875,10.079999923706055,11.579999923706055,-44.87999725341797
1766402570859122000,11.777121826171875,9.899999618530273,11.460000038146973,-44.70000076293945
1766402570869131800,11.7871318359375,10.319999694824219,11.460000038146973,-44.7599983215332
1766402570879141400,11.797141357421875,10.739999771118164,11.399999618530273,-45
1766402570889151200,11.807151123046875,10.139999389648438,11.639999389648438,-45.119998931884766
1766402570899191600,11.817191650390624,10.5,11.75999927520752,-44.7599983215332
1766402570919180500,11.8371806640625,11.039999961853027,12.84000015258789,-44.459999084472656
1766402570949209900,11.8672099609375,11.09999942779541,13.319999694824219,-43.91999816894531
1766402570959219700,11.8772197265625,10.559999465942383,13.019999504089355,-44.57999801635742
1766402570969229300,11.887229248046875,9.84000015258789,12.779999732971191,-45.119998931884766
1766402570979208700,11.897208740234374,9.719999313354492,13.25999927520752,-44.7599983215332
1766402570989218300,11.90721826171875,9.59999942779541,12.84000015258789,-44.63999938964844
1766402570999228200,11.917228271484374,9.179999351501465,12.539999961853027,-44.040000915527344
1766402571009238000,11.927238037109374,9.65999984741211,11.9399995803833,-44.459999084472656
1766402571049307600,11.9673076171875,11.880000114440918,11.9399995803833,-45.18000030517578
1766402571059347700,11.97734765625,11.279999732971191,11.34000015258789,-45.599998474121094
1766402571069388000,11.987387939453125,10.800000190734863,12.179999351501465,-45.36000061035156
1766402571079398000,11.99739794921875,11.460000038146973,11.9399995803833,-45.05999755859375
1766402571089407700,12.00740771484375,11.579999923706055,11.639999389648438,-45.29999923706055
1766402571099417300,12.017417236328125,12.119999885559082,11.819999694824219,-44.87999725341797
1766402571109427200,12.02742724609375,12.539999961853027,11.219999313354492,-44.81999969482422
1766402571119436800,12.037436767578125,11.819999694824219,11.699999809265137,-44.81999969482422
1766402571159476000,12.07747607421875,9.719999313354492,12.59999942779541,-44.939998626708984
1766402571169485800,12.08748583984375,10.319999694824219,12.59999942779541,-44.52000045776367
1766402571179526100,12.097526123046874,11.039999961853027,12.479999542236328,-44.099998474121094
1766402571189535700,12.10753564453125,11.579999923706055,12,-44.39999771118164
1766402571199576000,12.117576171875,11.34000015258789,12,-44.459999084472656
1766402571209616400,12.127616455078124,11.219999313354492,12.179999351501465,-44.70000076293945
1766402571219626200,12.137626220703124,10.559999465942383,11.9399995803833,-44.939998626708984
1766402571239645700,12.157645751953124,10.199999809265137,12.359999656677246,-44.57999801635742
1766402571249686000,12.16768603515625,10.139999389648438,12.359999656677246,-44.57999801635742
1766402571259726300,12.177726318359374,10.619999885559082,13.4399995803833,-44.57999801635742
1766402571269736000,12.18773583984375,10.979999542236328,13.559999465942383,-44.939998626708984
1766402571279745800,12.197745849609374,11.880000114440918,14.15999984741211,-44.459999084472656
1766402571289816600,12.207816650390624,12.960000038146973,14.09999942779541,-44.39999771118164
1766402571299826400,12.217826416015624,13.739999771118164,13.319999694824219,-43.73999786376953
1766402571309897200,12.227897216796874,14.9399995803833,13.4399995803833,-43.439998626708984
1766402571319937300,12.237937255859375,14.399999618530273,13.739999771118164,-43.73999786376953
1766402571329977600,12.2479775390625,13.979999542236328,13.859999656677246,-43.2599983215332
1766402571370047200,12.288047119140625,14.460000038146973,15.299999237060547,-42.89999771118164
1766402571380087600,12.298087646484374,15.119999885559082,15.65999984741211,-42.779998779296875
1766402571390097400,12.308097412109374,16.079999923706055,15.299999237060547,-43.2599983215332
1766402571400107000,12.31810693359375,16.5,15.239999771118164,-43.439998626708984
1766402571410177800,12.328177734375,16.68000030517578,14.579999923706055,-43.13999938964844
1766402571420187600,12.338187744140624,17.100000381469727,14.34000015258789,-43.5
1766402571430197500,12.348197509765624,16.31999969482422,14.34000015258789,-43.5
1766402571440207000,12.35820703125,15.59999942779541,14.279999732971191,-43.79999923706055
1766402571480276700,12.39827685546875,14.09999942779541,13.139999389648438,-44.52000045776367
1766402571490317000,12.408317138671874,14.039999961853027,13.25999927520752,-43.91999816894531
1766402571500296200,12.418296142578125,14.039999961853027,12.359999656677246,-44.70000076293945
1766402571510306000,12.42830615234375,13.5,11.699999809265137,-44.7599983215332
1766402571520316000,12.43831591796875,13.799999237060547,11.279999732971191,-44.87999725341797
1766402571530325500,12.448325439453125,13.319999694824219,10.380000114440918,-45.959999084472656
1766402571540305000,12.458304931640624,13.559999465942383,9.719999313354492,-45.36000061035156
1766402571550345200,12.46834521484375,13.319999694824219,9,-46.07999801635742
1766402571570395100,12.48839501953125,12.420000076293945,7.980000019073486,-46.13999938964844
1766402571580405000,12.498405029296874,11.15999984741211,7.5,-46.91999816894531
1766402571590445300,12.5084453125,10.739999771118164,6.839999675750732,-47.15999984741211
1766402571600455000,12.518454833984375,10.679999351501465,6.480000019073486,-47.63999938964844
1766402571610495200,12.5284951171875,10.019999504089355,6.119999885559082,-47.7599983215332
1766402571620505000,12.538505126953124,10.380000114440918,5.519999980926514,-48.23999786376953
1766402571630484200,12.548484130859375,10.619999885559082,5.279999732971191,-48.36000061035156
1766402571640494000,12.558494140625,10.5,5.279999732971191,-47.39999771118164
1766402571680624600,12.598624755859374,9.59999942779541,4.319999694824219,-47.70000076293945
1766402571690665000,12.6086650390625,9.420000076293945,4.139999866485596,-48.23999786376953
1766402571700674800,12.6186748046875,9.899999618530273,4.259999752044678,-48.71999740600586
1766402571710715000,12.62871484375,9.960000038146973,4.739999771118164,-48.119998931884766
1766402571720724700,12.638724853515624,9.65999984741211,4.619999885559082,-47.57999801635742
1766402571730734600,12.648734619140624,9.059999465942383,4.799999713897705,-47.52000045776367
1766402571740775000,12.65877490234375,7.980000019073486,4.619999885559082,-47.57999801635742
1766402571750784500,12.668784423828125,7.5,4.739999771118164,-47.459999084472656
1766402571790793200,12.708793212890624,9.420000076293945,4.5,-48.23999786376953
1766402571800802800,12.718802734375,9.59999942779541,4.739999771118164,-48.119998931884766
1766402571810812700,12.728812744140624,9,4.5,-47.39999771118164
1766402571820822500,12.738822509765624,7.859999656677246,4.739999771118164,-47.39999771118164
1766402571840872400,12.75887255859375,7.079999923706055,5.279999732971191,-47.34000015258789
1766402571850882300,12.76888232421875,7.139999866485596,5.579999923706055,-47.21999740600586
1766402571880911600,12.79891162109375,6.539999961853027,5.940000057220459,-48
1766402571890921200,12.808921142578125,6.779999732971191,5.87999963760376,-48.47999954223633
1766402571900931000,12.81893115234375,7.440000057220459,5.759999752044678,-48.41999816894531
1766402571910941000,12.82894091796875,7.739999771118164,5.159999847412109,-47.7599983215332
1766402571920981000,12.83898095703125,7.859999656677246,5.279999732971191,-47.52000045776367
1766402571930990800,12.848990966796874,7.259999752044678,5.099999904632568,-47.52000045776367
1766402571941000700,12.859000732421874,6.480000019073486,5.519999980926514,-47.21999740600586
1766402571951010300,12.86901025390625,6.119999885559082,6.059999942779541,-47.39999771118164
1766402571981039600,12.89903955078125,7.199999809265137,6,-48
1766402572031119000,12.949119140625,7.199999809265137,6.059999942779541,-47.81999969482422
1766402572041128700,12.959128662109375,6.179999828338623,5.639999866485596,-48.41999816894531
1766402572051169000,12.9691689453125,6.420000076293945,6.299999713897705,-48.119998931884766
1766402572061179000,12.979178955078124,6.239999771118164,6.899999618530273,-47.70000076293945
1766402572081198300,12.9991982421875,6.779999732971191,8.519999504089355,-47.099998474121094
1766402572101217800,13.0192177734375,8.039999961853027,10.260000228881836,-46.86000061035156
1766402572111227600,13.0292275390625,8.760000228881836,10.859999656677246,-46.31999969482422
1766402572121207000,13.03920703125,9.539999961853027,11.15999984741211,-45.779998779296875
1766402572131247000,13.0492470703125,9.539999961853027,11.819999694824219,-45.71999740600586
1766402572141257000,13.059257080078124,8.9399995803833,12.479999542236328,-46.02000045776367
1766402572151266800,13.069266845703124,9.119999885559082,13.019999504089355,-45.779998779296875
1766402572171286300,13.089286376953124,9.359999656677246,15.479999542236328,-45.18000030517578
1766402572201315600,13.119315673828124,12.539999961853027,19.559999465942383,-42
1766402572211325400,13.129325439453124,12.65999984741211,20.639999389648438,-41.279998779296875
1766402572221335000,13.1393349609375,13.139999389648438,22.079999923706055,-40.31999969482422
1766402572231345000,13.149344970703124,12.59999942779541,23.100000381469727,-39.65999984741211
1766402572241354800,13.159354736328124,12,24.35999870300293,-39.36000061035156
1766402572251394800,13.169394775390625,12.59999942779541,25.19999885559082,-38.52000045776367
1766402572261404700,13.17940478515625,12.420000076293945,27.059999465942383,-37.55999755859375
1766402572271445000,13.189445068359374,12.779999732971191,28.439998626708984,-36.84000015258789
1766402572291464400,13.20946435546875,13.079999923706055,32.099998474121094,-33
1766402572301474300,13.219474365234374,13.019999504089355,32.939998626708984,-32.15999984741211
1766402572311484200,13.229484130859374,13.4399995803833,33.84000015258789,-30.17999839782715
1766402572321493800,13.23949365234375,14.279999732971191,34.2599983215332,-28.979999542236328
1766402572331503600,13.249503662109374,13.679999351501465,34.91999816894531,-28.01999855041504
1766402572341513200,13.25951318359375,13.5,35.7599983215332,-26.51999855041504
1766402572351523000,13.269523193359374,12.779999732971191,36.89999771118164,-25.559999465942383
1766402572361533000,13.279532958984374,11.579999923706055,37.439998626708984,-24.600000381469727
1766402572371573200,13.2895732421875,11.699999809265137,38.279998779296875,-23.579999923706055
1766402572381552400,13.299552490234374,11.819999694824219,38.81999969482422,-22.079999923706055
1766402572411642600,13.329642578125,11.9399995803833,39.84000015258789,-19.85999870300293
1766402572421652500,13.339652587890624,11.460000038146973,40.68000030517578,-19.079999923706055
1766402572431692800,13.34969287109375,10.319999694824219,40.68000030517578,-17.940000534057617
1766402572441702700,13.35970263671875,10.260000228881836,41.279998779296875,-16.739999771118164
1766402572451712300,13.369712158203125,10.920000076293945,41.63999938964844,-15.299999237060547
1766402572461722000,13.37972216796875,11.579999923706055,41.939998626708984,-14.699999809265137
1766402572471731700,13.389731689453125,12.420000076293945,41.939998626708984,-14.279999732971191
1766402572481741600,13.399741455078125,13.079999923706055,42.23999786376953,-14.279999732971191
1766402572491751400,13.40975146484375,13.679999351501465,41.52000045776367,-13.679999351501465
1766402572531821000,13.449821044921874,16.799999237060547,40.2599983215332,-10.859999656677246
1766402572541830700,13.45983056640625,16.799999237060547,40.2599983215332,-11.09999942779541
1766402572551871000,13.46987109375,16.3799991607666,39.84000015258789,-12
1766402572561850400,13.479850341796874,15.899999618530273,40.02000045776367,-11.34000015258789
1766402572571890400,13.489890380859375,16.260000228881836,40.86000061035156,-11.15999984741211
1766402572581930800,13.4999306640625,16.260000228881836,40.5,-11.579999923706055
1766402572591940600,13.509940673828124,15.839999198913574,40.97999954223633,-11.219999313354492
1766402572601950500,13.519950439453124,16.139999389648438,41.15999984741211,-11.15999984741211
1766402572631979500,13.5499794921875,16.440000534057617,41.099998474121094,-12.179999351501465
1766402572642019800,13.560019775390625,15.65999984741211,40.73999786376953,-12.84000015258789
1766402572652060200,13.57006005859375,15.59999942779541,41.21999740600586,-13.139999389648438
1766402572662039600,13.58003955078125,14.75999927520752,41.099998474121094,-13.019999504089355
1766402572672079600,13.59007958984375,14.279999732971191,41.459999084472656,-12.119999885559082
1766402572682089500,13.60008935546875,14.219999313354492,42.29999923706055,-11.9399995803833
1766402572692129800,13.6101298828125,13.859999656677246,42.47999954223633,-11.579999923706055
1766402572702170000,13.620170166015624,14.279999732971191,42.05999755859375,-11.579999923706055
1766402572712179700,13.6301796875,13.199999809265137,42.599998474121094,-11.639999389648438
1766402572732199400,13.650199462890624,14.399999618530273,42.18000030517578,-11.279999732971191
1766402572742209000,13.660208984375,14.399999618530273,42.779998779296875,-11.09999942779541
1766402572752219000,13.670218994140624,14.699999809265137,42.959999084472656,-11.399999618530273
1766402572762228700,13.680228759765624,13.679999351501465,41.87999725341797,-12.359999656677246
1766402572772238300,13.69023828125,13.979999542236328,42.65999984741211,-11.460000038146973
1766402572782248200,13.700248291015624,13.920000076293945,42.36000061035156,-11.219999313354492
1766402572802298400,13.72029833984375,14.279999732971191,43.02000045776367,-9.65999984741211
1766402572812308000,13.730307861328125,13.679999351501465,42.18000030517578,-10.800000190734863
1766402572852347100,13.77034716796875,12.420000076293945,42.540000915527344,-11.639999389648438
1766402572862387500,13.780387451171874,12.719999313354492,42.47999954223633,-11.460000038146973
1766402572872397000,13.79039697265625,13.199999809265137,42.119998931884766,-11.219999313354492
1766402572882437400,13.800437255859375,13.979999542236328,41.87999725341797,-10.859999656677246
1766402572892477700,13.810477783203124,13.799999237060547,42.23999786376953,-10.559999465942383
1766402572902487600,13.820487548828124,13.019999504089355,42.71999740600586,-9.960000038146973
1766402572912527600,13.830527587890625,12.420000076293945,42.779998779296875,-10.199999809265137
1766402572942618000,13.8606181640625,12.119999885559082,42.29999923706055,-9.779999732971191
1766402572952627700,13.870627685546875,13.139999389648438,42.36000061035156,-9.479999542236328
1766402572962637600,13.880637451171875,13.199999809265137,42.89999771118164,-9.539999961853027
1766402572972647400,13.8906474609375,13.139999389648438,42.779998779296875,-9.65999984741211
1766402572982657000,13.900656982421875,12.960000038146973,43.20000076293945,-9.899999618530273
1766402572992667000,13.9106669921875,11.75999927520752,43.31999969482422,-10.139999389648438
1766402573012717000,13.930717041015624,12.420000076293945,43.20000076293945,-9.359999656677246
1766402573032736500,13.950736572265624,12.179999351501465,43.20000076293945,-8.819999694824219
1766402573042746400,13.960746337890624,11.279999732971191,43.619998931884766,-9.420000076293945
1766402573052786400,13.970786376953125,11.15999984741211,43.07999801635742,-9.119999885559082
1766402573062796300,13.98079638671875,11.519999504089355,42.89999771118164,-9.65999984741211
1766402573072806100,13.99080615234375,12,42.89999771118164,-9.65999984741211
1766402573082815700,14.000815673828125,12.65999984741211,42.36000061035156,-10.199999809265137
1766402573092825600,14.01082568359375,12.960000038146973,42.65999984741211,-10.679999351501465
1766402573102835500,14.02083544921875,13.380000114440918,42.41999816894531,-10.319999694824219
1766402573112845000,14.030844970703125,12.719999313354492,42.23999786376953,-10.260000228881836
1766402573122885400,14.040885498046874,12.420000076293945,42.36000061035156,-9.84000015258789
1766402573152945200,14.070945068359375,13.739999771118164,43.5,-9.179999351501465
1766402573163016000,14.081015869140625,14.460000038146973,43.439998626708984,-9.059999465942383
1766402573172964900,14.09096484375,15.239999771118164,43.619998931884766,-8.819999694824219
1766402573182974500,14.100974365234375,15.420000076293945,43.02000045776367,-8.760000228881836
1766402573192984300,14.110984375,14.519999504089355,42.540000915527344,-9
1766402573202994000,14.120993896484375,13.5,42.71999740600586,-8.760000228881836
1766402573213034200,14.1310341796875,12.539999961853027,41.939998626708984,-9.300000190734863
1766402573223044000,14.141044189453124,11.399999618530273,41.7599983215332,-8.880000114440918
1766402573233084400,14.15108447265625,12,42.599998474121094,-7.919999599456787
1766402573273184500,14.1911845703125,13.679999351501465,43.439998626708984,-7.919999599456787
1766402573283163600,14.20116357421875,14.15999984741211,43.619998931884766,-7.739999771118164
1766402573293234400,14.211234375,14.460000038146973,43.619998931884766,-8.09999942779541
1766402573303305200,14.22130517578125,13.559999465942383,43.37999725341797,-8.639999389648438
1766402573313345500,14.231345458984375,12.59999942779541,43.13999938964844,-8.9399995803833
1766402573323325000,14.241324951171874,11.819999694824219,43.07999801635742,-8.460000038146973
1766402573333334500,14.25133447265625,10.619999885559082,42.959999084472656,-8.15999984741211
1766402573363363800,14.28136376953125,10.139999389648438,43.5,-7.319999694824219
1766402573373373700,14.291373779296874,9.719999313354492,43.31999969482422,-7.440000057220459
1766402573383352800,14.301352783203125,10.4399995803833,43.13999938964844,-6.899999618530273
1766402573423422500,14.34142236328125,12.179999351501465,42.959999084472656,-6.599999904632568
1766402573433493200,14.3514931640625,11.75999927520752,42.959999084472656,-7.440000057220459
1766402573443442000,14.36144189453125,11.519999504089355,43.37999725341797,-7.440000057220459
1766402573473502000,14.391501953125,10.319999694824219,42.959999084472656,-6.659999847412109
1766402573483481000,14.401481201171874,9.899999618530273,42.89999771118164,-6.899999618530273
1766402573493521400,14.411521484375,10.4399995803833,43.439998626708984,-6.659999847412109
1766402573503561700,14.421561767578124,10.4399995803833,43.619998931884766,-6.71999979019165
1766402573513571300,14.4315712890625,9.539999961853027,43.73999786376953,-6.779999732971191
1766402573523550700,14.44155078125,9.300000190734863,43.619998931884766,-7.139999866485596
1766402573533591000,14.451591064453124,8.579999923706055,43.5,-7.440000057220459
1766402573543661800,14.461661865234374,8.699999809265137,43.37999725341797,-7.799999713897705
1766402573573752000,14.491751953125,9.539999961853027,43.619998931884766,-8.220000267028809
1766402573583762000,14.501761962890624,9.300000190734863,43.5,-7.799999713897705
1766402573593802200,14.51180224609375,8.519999504089355,43.619998931884766,-8.15999984741211
1766402573603811800,14.521811767578125,7.799999713897705,43.86000061035156,-8.34000015258789
1766402573613821700,14.53182177734375,7.259999752044678,44.15999984741211,-8.699999809265137
1766402573623831600,14.54183154296875,6.299999713897705,44.459999084472656,-9.779999732971191
1766402573633871600,14.55187158203125,5.940000057220459,44.21999740600586,-9.960000038146973
1766402573643881500,14.561881591796874,5.819999694824219,44.040000915527344,-10.5
1766402573673941200,14.591941162109375,6.839999675750732,43.97999954223633,-10.800000190734863
1766402573693991400,14.611991455078124,7.5,43.2599983215332,-11.279999732971191
1766402573704001000,14.6220009765625,7.5,43.439998626708984,-11.519999504089355
1766402573714011000,14.632010986328124,6.839999675750732,43.79999923706055,-11.639999389648438
1766402573723990000,14.641989990234375,5.699999809265137,43.619998931884766,-12
1766402573734030300,14.6520302734375,5.759999752044678,43.91999816894531,-11.75999927520752
1766402573744040200,14.662040283203124,5.519999980926514,44.099998474121094,-11.34000015258789
1766402573774100000,14.692099853515625,6.960000038146973,44.21999740600586,-12.359999656677246
1766402573794150100,14.712150146484374,5.819999694824219,43.5,-13.619999885559082
1766402573804129300,14.72212939453125,5.819999694824219,43.68000030517578,-13.319999694824219
1766402573814169600,14.732169677734374,4.440000057220459,43.5,-13.5
1766402573824179500,14.742179443359374,3.8999998569488525,43.86000061035156,-13.799999237060547
1766402573834219500,14.752219482421875,3.9599997997283936,43.619998931884766,-12.960000038146973
1766402573844290300,14.762290283203125,4.380000114440918,43.55999755859375,-13.319999694824219
1766402573854300200,14.772300048828125,5.279999732971191,43.68000030517578,-13.380000114440918
1766402573884329500,14.80232958984375,5.21999979019165,43.439998626708984,-15.779999732971191
1766402573904349000,14.822348876953125,4.199999809265137,43.13999938964844,-16.85999870300293
1766402573914358800,14.83235888671875,3.6599998474121094,42.65999984741211,-17.279998779296875
1766402573924368600,14.84236865234375,3.4800000190734863,42.65999984741211,-18.35999870300293
1766402573934378200,14.852378173828125,3.9599997997283936,42.47999954223633,-19.5
1766402573944388000,14.86238818359375,3.419999837875366,41.63999938964844,-20.760000228881836
1766402573954398000,14.87239794921875,4.199999809265137,41.63999938964844,-21.53999900817871
1766402573984457700,14.902457763671874,5.940000057220459,39.599998474121094,-23.219999313354492
1766402574024496600,14.94249658203125,4.920000076293945,37.07999801635742,-29.399999618530273
1766402574034506500,14.952506591796874,5.159999847412109,36.599998474121094,-30.35999870300293
1766402574044516400,14.962516357421874,5.460000038146973,35.52000045776367,-32.040000915527344
1766402574054556400,14.972556396484375,5.039999961853027,34.439998626708984,-33.36000061035156
1766402574064566300,14.982566162109375,4.799999713897705,33.71999740600586,-34.13999938964844
1766402574104636000,15.022635986328124,6.839999675750732,28.979999542236328,-37.79999923706055
1766402574114645800,15.032645751953124,7.319999694824219,28.139999389648438,-38.939998626708984
1766402574124655400,15.0426552734375,7.679999828338623,26.579999923706055,-39.89999771118164
1766402574134665200,15.052665283203124,6.960000038146973,25.01999855041504,-41.040000915527344
1766402574144675000,15.062675048828124,7.679999828338623,23.639999389648438,-41.70000076293945
1766402574154684700,15.0726845703125,7.440000057220459,21.779998779296875,-42.29999923706055
1766402574164694500,15.082694580078124,8.039999961853027,20.15999984741211,-43.439998626708984
1766402574204733400,15.1227333984375,9.059999465942383,16.3799991607666,-45.599998474121094
1766402574214743300,15.132743408203124,7.559999942779541,15.299999237060547,-45.959999084472656
1766402574224753200,15.142753173828124,7.019999980926514,13.979999542236328,-46.73999786376953
1766402574234762800,15.1527626953125,6.539999961853027,12.899999618530273,-47.34000015258789
1766402574244772600,15.162772705078124,6.359999656677246,11.75999927520752,-47.70000076293945
1766402574254873900,15.172873779296875,6.539999961853027,11.34000015258789,-47.70000076293945
1766402574264944600,15.182944580078125,5.519999980926514,10.4399995803833,-47.63999938964844
1766402574274954500,15.19295458984375,5.099999904632568,10.139999389648438,-47.279998779296875
1766402574315054600,15.2330546875,5.159999847412109,8.880000114440918,-48
1766402574335104500,15.2531044921875,4.259999752044678,8.09999942779541,-48.47999954223633
1766402574345084000,15.263083984375,4.259999752044678,7.859999656677246,-48.36000061035156
1766402574355124200,15.273124267578124,4.199999809265137,7.319999694824219,-48.119998931884766
1766402574365133800,15.2831337890625,4.619999885559082,7.019999980926514,-48.119998931884766
1766402574375143700,15.293143798828124,4.559999942779541,7.139999866485596,-47.57999801635742
1766402574415213300,15.33321337890625,3.9599997997283936,7.319999694824219,-48.23999786376953
1766402574425223200,15.34322314453125,3.359999895095825,7.37999963760376,-48
1766402574435232800,15.353232666015625,3.419999837875366,6.960000038146973,-47.57999801635742
1766402574445242600,15.36324267578125,3.8999998569488525,6.299999713897705,-47.52000045776367
1766402574455252200,15.373252197265625,3.179999828338623,6.480000019073486,-47.939998626708984
1766402574465262000,15.383261962890625,3.8399999141693115,7.019999980926514,-48.36000061035156
1766402574475272000,15.39327197265625,3.359999895095825,7.319999694824219,-48.23999786376953
1766402574485281500,15.403281494140625,3,7.799999713897705,-48.599998474121094
1766402574515402500,15.433402587890624,2.93999981880188,7.259999752044678,-48.47999954223633
1766402574525412400,15.443412353515624,3.059999942779541,7.259999752044678,-48.18000030517578
1766402574535422000,15.453421875,2.4600000381469727,7.619999885559082,-47.87999725341797
1766402574545431800,15.463431884765624,2.3999998569488525,7.559999942779541,-47.34000015258789
1766402574565451300,15.483451171875,2.759999990463257,7.139999866485596,-47.57999801635742
1766402574575522000,15.49352197265625,2.6399998664855957,6.960000038146973,-47.7599983215332
1766402574585532000,15.503531982421874,3.299999952316284,6.960000038146973,-47.87999725341797
1766402574625632000,15.543632080078124,3,7.619999885559082,-47.87999725341797
1766402574635641900,15.553641845703124,2.819999933242798,7.199999809265137,-48.05999755859375
1766402574645651500,15.5636513671875,2.3399999141693115,7.259999752044678,-48
1766402574655661300,15.573661376953124,2.1599998474121094,6.960000038146973,-48
1766402574665610000,15.58360986328125,1.6200000047683716,7.139999866485596,-48.47999954223633
1766402574675619800,15.593619873046874,1.1999999284744263,7.619999885559082,-47.63999938964844
1766402574685629400,15.60362939453125,1.7400000095367432,7.319999694824219,-48.05999755859375
1766402574725638100,15.64363818359375,2.1599998474121094,8.880000114440918,-47.63999938964844
1766402574735647700,15.653647705078125,2.759999990463257,8.760000228881836,-47.279998779296875
1766402574745657600,15.66365771484375,3.299999952316284,8.460000038146973,-47.52000045776367
1766402574755667500,15.67366748046875,3.5399999618530273,8.34000015258789,-47.87999725341797
1766402574765677000,15.683677001953125,3.299999952316284,8.34000015258789,-47.81999969482422
1766402574775687000,15.69368701171875,2.3999998569488525,8.519999504089355,-47.87999725341797
1766402574785696800,15.70369677734375,2.2799999713897705,8.9399995803833,-47.15999984741211
1766402574795706400,15.713706298828125,1.6200000047683716,9.300000190734863,-46.86000061035156
1766402574835745500,15.75374560546875,0.6599999666213989,9.239999771118164,-46.97999954223633
1766402574845755400,15.76375537109375,0.23999999463558197,8.519999504089355,-47.34000015258789
1766402574855795500,15.77379541015625,0.8399999737739563,9.119999885559082,-47.099998474121094
1766402574865805300,15.783805419921874,0.47999998927116394,8.519999504089355,-46.91999816894531
1766402574885824800,15.80382470703125,-0.11999999731779099,8.09999942779541,-46.37999725341797
1766402574895865000,15.813864990234375,-0.11999999731779099,7.679999828338623,-46.79999923706055
1766402574905844500,15.823844482421874,-0.6599999666213989,8.09999942779541,-46.68000030517578
1766402574925894400,15.843894287109375,-1.9199999570846558,7.859999656677246,-47.34000015258789
1766402574945944600,15.863944580078124,-3.9599997997283936,7.079999923706055,-47.03999710083008
1766402574955984600,15.873984619140625,-3.5399999618530273,6.659999847412109,-46.73999786376953
1766402574965964000,15.883964111328124,-4.139999866485596,6.659999847412109,-46.79999923706055
1766402574975974000,15.893973876953124,-3.419999837875366,6.480000019073486,-46.73999786376953
1766402574985983500,15.9039833984375,-3,6.420000076293945,-46.97999954223633
1766402574996023800,15.91402392578125,-2.93999981880188,6.299999713897705,-47.21999740600586
1766402575006003200,15.924003173828124,-3.419999837875366,6.299999713897705,-46.13999938964844
1766402575046072600,15.964072509765625,-4.5,6.179999828338623,-46.2599983215332
1766402575056082400,15.97408251953125,-5.159999847412109,5.759999752044678,-46.07999801635742
1766402575066122800,15.984122802734374,-6.179999828338623,5.339999675750732,-46.5
1766402575076132400,15.99413232421875,-6,5.699999809265137,-46.37999725341797
1766402575086142200,16.00414208984375,-7.079999923706055,5.339999675750732,-46.439998626708984
1766402575096152000,16.014152099609376,-6.299999713897705,6.119999885559082,-46.2599983215332
1766402575106161700,16.02416162109375,-6.059999942779541,5.819999694824219,-46.13999938964844
1766402575116202000,16.034201904296875,-6.480000019073486,5.460000038146973,-45.959999084472656
1766402575146292500,16.06429248046875,-5.699999809265137,5.21999979019165,-46.86000061035156
1766402575166281500,16.084281494140626,-3.299999952316284,6.599999904632568,-46.37999725341797
1766402575176321800,16.09432177734375,-3.419999837875366,6.539999961853027,-46.5
1766402575186331400,16.104331298828125,-3.5399999618530273,6,-47.099998474121094
1766402575206351000,16.12435107421875,-4.440000057220459,5.819999694824219,-47.279998779296875
1766402575216360700,16.134360595703125,-4.199999809265137,6,-47.21999740600586
1766402575256400000,16.17439990234375,-4.380000114440918,6.539999961853027,-46.55999755859375
1766402575266409500,16.184409423828125,-4.019999980926514,6.599999904632568,-46.79999923706055
1766402575276480300,16.194480224609375,-4.199999809265137,6.539999961853027,-46.79999923706055
1766402575286551300,16.20455126953125,-3.8999998569488525,6.539999961853027,-47.03999710083008
1766402575296561000,16.214560791015625,-3.7799999713897705,6.119999885559082,-47.15999984741211
1766402575306570800,16.22457080078125,-3.059999942779541,5.940000057220459,-46.91999816894531
1766402575316580400,16.234580322265625,-2.3999998569488525,5.579999923706055,-46.5
1766402575346609700,16.264609619140625,-2.6399998664855957,6.359999656677246,-46.20000076293945
1766402575366598700,16.2845986328125,-2.4600000381469727,6.239999771118164,-46.5
1766402575376608500,16.2946083984375,-2.2200000286102295,6.059999942779541,-46.07999801635742
1766402575386618400,16.304618408203126,-1.6799999475479126,5.87999963760376,-46.31999969482422
1766402575396628000,16.3146279296875,-2.0399999618530273,5.87999963760376,-46.2599983215332
1766402575406637800,16.324637939453126,-2.93999981880188,6.059999942779541,-46.31999969482422
1766402575416678100,16.33467822265625,-2.93999981880188,6.059999942779541,-46.55999755859375
1766402575426688000,16.34468798828125,-3.359999895095825,6.059999942779541,-46.20000076293945
1766402575466757400,16.38475732421875,-2.759999990463257,5.21999979019165,-47.939998626708984
1766402575476767200,16.394767333984376,-1.5,5.159999847412109,-47.81999969482422
1766402575486746400,16.404746337890625,-0.41999998688697815,5.159999847412109,-47.63999938964844
1766402575496756200,16.414756103515625,-0.23999999463558197,4.920000076293945,-46.86000061035156
1766402575506705000,16.424704833984375,-0.47999998927116394,5.159999847412109,-46.68000030517578
1766402575516714800,16.43471484375,-1.7400000095367432,5.400000095367432,-46.86000061035156
1766402575526724600,16.444724609375,-2.2799999713897705,6.119999885559082,-46.68000030517578
1766402575566763500,16.484763427734375,-2.759999990463257,6.359999656677246,-47.03999710083008
1766402575576773400,16.4947734375,-2.5799999237060547,6.359999656677246,-46.97999954223633
1766402575586813700,16.504813720703126,-1.7999999523162842,6.239999771118164,-46.31999969482422
1766402575596823300,16.5148232421875,-1.6799999475479126,6.659999847412109,-46.20000076293945
1766402575606833200,16.524833251953126,-1.5,6.599999904632568,-45.779998779296875
1766402575616843000,16.534843017578126,-2.0999999046325684,7.139999866485596,-46.31999969482422
1766402575626852600,16.5448525390625,-2.700000047683716,7.259999752044678,-46.73999786376953
1766402575636862500,16.554862548828126,-2.759999990463257,7.199999809265137,-46.68000030517578
1766402575676932000,16.59493212890625,-2.759999990463257,10.739999771118164,-46.97999954223633
1766402575686941700,16.604941650390625,-2.759999990463257,11.639999389648438,-46.91999816894531
1766402575696951600,16.61495166015625,-2.0399999618530273,12.239999771118164,-46.55999755859375
1766402575706991900,16.624991943359376,-2.1599998474121094,12.960000038146973,-45.599998474121094
1766402575717032200,16.6350322265625,-2.5199999809265137,13.380000114440918,-44.81999969482422
1766402575727041800,16.645041748046875,-2.5799999237060547,13.619999885559082,-44.279998779296875
1766402575737021200,16.655021240234376,-3.119999885559082,15.779999732971191,-43.79999923706055
1766402575777090800,16.6950908203125,-2.879999876022339,20.279998779296875,-42.599998474121094
1766402575787070000,16.705070068359376,-2.5199999809265137,21.479999542236328,-42.05999755859375
1766402575797079800,16.715079833984376,-1.5,21.959999084472656,-41.63999938964844
1766402575807089400,16.72508935546875,-1.2599999904632568,24.299999237060547,-40.02000045776367
1766402575827078400,16.745078369140625,0.41999998688697815,26.760000228881836,-39.23999786376953
1766402575837118700,16.75511865234375,-0.35999998450279236,28.139999389648438,-37.97999954223633
1766402575877158000,16.795157958984376,-1.1399999856948853,31.799999237060547,-35.63999938964844
1766402575887228700,16.805228759765626,-1.3199999332427979,31.799999237060547,-34.86000061035156
1766402575897238500,16.815238525390626,-0.29999998211860657,32.63999938964844,-34.20000076293945
1766402575907248000,16.825248046875,0.47999998927116394,33.23999786376953,-33.36000061035156
1766402575917258000,16.835258056640626,1.1399999856948853,33.599998474121094,-32.459999084472656
1766402575937277400,16.85527734375,3.299999952316284,34.86000061035156,-31.139999389648438
1766402575977347000,16.89534716796875,4.259999752044678,37.79999923706055,-28.68000030517578
1766402575987326200,16.905326171875,4.380000114440918,38.81999969482422,-28.19999885559082
1766402575997366500,16.915366455078125,5.579999923706055,38.040000915527344,-27.65999984741211
1766402576007376400,16.92537646484375,5.699999809265137,37.86000061035156,-26.939998626708984
1766402576017416700,16.935416748046876,6.779999732971191,37.86000061035156,-25.799999237060547
1766402576027395800,16.945395751953125,6.659999847412109,38.040000915527344,-24.779998779296875
1766402576037375200,16.955375244140626,6.299999713897705,39.18000030517578,-24.53999900817871
1766402576047384800,16.965384765625,6.599999904632568,39.41999816894531,-24.239999771118164
1766402576077414100,16.9954140625,6.480000019073486,40.20000076293945,-23.639999389648438
