time,seconds_elapsed,z,y,x
1766402558175680800,-0.9063193359375,9.919178009033203,0.3280056416988373,-1.2976573705673218
1766402558195731000,-0.88626904296875,9.84495735168457,0.35673606395721436,-1.316810965538025
1766402558205771300,-0.876228759765625,9.758766174316406,0.016759412363171577,-1.625662922859192
1766402558215780900,-0.86621923828125,10.002974510192871,-1.4676456451416016,-3.847482204437256
1766402558225821200,-0.8561787109375,9.945513725280762,0.5027823448181152,-0.7086837291717529
1766402558235800300,-0.84619970703125,10.189722061157227,0.4405331015586853,-0.8643068075180054
1766402558245840600,-0.836159423828125,10.512939453125,0.6607996821403503,-1.359906554222107
1766402558255850500,-0.8261494140625,10.120290756225586,-0.10534487664699554,-1.3742717504501343
1766402558265860400,-0.8161396484375,10.031704902648926,-0.2849099934101105,-1.1563993692398071
1766402558275870000,-0.806130126953125,9.99100399017334,-0.06703764945268631,-1.3503297567367554
1766402558285879800,-0.7961201171875,9.813833236694336,0.45250412821769714,-1.3646949529647827
1766402558335959000,-0.746041015625,10.041281700134277,0.15322890877723694,-1.3503297567367554
1766402558345969000,-0.736031005859375,10.127472877502441,0.16519992053508759,-1.1540051698684692
1766402558355978800,-0.726021240234375,10.010157585144043,-0.05267243832349777,-1.4221558570861816
1766402558366019000,-0.71598095703125,9.861717224121094,-0.06703764945268631,-1.4700398445129395
1766402558375998200,-0.706001708984375,9.81143856048584,-0.023942016065120697,-1.3239935636520386
1766402558386069000,-0.695930908203125,9.885659217834473,0.23702596127986908,-1.2545616626739502
1766402558396139800,-0.685860107421875,9.840168952941895,0.3016694188117981,-1.359906554222107
1766402558406180000,-0.67581982421875,9.847352027893066,0.2801215946674347,-1.3120225667953491
1766402558426199600,-0.655800537109375,9.835380554199219,0.24420857429504395,-1.2665326595306396
1766402558436240000,-0.645760009765625,9.828198432922363,0.014365210197865963,-1.173158884048462
1766402558446249700,-0.635750244140625,9.8784761428833,0.047884032130241394,-1.2761094570159912
1766402558456228900,-0.625771240234375,9.80904483795166,0.06703764945268631,-1.3862427473068237
1766402558476279000,-0.605720947265625,9.806650161743164,0.2753331959247589,-1.2665326595306396
1766402558486288600,-0.59571142578125,9.890447616577148,0.19153612852096558,-1.2018892765045166
1766402558496298500,-0.585701416015625,9.840168952941895,0.3064578175544739,-1.3479355573654175
1766402558526358300,-0.555641845703125,9.856928825378418,0.31364041566848755,-1.3263877630233765
1766402558536337700,-0.545662353515625,9.914389610290527,0.14604631066322327,-1.434126853942871
1766402558546347300,-0.53565283203125,9.907206535339355,-0.06464344263076782,-1.3742717504501343
1766402558556357000,-0.525642822265625,9.856928825378418,0.031124621629714966,-1.4772224426269531
1766402558576407000,-0.505593017578125,9.730035781860352,0.17956513166427612,-1.3503297567367554
1766402558586417000,-0.4955830078125,9.739612579345703,0.11971008777618408,-1.3120225667953491
1766402558596426800,-0.4855732421875,9.847352027893066,0.2106897532939911,-1.2114660739898682
1766402558606436400,-0.475563720703125,9.940725326538086,0.16519992053508759,-1.213860273361206
1766402558616446200,-0.4655537109375,9.911994934082031,0.014365210197865963,-1.292868971824646
1766402558626456000,-0.4555439453125,9.923966407775879,0.0933738648891449,-1.3072341680526733
1766402558636496100,-0.44550390625,9.84256362915039,0.22266076505184174,-1.2617442607879639
1766402558646506000,-0.435493896484375,9.78989028930664,0.2298433631658554,-1.2306196689605713
1766402558656515800,-0.425484130859375,9.794678688049316,0.2059013396501541,-1.292868971824646
1766402558666525400,-0.415474609375,9.837775230407715,0.14604631066322327,-1.3192051649093628
1766402558676535300,-0.405464599609375,9.981427192687988,-0.023942016065120697,-1.414973258972168
1766402558686575600,-0.39542431640625,9.99339771270752,0.16519992053508759,-1.2761094570159912
1766402558696585500,-0.38541455078125,9.923966407775879,0.20350714027881622,-1.2473790645599365
1766402558706595000,-0.375405029296875,9.907206535339355,0.2298433631658554,-1.3694833517074585
1766402558736624400,-0.345375732421875,10.079588890075684,0.11013327538967133,-1.381454348564148
1766402558746664700,-0.335335205078125,10.062829971313477,0.20111294090747833,-1.2713210582733154
1766402558756705000,-0.325294921875,10.0580415725708,0.14604631066322327,-1.2976573705673218
1766402558766714600,-0.315285400390625,9.928754806518555,0.19393034279346466,-1.2473790645599365
1766402558776724500,-0.305275634765625,9.84256362915039,0.3471592366695404,-1.290474772453308
1766402558796805000,-0.28519482421875,9.816226959228516,0.009576806798577309,-1.4724340438842773
1766402558896902700,-0.185097412109375,9.742006301879883,0.17717093229293823,-1.3623007535934448
1766402558906943000,-0.17505712890625,9.636661529541016,0.20111294090747833,-1.3646949529647827
1766402558916952800,-0.165047119140625,9.720458984375,0.047884032130241394,-1.4077905416488647
1766402558926962400,-0.15503759765625,9.818621635437012,0.05985504388809204,-1.4197616577148438
1766402558936941800,-0.14505810546875,9.895236015319824,-0.004788403399288654,-1.2713210582733154
1766402558947012600,-0.1349873046875,9.919178009033203,0.05267243832349777,-1.314416766166687
1766402558956991700,-0.12500830078125,9.926360130310059,0.17717093229293823,-1.2856862545013428
1766402558987082200,-0.094917724609375,9.797073364257812,0.3232172429561615,-1.2665326595306396
1766402559027152000,-0.05484814453125,9.96945571899414,0.06464344263076782,-1.3766659498214722
1766402559037161500,-0.044838623046875,9.938331604003906,0.19393034279346466,-1.292868971824646
1766402559047171300,-0.03482861328125,9.861717224121094,0.2537853717803955,-1.2401964664459229
1766402559057150500,-0.024849609375,9.8784761428833,0.2561795711517334,-1.3072341680526733
1766402559067190800,-0.014809326171875,9.859322547912598,0.06224924325942993,-1.2282254695892334
1766402559077200600,-0.00479931640625,9.897629737854004,0.090979665517807,-1.292868971824646
1766402559087210200,0.005210205078125,10.031704902648926,-0.07182604819536209,-1.2066776752471924
1766402559097189600,0.015189697265625,9.95748519897461,-0.05985504388809204,-1.290474772453308
1766402559107260400,0.025260498046875,10.007762908935547,-0.08379705995321274,-1.3287819623947144
1766402559117270300,0.035270263671875,10.038887977600098,0.07182604819536209,-1.2425906658172607
1766402559127279900,0.04527978515625,10.134655952453613,0.24899697303771973,-1.4293384552001953
1766402559137259300,0.05525927734375,10.647014617919922,0.768538773059845,-2.1332337856292725
1766402559167319000,0.085319091796875,9.81143856048584,0.507570743560791,-1.6376339197158813
1766402559177328600,0.09532861328125,9.773131370544434,0.15083470940589905,-2.497152328491211
1766402559187369000,0.105368896484375,9.715670585632324,0.6033388376235962,-2.2170307636260986
1766402559197378800,0.11537890625,9.411606788635254,0.3687070608139038,-1.3766659498214722
1766402559207388700,0.125388671875,9.476250648498535,0.7924807667732239,-1.9632453918457031
1766402559217367800,0.135367919921875,9.715670585632324,0.9696516990661621,-2.7509377002716064
1766402559227408100,0.145408203125,9.744400978088379,0.5985504388809204,-2.5474305152893066
1766402559237418000,0.15541796875,9.66539192199707,-0.14844051003456116,-2.3702597618103027
1766402559247458000,0.1654580078125,9.5408935546875,-0.26096799969673157,-2.473210334777832
1766402559267477800,0.185477783203125,9.478644371032715,0.22026655077934265,-1.9177556037902832
1766402559277487400,0.1954873046875,9.495404243469238,-0.06703764945268631,-1.647210717201233
1766402559287497200,0.205497314453125,9.318233489990234,-0.4908113479614258,-1.4939818382263184
1766402559307516700,0.2255166015625,9.751583099365234,-0.6967126727104187,-1.4915876388549805
1766402559317526500,0.235526611328125,9.945513725280762,-0.8762778043746948,-1.525106430053711
1766402559327536400,0.245536376953125,9.983820915222168,-0.5722141861915588,-1.5442601442337036
1766402559337546000,0.2555458984375,10.04846477508545,-0.2082955539226532,-1.5921441316604614
1766402559347555800,0.265555908203125,9.725247383117676,0.35434186458587646,-1.4652514457702637
1766402559357565700,0.275565673828125,9.509769439697266,-0.011971008032560349,-1.1516109704971313
1766402559367605800,0.285605712890625,9.191340446472168,-1.0582371950149536,-0.7972691655158997
1766402559377615600,0.29561572265625,9.150638580322266,-1.6543933153152466,-0.4908113479614258
1766402559387686400,0.305686279296875,9.425971984863281,-1.5729905366897583,-0.304063618183136
1766402559397696300,0.3156962890625,9.84495735168457,-1.4532804489135742,-0.3687070608139038
1766402559407705900,0.325705810546875,10.335768699645996,-1.2473790645599365,-0.507570743560791
1766402559417685200,0.335685302734375,10.445901870727539,-1.436521053314209,-0.5817909836769104
1766402559427725600,0.3457255859375,10.565611839294434,-1.2737152576446533,-0.6751648783683777
1766402559437735200,0.355735107421875,10.491392135620117,-0.9528923034667969,-0.47165772318840027
1766402559447745000,0.3657451171875,10.457873344421387,-0.9959878921508789,-0.4644751250743866
1766402559457724200,0.37572412109375,10.448296546936035,-1.0869675874710083,-0.3902548849582672
1766402559487845000,0.40584521484375,10.426748275756836,-1.37906014919281,-0.19871874153614044
1766402559497855000,0.41585498046875,10.433931350708008,-1.2713210582733154,-0.07661445438861847
1766402559507834000,0.425834228515625,10.362105369567871,-1.5298948287963867,-0.2298433631658554
1766402559517844000,0.435843994140625,10.046070098876953,-1.8076223134994507,-0.15083470940589905
1766402559527853600,0.445853515625,9.797073364257812,-2.0614075660705566,0.09576806426048279
1766402559537863400,0.455863525390625,9.713275909423828,-1.9608511924743652,-0.038307227194309235
1766402559547903700,0.46590380859375,9.832986831665039,-1.8794482946395874,-0.181959331035614
1766402559557883000,0.4758828125,9.832986831665039,-1.8794482946395874,-0.181959331035614
1766402559577933000,0.49593310546875,9.84256362915039,-1.7046716213226318,-0.37828385829925537
1766402559587973400,0.505973388671875,9.72285270690918,-1.3215993642807007,-0.5027823448181152
1766402559598013700,0.516013671875,9.5408935546875,-0.8403648138046265,-0.4884171485900879
1766402559608023300,0.526023193359375,9.311050415039062,-0.7158663272857666,-0.5674257874488831
1766402559618002700,0.536002685546875,9.026140213012695,-0.9289502501487732,-0.7015010714530945
1766402559628042800,0.546042724609375,8.757989883422852,-1.2114660739898682,-0.5482721924781799
1766402559638052600,0.556052490234375,8.69095230102539,-1.6759412288665771,-0.6344634294509888
1766402559648062500,0.5660625,8.712499618530273,-2.161964178085327,-0.6344634294509888
1766402559658041600,0.57604150390625,8.808267593383789,-2.123656988143921,-0.7206547260284424
1766402559678091800,0.596091796875,9.193734169006348,-2.161964178085327,-0.6631938815116882
1766402559688101400,0.606101318359375,9.41639518737793,-2.434903144836426,-0.7350199222564697
1766402559698111200,0.616111328125,9.617507934570312,-2.7054479122161865,-0.9481038451194763
1766402559708151600,0.626151611328125,9.5408935546875,-2.650381326675415,-0.9696516990661621
1766402559718191900,0.63619189453125,9.521739959716797,-2.4588451385498047,-0.7565677165985107
1766402559728201500,0.646201416015625,9.521739959716797,-2.5043349266052246,-0.5841852426528931
1766402559738211300,0.65621142578125,9.423578262329102,-2.360682964324951,-0.4596867263317108
1766402559748221200,0.66622119140625,9.390059471130371,-2.343923568725586,-0.30885201692581177
1766402559758230800,0.676230712890625,9.502586364746094,-2.4229321479797363,-0.2968810200691223
1766402559768271000,0.68627099609375,9.593565940856934,-2.4420857429504395,-0.1843535304069519
1766402559778342000,0.696341796875,9.785101890563965,-2.734178304672241,-0.3016694188117981
1766402559788382200,0.70638232421875,9.988609313964844,-2.9472622871398926,-0.26096799969673157
1766402559798392000,0.71639208984375,9.952696800231934,-2.9257144927978516,-0.1628057211637497
1766402559808401700,0.726401611328125,9.813833236694336,-2.7557260990142822,-0.08858546614646912
1766402559818350600,0.7363505859375,9.775525093078613,-2.9879636764526367,-0.16998831927776337
1766402559828390700,0.746390625,9.469067573547363,-3.181894063949585,-0.3256114423274994
1766402559838431000,0.756430908203125,9.23443603515625,-3.308786630630493,-0.24420857429504395
1766402559848440800,0.76644091796875,9.083600997924805,-3.1507694721221924,-0.15322890877723694
1766402559858450700,0.77645068359375,9.153033256530762,-3.2417490482330322,-0.17477671802043915
1766402559868490800,0.78649072265625,9.272743225097656,-3.31118106842041,-0.31603461503982544
1766402559888541000,0.806541015625,9.370905876159668,-2.6599581241607666,-0.5147533416748047
1766402559898581200,0.816581298828125,9.466673851013184,-2.4013843536376953,-0.47405192255973816
1766402559908590800,0.8265908203125,9.390059471130371,-2.0805611610412598,-0.4596867263317108
1766402559918600700,0.8366005859375,9.35893440246582,-2.0159177780151367,-0.6344634294509888
1766402559928610600,0.846610595703125,9.275136947631836,-2.0685901641845703,-0.8667010068893433
1766402559938620200,0.8566201171875,9.186552047729492,-2.47560453414917,-1.1779472827911377
1766402559948630000,0.866630126953125,9.059659004211426,-2.87064790725708,-1.4245500564575195
1766402559958639900,0.876639892578125,8.990227699279785,-3.1483752727508545,-1.4652514457702637
1766402559998709200,0.916709228515625,9.05247688293457,-4.551377296447754,-1.9704279899597168
1766402560018820400,0.9368203125,8.372523307800293,-3.7158010005950928,-1.8483237028121948
1766402560028830200,0.946830322265625,7.994239330291748,-3.466804027557373,-1.6879122257232666
1766402560038840000,0.956840087890625,7.630321025848389,-3.2561142444610596,-1.4844050407409668
1766402560048880400,0.96688037109375,7.295132637023926,-3.1052796840667725,-1.3862427473068237
1766402560058890000,0.976889892578125,7.168240070343018,-3.2585084438323975,-1.359906554222107
1766402560068899800,0.98689990234375,6.888118267059326,-3.5745432376861572,-1.4508862495422363
1766402560078940200,0.996940185546875,6.536170482635498,-3.7158010005950928,-1.316810965538025
1766402560088949800,1.00694970703125,6.234501361846924,-4.1156325340271,-1.0534487962722778
1766402560098959600,1.016959716796875,5.7987565994262695,-4.508281707763672,-0.9409212470054626
1766402560108969500,1.026969482421875,5.506663799285889,-4.757278919219971,-0.7852981686592102
1766402560118979000,1.03697900390625,5.2911858558654785,-4.99669885635376,-0.6727706789970398
1766402560129019400,1.047019287109375,5.0469770431518555,-5.281609058380127,-0.6823474764823914
1766402560139059700,1.057059814453125,4.742913722991943,-5.348646640777588,-0.5530605912208557
1766402560149069600,1.067069580078125,4.376600742340088,-5.2480902671813965,-0.3519476354122162
1766402560159079200,1.0770791015625,3.914519786834717,-5.04218864440918,-0.021547814831137657
1766402560169119500,1.087119384765625,3.2297780513763428,-4.800374507904053,0.2968810200691223
1766402560179129300,1.09712939453125,2.5115175247192383,-4.513070106506348,0.7852981686592102
1766402560199179300,1.11717919921875,1.460463047027588,-3.8977603912353516,2.0159177780151367
1766402560209219600,1.127219482421875,1.170764684677124,-4.089296340942383,2.3750481605529785
1766402560219229400,1.1372294921875,1.2066776752471924,-4.134786128997803,2.2625205516815186
1766402560229269800,1.147269775390625,1.699883222579956,-4.474762916564941,2.056619167327881
1766402560239279400,1.157279296875,1.7405846118927002,-5.343858242034912,1.5682021379470825
1766402560249319700,1.167319580078125,2.1068975925445557,-6.433219909667969,1.0342950820922852
1766402560259390500,1.177390380859375,2.142810583114624,-6.761225700378418,0.7038952708244324
1766402560269400300,1.187400390625,1.8483237028121948,-6.586448669433594,0.3926490843296051
1766402560279410200,1.19741015625,1.601720929145813,-6.931213855743408,0.031124621629714966
1766402560309439200,1.227439208984375,1.7860745191574097,-9.047688484191895,-0.8643068075180054
1766402560319449000,1.237448974609375,2.9233202934265137,-9.734824180603027,-2.1284453868865967
1766402560329459000,1.247458984375,4.5609540939331055,-9.078812599182129,-3.3638534545898438
1766402560339468500,1.257468505859375,6.763619899749756,-8.93037223815918,-4.611232280731201
1766402560349478400,1.267478515625,8.219294548034668,-8.010998725891113,-6.0621185302734375
1766402560359488300,1.27748828125,3.5170822143554688,-7.412448406219482,-6.5265936851501465
1766402560369528600,1.287528564453125,4.07014274597168,2.518700122833252,-6.366182327270508
1766402560379568600,1.297568603515625,7.735665798187256,-4.292803764343262,-7.017405033111572
1766402560439779800,1.35777978515625,18.66040802001953,-13.472172737121582,-4.707000732421875
1766402560469809200,1.38780908203125,7.534552574157715,-7.469909191131592,-2.7485435009002686
1766402560519858200,1.437858154296875,3.406949043273926,-4.369418144226074,-2.6024973392486572
1766402560559988700,1.47798876953125,5.260061264038086,-5.2265424728393555,-5.097255229949951
1766402560590048500,1.508048583984375,6.938396453857422,-5.5545477867126465,-6.246472358703613
1766402560600058400,1.518058349609375,7.694964408874512,-5.772420406341553,-6.818686485290527
1766402560610068000,1.52806787109375,8.303091049194336,-5.781997203826904,-6.864176273345947
1766402560620138800,1.538138671875,8.415618896484375,-5.556941986083984,-6.581660270690918
1766402560670218200,1.58821826171875,4.8267107009887695,-6.9240312576293945,-5.173870086669922
1766402560690268200,1.60826806640625,4.570530891418457,-6.473921298980713,-4.927267074584961
1766402560700278000,1.618278076171875,4.6734819412231445,-6.095637321472168,-4.9799394607543945
1766402560710288000,1.628287841796875,4.809951305389404,-5.983109951019287,-5.188235282897949
1766402560720297500,1.63829736328125,4.910507678985596,-5.889736175537109,-5.331887245178223
1766402560730307300,1.648307373046875,5.04218864440918,-5.674258232116699,-5.4228668212890625
1766402560740317000,1.65831689453125,5.037400245666504,-5.640739440917969,-5.57370138168335
1766402560750326800,1.668326904296875,4.874594688415527,-6.256049156188965,-5.623979568481445
1766402560760336600,1.678336669921875,4.845864295959473,-6.813898086547852,-5.861005783081055
1766402560770377000,1.688376953125,4.98472785949707,-6.912060260772705,-6.052541732788086
1766402560780386600,1.698386474609375,5.128379821777344,-6.658275127410889,-6.023811340332031
1766402560800406300,1.71840625,5.3582234382629395,-6.191405773162842,-5.975927352905273
1766402560810446300,1.7284462890625,5.377377033233643,-6.145915985107422,-6.01423454284668
1766402560820456200,1.738456298828125,5.331887245178223,-6.011840343475342,-5.995080947875977
1766402560850516000,1.768515869140625,5.439626216888428,-6.1052141189575195,-5.846640586853027
1766402560860556300,1.778556396484375,5.47075080871582,-6.435614109039307,-5.863399982452393
1766402560870596600,1.7885966796875,5.475539207458496,-6.572083473205566,-5.822698593139648
1766402560880637000,1.798636962890625,5.456385612487793,-6.567295074462891,-5.688623428344727
1766402560890677200,1.80867724609375,5.398924827575684,-6.596025466918945,-5.537788391113281
1766402560900656400,1.818656494140625,5.310339450836182,-6.605602264404297,-5.530605792999268
1766402560910696700,1.82869677734375,5.279214859008789,-6.801927089691162,-5.363011837005615
1766402560920767500,1.838767578125,5.137956619262695,-6.8043212890625,-5.245696067810059
1766402560950857700,1.868857666015625,5.398924827575684,-6.912060260772705,-5.1810526847839355
1766402560960867600,1.87886767578125,5.497087001800537,-6.629544734954834,-5.018246650695801
1766402560970877400,1.88887744140625,5.525817394256592,-6.564900875091553,-4.955997467041016
1766402560980917500,1.89891748046875,5.5760955810546875,-6.538564682006836,-4.975151062011719
1766402560990957800,1.908957763671875,5.501875400543213,-6.531382083892822,-4.967968463897705
1766402561000967700,1.9189677734375,5.501875400543213,-6.464344501495361,-4.920084476470947
1766402561011038500,1.92903857421875,5.480327606201172,-6.6127848625183105,-4.900930881500244
1766402561021048300,1.93904833984375,5.420472621917725,-6.710947513580322,-4.920084476470947
1766402561031088600,1.949088623046875,5.348646640777588,-6.732495307922363,-4.932055473327637
1766402561041128700,1.959128662109375,5.322310447692871,-6.7061591148376465,-5.0254292488098145
1766402561071188700,1.989188720703125,5.286397457122803,-6.813898086547852,-4.991910457611084
1766402561081228800,1.999228759765625,5.2696380615234375,-6.818686485290527,-5.015852451324463
1766402561091269000,2.00926904296875,5.351040840148926,-6.8043212890625,-5.061342239379883
1766402561101309400,2.019309326171875,5.39174222946167,-6.766014099121094,-5.106832027435303
1766402561111349800,2.029349853515625,5.374982833862305,-6.780379295349121,-5.169081687927246
1766402561121359600,2.039359619140625,5.329493045806885,-6.828263282775879,-5.171475887298584
1766402561131430400,2.049430419921875,5.236119270324707,-6.876147270202637,-5.252878665924072
1766402561141440000,2.05943994140625,5.161899089813232,-6.873753070831299,-5.250484466552734
1766402561161490200,2.079490234375,5.2049946784973145,-6.8162922859191895,-5.142745018005371
1766402561171561000,2.08956103515625,5.140350818634033,-6.8162922859191895,-5.252878665924072
1766402561181570800,2.09957080078125,5.152322292327881,-6.789956092834473,-5.324704647064209
1766402561191611000,2.10961083984375,5.149928092956543,-6.703764915466309,-5.224148273468018
1766402561201651200,2.119651123046875,5.173870086669922,-6.619967937469482,-5.2480902671813965
1766402561211661000,2.1296611328125,5.190629482269287,-6.517016887664795,-5.16429328918457
1766402561221701400,2.139701416015625,5.2480902671813965,-6.411672115325928,-5.169081687927246
1766402561231711000,2.1497109375,5.262455463409424,-6.370970726013184,-5.185841083526611
1766402561251761200,2.16976123046875,5.2696380615234375,-6.282385349273682,-5.228936672210693
1766402561261832000,2.17983203125,5.257667064666748,-6.337451934814453,-5.360617637634277
1766402561271841800,2.189841796875,5.250484466552734,-6.445190906524658,-5.434837818145752
1766402561281851400,2.199851318359375,5.360617637634277,-6.471527099609375,-5.47075080871582
1766402561291891700,2.2098916015625,5.3127336502075195,-6.538564682006836,-5.463568210601807
1766402561301901600,2.219901611328125,5.386953830718994,-6.581660270690918,-5.351040840148926
1766402561311911200,2.2299111328125,5.2911858558654785,-6.631938934326172,-5.355829238891602
1766402561321921000,2.239921142578125,5.305551052093506,-6.696582317352295,-5.303156852722168
1766402561331931000,2.249930908203125,5.307945251464844,-6.631938934326172,-5.329493045806885
1766402561351980800,2.269980712890625,5.305551052093506,-6.701370716094971,-5.154716491699219
1766402561361990700,2.27999072265625,5.295974254608154,-6.7277069091796875,-5.023035049438477
1766402561372031000,2.290031005859375,5.343858242034912,-6.682217121124268,-5.020640850067139
1766402561382040600,2.30004052734375,5.284003257751465,-6.756437301635742,-4.934449672698975
1766402561392081000,2.310080810546875,5.3127336502075195,-6.833051681518555,-4.838681697845459
1766402561402121200,2.320121337890625,5.353435039520264,-6.878541469573975,-4.865017890930176
1766402561412161500,2.33016162109375,5.329493045806885,-6.955155849456787,-4.841075897216797
1766402561422171400,2.34017138671875,5.367800235748291,-6.947973251342773,-4.8722004890441895
1766402561432181000,2.350180908203125,5.4444146156311035,-6.9910688400268555,-4.774038314819336
1766402561442190800,2.36019091796875,5.3582234382629395,-6.943184852600098,-4.759673118591309
1766402561472220200,2.39022021484375,5.245696067810059,-6.947973251342773,-4.833893299102783
1766402561482229800,2.400229736328125,5.288791656494141,-6.995857238769531,-4.975151062011719
1766402561492239600,2.410239501953125,5.284003257751465,-6.9240312576293945,-5.123591423034668
1766402561502249500,2.42024951171875,5.214571475982666,-6.8162922859191895,-5.116408824920654
1766402561512259000,2.430259033203125,5.190629482269287,-6.866570472717285,-5.137956619262695
1766402561522299400,2.44029931640625,5.157110691070557,-6.897695064544678,-5.219359874725342
1766402561532339700,2.450339599609375,5.102043628692627,-6.914454460144043,-5.161899089813232
1766402561542349600,2.460349609375,5.063736438751221,-6.8043212890625,-5.1810526847839355
1766402561572409300,2.490409423828125,4.977545261383057,-6.610390663146973,-5.054159641265869
1766402561582388500,2.500388427734375,4.900930881500244,-6.449979305267334,-5.063736438751221
1766402561592459300,2.510459228515625,4.850652694702148,-6.473921298980713,-4.903325080871582
1766402561602408200,2.520408203125,4.845864295959473,-6.600813865661621,-4.8051629066467285
1766402561612448500,2.530448486328125,4.809951305389404,-6.852205276489258,-4.874594688415527
1766402561622458000,2.5404580078125,4.994304656982422,-7.062894821166992,-4.8267107009887695
1766402561632529000,2.55052880859375,5.066130638122559,-7.117961883544922,-4.881777286529541
1766402561642538800,2.560538818359375,5.061342239379883,-7.29034423828125,-4.946420669555664
1766402561652548600,2.570548583984375,5.063736438751221,-7.4316020011901855,-4.898536682128906
1766402561662558200,2.58055810546875,5.0876784324646,-7.445967197418213,-4.869806289672852
1766402561672629000,2.59062890625,5.085284233093262,-7.2783732414245605,-4.697423934936523
1766402561682638800,2.600638916015625,5.193023681640625,-7.252037048339844,-4.745307922363281
1766402561692679200,2.61067919921875,5.161899089813232,-7.144298076629639,-4.707000732421875
1766402561702688800,2.620688720703125,5.202600479125977,-7.216124057769775,-4.651933670043945
1766402561712698600,2.63069873046875,5.355829238891602,-7.163451671600342,-4.675876140594482
1766402561722708500,2.64070849609375,5.396530628204346,-7.273584842681885,-4.707000732421875
1766402561732718000,2.650718017578125,5.473145008087158,-7.438784599304199,-4.704606533050537
1766402561742728000,2.66072802734375,5.523423194885254,-7.747636795043945,-4.72376012802124
1766402561762747400,2.680747314453125,5.442020416259766,-8.324639320373535,-4.93923807144165
1766402561772787700,2.69078759765625,5.1810526847839355,-8.176198959350586,-5.03021764755249
1766402561782797600,2.700797607421875,5.1116204261779785,-8.042123794555664,-4.786009311676025
1766402561792838000,2.710837890625,4.999093055725098,-8.097189903259277,-4.659116744995117
1766402561802847500,2.720847412109375,4.946420669555664,-8.08282470703125,-4.76924991607666
1766402561812857300,2.730857421875,4.946420669555664,-8.08282470703125,-4.76924991607666
1766402561822928100,2.74092822265625,4.7836151123046875,-7.60637903213501,-4.776432514190674
1766402561832938000,2.75093798828125,4.656722068786621,-6.947973251342773,-4.443638324737549
1766402561842978000,2.76097802734375,4.817133903503418,-6.761225700378418,-4.20421838760376
1766402561882986800,2.80098681640625,5.274426460266113,-6.722918510437012,-4.323928356170654
1766402561893027000,2.811027099609375,5.2696380615234375,-6.926425457000732,-4.398148536682129
1766402561903006200,2.821006103515625,5.319916248321533,-7.592013359069824,-4.4508209228515625
1766402561913077000,2.831076904296875,5.4228668212890625,-8.312667846679688,-4.630385875701904
1766402561923056400,2.841056396484375,5.2911858558654785,-8.635885238647461,-4.534617900848389
1766402561933066000,2.85106591796875,5.073313236236572,-8.497021675109863,-4.355052947998047
1766402561943075800,2.861075927734375,4.797980308532715,-8.259995460510254,-4.019864559173584
1766402561953085700,2.871085693359375,5.04218864440918,-8.904036521911621,-3.995922565460205
1766402561993094100,2.91109423828125,4.264073371887207,-8.396465301513672,-3.5721490383148193
1766402562003104000,2.92110400390625,4.072536945343018,-8.245630264282227,-3.529053211212158
1766402562013113600,2.931113525390625,3.931279182434082,-7.9415669441223145,-3.397372245788574
1766402562023123500,2.94112353515625,4.3622355461120605,-7.996633529663086,-3.445256233215332
1766402562033133300,2.95113330078125,4.661510944366455,-8.429984092712402,-3.5721490383148193
1766402562043143000,2.961142822265625,4.757278919219971,-8.848969459533691,-3.8067808151245117
1766402562053152800,2.97115283203125,4.982333660125732,-9.196128845214844,-4.106055736541748
1766402562083182000,3.00118212890625,4.613626480102539,-8.238448143005371,-3.6176388263702393
1766402562093222400,3.011222412109375,4.256890773773193,-8.468291282653809,-3.6535518169403076
1766402562103201500,3.021201416015625,3.8379054069519043,-8.389283180236816,-3.557783842086792
1766402562113241900,3.031241943359375,3.7612907886505127,-8.13789176940918,-3.2154128551483154
1766402562123282200,3.0412822265625,4.134786128997803,-8.398859977722168,-2.96162748336792
1766402562133291800,3.051291748046875,3.998316764831543,-8.616731643676758,-2.628833532333374
1766402562143301600,3.061301513671875,3.488351821899414,-8.35336971282959,-2.365471363067627
1766402562153311500,3.0713115234375,3.2585084438323975,-8.152256965637207,-2.0925323963165283
1766402562163321000,3.081321044921875,3.0142998695373535,-8.054094314575195,-1.723825216293335
1766402562173331000,3.0913310546875,2.513911724090576,-7.845798969268799,-1.6112977266311646
1766402562203390700,3.121390625,1.987187385559082,-8.559270858764648,-1.3072341680526733
1766402562213400600,3.131400634765625,2.0590133666992188,-9.313444137573242,-1.522712230682373
1766402562223410200,3.14141015625,1.7836803197860718,-9.124302864074707,-1.3838485479354858
1766402562233450500,3.151450439453125,1.7142484188079834,-9.059659004211426,-1.3287819623947144
1766402562243460400,3.16146044921875,1.8291701078414917,-8.954314231872559,-1.1803414821624756
1766402562253500700,3.171500732421875,1.9129672050476074,-8.60236644744873,-0.9528923034667969
1766402562263510500,3.181510498046875,1.86508309841156,-8.281543731689453,-0.9552865028381348
1766402562293600800,3.211600830078125,2.3582887649536133,-8.027758598327637,-0.5482721924781799
1766402562303610600,3.221610595703125,2.3367409706115723,-8.588001251220703,-0.7445967197418213
1766402562313620200,3.2316201171875,1.9393033981323242,-8.772355079650879,-0.9265560507774353
1766402562323630000,3.241630126953125,1.7884687185287476,-8.635885238647461,-1.0342950820922852
1766402562333639700,3.2516396484375,1.5969325304031372,-8.365341186523438,-1.1492167711257935
1766402562343649500,3.2616494140625,1.5729905366897583,-8.317456245422363,-1.1803414821624756
1766402562353659400,3.271659423828125,1.4628572463989258,-8.185775756835938,-1.4437036514282227
1766402562363669000,3.2816689453125,1.4652514457702637,-7.989450931549072,-1.678335428237915
1766402562383688700,3.301688720703125,1.6687586307525635,-7.5417351722717285,-2.0183119773864746
1766402562393698300,3.3116982421875,1.403002142906189,-7.501033782958984,-2.121262788772583
1766402562403677700,3.321677734375,1.3718775510787964,-8.681375503540039,-2.5306711196899414
1766402562443777800,3.36177783203125,1.6065093278884888,-7.716512203216553,-3.56017804145813
1766402562453848600,3.3718486328125,1.37906014919281,-7.321468830108643,-3.3734302520751953
1766402562463858200,3.381858154296875,1.316810965538025,-6.847416877746582,-3.2800562381744385
1766402562473868000,3.391867919921875,1.5083470344543457,-6.715735912322998,-3.4620156288146973
1766402562493918200,3.411918212890625,1.721431016921997,-8.346187591552734,-4.513070106506348
1766402562503927800,3.421927734375,1.4532804489135742,-8.810662269592285,-5.20978307723999
1766402562513907200,3.4319072265625,1.235408067703247,-8.777143478393555,-5.439626216888428
1766402562523916800,3.441916748046875,1.235408067703247,-8.777143478393555,-5.439626216888428
1766402562533926700,3.4519267578125,0.9217676520347595,-8.523358345031738,-5.485116004943848
1766402562543936500,3.4619365234375,0.5650315880775452,-8.123526573181152,-5.238513469696045
1766402562553946000,3.471946044921875,0.395043283700943,-8.259995460510254,-5.054159641265869
1766402562563956000,3.4819560546875,0.3974374830722809,-8.370129585266113,-4.900930881500244
1766402562594015700,3.512015625,-0.09816227108240128,-9.861717224121094,-5.231330871582031
1766402562604056000,3.52205615234375,-0.4596867263317108,-10.38604736328125,-5.3797712326049805
1766402562614096400,3.532096435546875,-0.545877993106842,-10.137049674987793,-5.497087001800537
1766402562624075500,3.542075439453125,-0.4429273009300232,-9.832986831665039,-5.758055210113525
1766402562634085400,3.55208544921875,-0.26336219906806946,-9.337387084960938,-6.13633918762207
1766402562644095200,3.56209521484375,-0.004788403399288654,-8.547300338745117,-6.641515731811523
1766402562654166000,3.572166015625,0.17956513166427612,-8.066065788269043,-6.560112476348877
1766402562664175600,3.582175537109375,0.14365209639072418,-8.17141056060791,-6.428431510925293
1766402562674185500,3.592185546875,-0.1149216815829277,-8.736441612243652,-6.370970726013184
1766402562704214800,3.62221484375,-0.9911994934082031,-10.196905136108398,-7.5968017578125
1766402562724234200,3.642234130859375,-1.381454348564148,-9.014169692993164,-8.145073890686035
1766402562734274600,3.652274658203125,-1.8914192914962769,-8.669404029846191,-7.915230751037598
1766402562744284400,3.662284423828125,-2.3750481605529785,-8.523358345031738,-7.412448406219482
1766402562754294000,3.6722939453125,-2.8227639198303223,-8.394071578979492,-6.866570472717285
1766402562764304000,3.682303955078125,-2.8778305053710938,-8.152256965637207,-6.301538944244385
1766402562774344200,3.69234423828125,-2.801215887069702,-8.192957878112793,-5.65031623840332
1766402562814413800,3.732413818359375,-1.460463047027588,-8.552088737487793,-4.489128112792969
1766402562824393000,3.74239306640625,-1.1563993692398071,-8.851364135742188,-4.173093795776367
1766402562834433300,3.752433349609375,-0.9528923034667969,-9.174580574035645,-3.6296098232269287
1766402562844473600,3.7624736328125,-1.01753568649292,-9.47146224975586,-3.4093432426452637
1766402562854483200,3.772483154296875,-1.0295066833496094,-9.50498104095459,-3.24414324760437
1766402562864493000,3.7824931640625,-1.1013327836990356,-9.5408935546875,-3.375824451446533
1766402562874503000,3.7925029296875,-1.414973258972168,-9.430760383605957,-3.7253777980804443
1766402562884512500,3.802512451171875,-1.6831238269805908,-8.911218643188477,-4.132391929626465
1766402562914572300,3.832572265625,-1.7597382068634033,-7.965508937835693,-5.746084213256836
1766402562924582100,3.84258203125,-1.5634137392044067,-7.716512203216553,-6.069301128387451
1766402562934622500,3.85262255859375,-1.3886369466781616,-7.661445617675781,-6.294356346130371
1766402562944601600,3.8626015625,-1.3024457693099976,-8.032546997070312,-6.794744491577148
1766402562954642000,3.872641845703125,-1.5083470344543457,-8.650250434875488,-7.206547260284424
1766402562964682200,3.88268212890625,-1.6424223184585571,-8.935160636901855,-7.024587631225586
1766402562974692000,3.892692138671875,-2.0231003761291504,-8.820239067077637,-7.0988078117370605
1766402563014761700,3.93276171875,-2.2361843585968018,-8.62630844116211,-7.553706169128418
1766402563024771300,3.942771240234375,-2.2361843585968018,-8.825027465820312,-7.266402244567871
1766402563034781200,3.95278125,-2.3582887649536133,-9.193734169006348,-7.022193431854248
1766402563044791000,3.962791015625,-2.5737667083740234,-9.576807022094727,-6.98628044128418
1766402563054800600,3.972800537109375,-2.6791117191314697,-10.153809547424316,-6.98628044128418
1766402563064810500,3.982810546875,-2.513911724090576,-9.986215591430664,-6.67982292175293
1766402563074820000,3.992820068359375,-2.5282769203186035,-9.469067573547363,-6.172252178192139
1766402563084860400,4.0028603515625,-2.537853717803955,-9.342175483703613,-6.114790916442871
1766402563094870300,4.012870361328125,-2.473210334777832,-8.813055992126465,-5.813121795654297
1766402563134909400,4.052909423828125,-2.7772738933563232,-7.546523571014404,-5.03021764755249
1766402563144980200,4.062980224609375,-2.7700912952423096,-7.489062786102295,-5.027823448181152
1766402563154989800,4.07298974609375,-2.892195701599121,-7.644686222076416,-4.838681697845459
1766402563164999700,4.082999755859375,-2.892195701599121,-8.04930591583252,-4.651933670043945
1766402563175070500,4.093070556640625,-2.760514497756958,-8.374917984008789,-4.671087741851807
1766402563185049600,4.103049560546875,-2.6599581241607666,-8.571242332458496,-4.661510944366455
1766402563215109600,4.133109619140625,-2.5282769203186035,-8.774748802185059,-4.599261283874512
1766402563225119200,4.143119140625,-2.518700122833252,-8.851364135742188,-4.460397720336914
1766402563235129000,4.153129150390625,-2.4133553504943848,-8.935160636901855,-4.520252704620361
1766402563245108200,4.163108154296875,-2.4133553504943848,-8.935160636901855,-4.520252704620361
1766402563255148500,4.1731484375,-2.252943754196167,-9.251194953918457,-4.654327869415283
1766402563265158400,4.183158447265625,-2.322375535964966,-9.727641105651855,-4.671087741851807
1766402563275198700,4.19319873046875,-2.276885747909546,-9.911994934082031,-4.551377296447754
1766402563285208300,4.203208251953125,-2.0853497982025146,-10.041281700134277,-4.659116744995117
1766402563295218200,4.21321826171875,-1.9847931861877441,-9.832986831665039,-4.865017890930176
1766402563345267000,4.263266845703125,-0.849941611289978,-7.168240070343018,-4.675876140594482
1766402563355337700,4.273337646484375,-0.9217676520347595,-6.818686485290527,-4.661510944366455
1766402563365347600,4.28334765625,-1.094150185585022,-6.670246124267578,-4.369418144226074
1766402563375388000,4.293387939453125,-1.1683704853057861,-6.610390663146973,-4.4508209228515625
1766402563385428200,4.30342822265625,-1.3934253454208374,-6.6630635261535645,-4.290409564971924
1766402563395437800,4.313437744140625,-1.37906014919281,-6.799532890319824,-4.273650169372559
1766402563415426800,4.3334267578125,-1.3742717504501343,-7.357381820678711,-4.113238334655762
1766402563425406200,4.34340625,-1.335964560508728,-8.056488990783691,-4.307168960571289
1766402563435446500,4.353446533203125,-1.213860273361206,-8.348581314086914,-4.3406877517700195
1766402563445456100,4.3634560546875,-0.6560112833976746,-8.51138687133789,-4.525041103363037
1766402563455466000,4.373466064453125,-0.5219359993934631,-8.760383605957031,-4.537012100219727
1766402563465475800,4.383475830078125,-0.33039984107017517,-8.942343711853027,-4.671087741851807
1766402563475485400,4.3934853515625,-0.42377370595932007,-8.743624687194824,-4.532223701477051
1766402563485495300,4.403495361328125,-0.4884171485900879,-8.480262756347656,-4.594472885131836
1766402563495535600,4.41353564453125,-0.6200982332229614,-8.348581314086914,-4.764461517333984
1766402563505545200,4.423545166015625,-0.8044517636299133,-8.470685958862305,-4.747702121734619
1766402563515555000,4.43355517578125,-0.8690952062606812,-8.796297073364258,-4.817133903503418
1766402563535544000,4.4535439453125,-1.3215993642807007,-8.98543930053711,-4.716577529907227
1766402563545554000,4.463553955078125,-1.4724340438842773,-9.066842079162598,-4.697423934936523
1766402563555624700,4.473624755859375,-1.6352397203445435,-9.2033109664917,-4.797980308532715
1766402563565665000,4.4836650390625,-1.6735470294952393,-9.174580574035645,-4.884171485900879
1766402563575705300,4.493705322265625,-1.644816517829895,-9.337387084960938,-4.934449672698975
1766402563585715000,4.50371484375,-1.6927006244659424,-9.174580574035645,-4.752490520477295
1766402563595724800,4.513724853515625,-1.867477297782898,-8.633491516113281,-4.675876140594482
1766402563605734400,4.523734375,-2.0877439975738525,-8.42040729522705,-4.479551315307617
1766402563615774700,4.533774658203125,-2.1045033931732178,-8.154650688171387,-4.321534156799316
1766402563635794400,4.55379443359375,-2.185906171798706,-8.525752067565918,-4.292803764343262
1766402563645773600,4.563773681640625,-2.1811177730560303,-8.772355079650879,-4.398148536682129
1766402563655783400,4.573783447265625,-2.073378562927246,-9.05247688293457,-4.520252704620361
1766402563665793000,4.58379296875,-1.766920804977417,-9.047688484191895,-4.623203277587891
1766402563675803000,4.593802978515625,-1.4532804489135742,-8.980650901794434,-4.759673118591309
1766402563685812700,4.603812744140625,-1.1300631761550903,-8.647856712341309,-4.8722004890441895
1766402563695822300,4.613822265625,-0.9720458984375,-8.516175270080566,-4.963180065155029
1766402563705801700,4.6238017578125,-1.0582371950149536,-8.528146743774414,-4.967968463897705
1766402563715811300,4.633811279296875,-1.3287819623947144,-8.561665534973145,-4.8937482833862305
1766402563725821200,4.6438212890625,-1.5418659448623657,-8.470685958862305,-4.812345504760742
1766402563735831000,4.6538310546875,-1.7357962131500244,-8.542511940002441,-4.766855716705322
1766402563745840600,4.663840576171875,-1.8938134908676147,-8.372523307800293,-4.7620673179626465
1766402563755881000,4.673880859375,-2.1092917919158936,-8.31985092163086,-4.754884719848633
1766402563765890800,4.683890869140625,-2.0901381969451904,-8.219294548034668,-4.774038314819336
1766402563775900400,4.693900390625,-2.2840683460235596,-8.255207061767578,-4.711789131164551
1766402563785910300,4.70391015625,-2.274491548538208,-8.293514251708984,-4.738125324249268
1766402563795920100,4.713920166015625,-2.2816741466522217,-8.310274124145508,-4.876988887786865
1766402563805929700,4.7239296875,-2.1045033931732178,-8.556877136230469,-4.795586109161377
1766402563815939600,4.733939697265625,-2.0901381969451904,-8.822632789611816,-4.912901878356934
1766402563825949400,4.743949462890625,-1.9728221893310547,-8.841787338256836,-4.8267107009887695
1766402563835989800,4.75398974609375,-1.9919757843017578,-8.588001251220703,-4.850652694702148
1766402563866080000,4.784080078125,-1.987187385559082,-8.487444877624512,-4.841075897216797
1766402563876089900,4.79408984375,-2.049436569213867,-8.403648376464844,-4.776432514190674
1766402563886099500,4.804099365234375,-2.0015525817871094,-8.214506149291992,-4.716577529907227
1766402563896109300,4.814109375,-1.9919757843017578,-8.133103370666504,-4.819528102874756
1766402563906088400,4.82408837890625,-2.121262788772583,-8.432378768920898,-4.788403511047363
1766402563916098300,4.834098388671875,-2.22660756111145,-8.343792915344238,-4.771644115447998
1766402563926138600,4.844138671875,-2.382230758666992,-8.501810073852539,-4.841075897216797
1766402563936179000,4.854178955078125,-2.300827741622925,-8.485051155090332,-4.8722004890441895
1766402563966208300,4.884208251953125,-1.9991583824157715,-8.525752067565918,-4.977545261383057
1766402563976217900,4.8942177734375,-1.8555063009262085,-8.458714485168457,-4.932055473327637
1766402563986227700,4.904227783203125,-1.656787633895874,-8.29830265045166,-4.888959884643555
1766402563996237600,4.914237548828125,-1.6304513216018677,-8.245630264282227,-4.876988887786865
1766402564006247200,4.9242470703125,-1.6208745241165161,-8.164227485656738,-4.879383087158203
1766402564016287500,4.93428759765625,-1.7118542194366455,-8.219294548034668,-4.821922302246094
1766402564026266600,4.9442666015625,-1.8555063009262085,-8.200140953063965,-4.831499099731445
1766402564036307000,4.954306884765625,-1.9273324012756348,-8.382100105285645,-4.932055473327637
1766402564046316800,4.96431689453125,-1.9919757843017578,-8.616731643676758,-4.8937482833862305
1766402564066366700,4.98436669921875,-1.9297266006469727,-8.731653213500977,-4.932055473327637
1766402564076376600,4.99437646484375,-1.920149803161621,-8.686163902282715,-4.9152960777282715
1766402564086386400,5.004386474609375,-1.8746598958969116,-8.482656478881836,-4.821922302246094
1766402564096426800,5.0144267578125,-1.8339585065841675,-8.343792915344238,-4.793191909790039
1766402564106466800,5.024466796875,-1.7860745191574097,-8.327033042907715,-4.81473970413208
1766402564116476700,5.0344765625,-1.824381709098816,-8.362946510314941,-4.687847137451172
1766402564126486500,5.044486572265625,-1.867477297782898,-8.40843677520752,-4.699818134307861
1766402564136496000,5.05449609375,-1.9177556037902832,-8.427590370178223,-4.668693542480469
1766402564146506000,5.064506103515625,-1.9967641830444336,-8.461109161376953,-4.733336925506592
1766402564156515800,5.074515869140625,-1.9393033981323242,-8.178592681884766,-4.699818134307861
1766402564166556200,5.08455615234375,-1.8507179021835327,-8.092401504516602,-4.752490520477295
1766402564186606000,5.104606201171875,-2.0685901641845703,-8.13789176940918,-4.757278919219971
1766402564196646400,5.114646484375,-1.8746598958969116,-8.341399192810059,-4.819528102874756
1766402564206717200,5.12471728515625,-1.9081788063049316,-8.635885238647461,-4.824316501617432
1766402564216696300,5.1346962890625,-1.8794482946395874,-8.734047889709473,-4.702212333679199
1766402564226767400,5.144767333984375,-1.680729627609253,-8.53293514251709,-4.728548526763916
1766402564236838100,5.154838134765625,-1.7932571172714233,-8.47786808013916,-4.6471452713012695
1766402564246847700,5.16484765625,-1.745373010635376,-8.432378768920898,-4.704606533050537
1766402564256918500,5.17491845703125,-1.659181833267212,-8.585607528686523,-4.776432514190674
1766402564266928400,5.184928466796875,-1.6663644313812256,-8.631096839904785,-4.800374507904053
1766402564276938200,5.194938232421875,-1.53707754611969,-8.463502883911133,-4.898536682128906
1766402564286947800,5.20494775390625,-1.6903064250946045,-8.681375503540039,-4.869806289672852
1766402564297018600,5.2150185546875,-1.802833914756775,-8.801085472106934,-4.865017890930176
1766402564307028500,5.225028564453125,-1.845929503440857,-8.681375503540039,-4.821922302246094
1766402564317038300,5.235038330078125,-1.7501614093780518,-8.834604263305664,-4.831499099731445
1766402564327017500,5.245017578125,-1.8100165128707886,-8.918401718139648,-4.8051629066467285
1766402564337057800,5.255057861328125,-1.6424223184585571,-8.461109161376953,-4.642356872558594
1766402564347067600,5.265067626953125,-1.5849615335464478,-8.288725852966309,-4.67827033996582
1766402564357077200,5.2750771484375,-1.5825673341751099,-8.485051155090332,-4.7836151123046875
1766402564367056600,5.285056640625,-1.6208745241165161,-8.418013572692871,-4.788403511047363
1766402564387106600,5.3051064453125,-1.800439715385437,-8.415618896484375,-4.817133903503418
1766402564397147000,5.31514697265625,-1.8195933103561401,-8.513781547546387,-4.8722004890441895
1766402564407187200,5.325187255859375,-1.98958158493042,-8.516175270080566,-4.800374507904053
1766402564417227500,5.3352275390625,-1.9919757843017578,-8.480262756347656,-4.802768707275391
1766402564427237000,5.345237060546875,-1.9153614044189453,-8.547300338745117,-4.709394931793213
1766402564437247000,5.3552470703125,-1.8124107122421265,-8.655038833618164,-4.697423934936523
1766402564447256800,5.3652568359375,-1.766920804977417,-8.65743350982666,-4.7405195236206055
1766402564457266400,5.375266357421875,-1.5753847360610962,-8.702922821044922,-4.867412090301514
1766402564467276300,5.3852763671875,-1.6208745241165161,-8.583212852478027,-4.81473970413208
1766402564487265300,5.405265380859375,-1.8555063009262085,-8.520963668823242,-4.795586109161377
1766402564497336000,5.415336181640625,-1.824381709098816,-8.389283180236816,-4.841075897216797
1766402564507346000,5.425345947265625,-1.9105730056762695,-8.355764389038086,-4.917690277099609
1766402564517355500,5.43535546875,-1.9129672050476074,-8.516175270080566,-4.891354084014893
1766402564527365400,5.445365478515625,-1.8842366933822632,-8.631096839904785,-4.838681697845459
1766402564537405700,5.45540576171875,-1.9560627937316895,-8.35097599029541,-4.733336925506592
1766402564547415600,5.46541552734375,-1.889025092124939,-8.2312650680542,-4.721365928649902
1766402564557425200,5.475425048828125,-1.8124107122421265,-8.257601737976074,-4.771644115447998
1766402564597464300,5.51546435546875,-1.7549498081207275,-8.374917984008789,-4.807557106018066
1766402564607474000,5.525473876953125,-1.7908629179000854,-8.355764389038086,-4.795586109161377
1766402564617514200,5.53551416015625,-1.6950948238372803,-8.609549522399902,-4.8482584953308105
1766402564627524000,5.545524169921875,-1.7884687185287476,-8.528146743774414,-4.929661273956299
1766402564637534000,5.555533935546875,-1.7812861204147339,-8.453926086425781,-4.833893299102783
1766402564647604700,5.565604736328125,-1.8746598958969116,-8.573636054992676,-4.865017890930176
1766402564657644800,5.575644775390625,-1.7860745191574097,-8.51138687133789,-4.8937482833862305
1766402564667654700,5.585654541015625,-1.7190368175506592,-8.571242332458496,-4.944026470184326
1766402564677695000,5.595695068359375,-1.659181833267212,-8.453926086425781,-4.824316501617432
1766402564687674000,5.605674072265625,-1.6831238269805908,-8.554482460021973,-4.788403511047363
1766402564707724300,5.625724365234375,-1.7334020137786865,-8.494627952575684,-4.795586109161377
1766402564717734100,5.635734130859375,-1.534683346748352,-8.300697326660156,-4.790797710418701
1766402564727713300,5.64571337890625,-1.6184803247451782,-8.20492935180664,-4.697423934936523
1766402564737753600,5.655753662109375,-1.7166426181793213,-8.401253700256348,-4.663905143737793
1766402564747763500,5.665763427734375,-1.8315643072128296,-8.453926086425781,-4.551377296447754
1766402564757773000,5.67577294921875,-1.8986018896102905,-8.518569946289062,-4.67827033996582
1766402564767783000,5.685782958984375,-1.900996208190918,-8.664615631103516,-4.661510944366455
1766402564777792500,5.69579248046875,-1.8267759084701538,-8.552088737487793,-4.714183330535889
1766402564827933000,5.745932861328125,-1.8291701078414917,-8.638279914855957,-4.620809078216553
1766402564838003700,5.756003662109375,-1.7597382068634033,-8.520963668823242,-4.704606533050537
1766402564848044000,5.7660439453125,-1.8291701078414917,-8.425195693969727,-4.613626480102539
1766402564858084400,5.77608447265625,-1.6735470294952393,-8.382100105285645,-4.623203277587891
1766402564868094200,5.78609423828125,-1.601720929145813,-8.367734909057617,-4.651933670043945
1766402564878103800,5.796103759765625,-1.7501614093780518,-8.5903959274292,-4.687847137451172
1766402564888144100,5.80614404296875,-1.7142484188079834,-8.561665534973145,-4.776432514190674
1766402564918204000,5.836203857421875,-1.9752163887023926,-8.856152534484863,-4.692635536193848
1766402564928183300,5.846183349609375,-1.9991583824157715,-8.916007041931152,-4.754884719848633
1766402564938223600,5.8562236328125,-1.764526605606079,-8.695740699768066,-4.800374507904053
1766402564948264000,5.866263916015625,-1.7046716213226318,-8.552088737487793,-4.714183330535889
1766402564958334700,5.876334716796875,-1.5466543436050415,-8.432378768920898,-4.7189717292785645
1766402564968313900,5.88631396484375,-1.316810965538025,-8.42040729522705,-4.687847137451172
1766402564988364000,5.906364013671875,-1.5753847360610962,-8.365341186523438,-4.651933670043945
1766402564998404000,5.916404052734375,-1.5849615335464478,-8.453926086425781,-4.774038314819336
1766402565008414000,5.9264140625,-1.6089035272598267,-8.288725852966309,-4.795586109161377
1766402565018454300,5.936454345703125,-1.3934253454208374,-8.200140953063965,-4.699818134307861
1766402565028464000,5.946464111328125,-1.4437036514282227,-8.327033042907715,-4.836287498474121
1766402565048544500,5.96654443359375,-2.073378562927246,-8.820239067077637,-4.680664539337158
1766402565058554400,5.976554443359375,-2.0805611610412598,-8.449137687683105,-4.802768707275391
1766402565068625200,5.986625244140625,-1.944091796875,-8.425195693969727,-4.587290287017822
1766402565078665500,5.99666552734375,-1.6328455209732056,-8.432378768920898,-4.824316501617432
1766402565088675000,6.006675048828125,-1.6184803247451782,-8.777143478393555,-4.862623691558838
1766402565098715400,6.01671533203125,-1.2401964664459229,-8.829815864562988,-4.862623691558838
1766402565118735000,6.036735107421875,-1.3886369466781616,-9.078812599182129,-4.982333660125732
1766402565128744700,6.04674462890625,-1.1659762859344482,-8.628703117370605,-4.620809078216553
1766402565138785000,6.056784912109375,-0.790086567401886,-8.35336971282959,-4.587290287017822
1766402565148764400,6.066764404296875,-0.3998316824436188,-8.35097599029541,-4.55616569519043
1766402565158774000,6.07677392578125,-0.363918662071228,-8.17380428314209,-4.505887508392334
1766402565168784000,6.086783935546875,-0.4213795065879822,-8.26478385925293,-4.412513732910156
1766402565178793700,6.096793701171875,-0.586579442024231,-8.53293514251709,-4.5609540939331055
1766402565188803300,6.10680322265625,-0.8643068075180054,-8.518569946289062,-4.55616569519043
1766402565198813200,6.116813232421875,-1.0342950820922852,-8.513781547546387,-4.6471452713012695
1766402565208853500,6.126853515625,-0.9744400978088379,-8.698134422302246,-4.819528102874756
1766402565218863000,6.136863037109375,-0.5315127968788147,-8.844181060791016,-4.888959884643555
1766402565228873000,6.146873046875,-0.26336219906806946,-8.987833023071289,-4.898536682128906
1766402565238882800,6.1568828125,-0.33039984107017517,-8.822632789611816,-4.888959884643555
1766402565248892400,6.166892333984375,-0.002394201699644327,-8.664615631103516,-5.082890033721924
1766402565258902300,6.17690234375,0.33518823981285095,-8.461109161376953,-5.0469770431518555
1766402565268912000,6.186912109375,0.524330198764801,-8.645462036132812,-4.991910457611084
1766402565278952200,6.1969521484375,0.6320692300796509,-8.698134422302246,-5.0014872550964355
1766402565288962000,6.206962158203125,0.7469909191131592,-8.724471092224121,-4.934449672698975
1766402565299002400,6.21700244140625,0.6440402865409851,-8.863334655761719,-4.855441093444824
1766402565309012200,6.22701220703125,0.27054479718208313,-8.667010307312012,-4.786009311676025
1766402565319021800,6.237021728515625,0.3064578175544739,-8.729259490966797,-4.910507678985596
1766402565329062100,6.247062255859375,0.12689268589019775,-8.858546257019043,-5.013458251953125
1766402565339072000,6.257072021484375,0.11971008777618408,-8.674192428588867,-4.989516258239746
1766402565349081600,6.26708154296875,0.2106897532939911,-8.863334655761719,-4.977545261383057
1766402565359091500,6.277091552734375,0.035913024097681046,-8.899248123168945,-4.891354084014893
1766402565369101300,6.287101318359375,-0.6177040338516235,-8.973467826843262,-4.661510944366455
1766402565379111000,6.29711083984375,-0.6200982332229614,-9.011775016784668,-4.58968448638916
1766402565389120800,6.307120849609375,-0.7757213711738586,-9.14345645904541,-4.927267074584961
1766402565399130600,6.317130615234375,-0.31842881441116333,-8.966285705566406,-4.963180065155029
1766402565429251300,6.347251220703125,0.5003881454467773,-7.513004779815674,-4.975151062011719
1766402565439261200,6.35726123046875,1.6950948238372803,-6.900089263916016,-4.7620673179626465
1766402565449270800,6.367270751953125,1.6950948238372803,-6.900089263916016,-4.7620673179626465
1766402565459280600,6.37728076171875,1.9704279899597168,-8.154650688171387,-5.056553840637207
1766402565469290500,6.38729052734375,3.648763418197632,-7.778761386871338,-5.276820659637451
1766402565479300000,6.397300048828125,2.209848165512085,-7.726089000701904,-4.67827033996582
1766402565489310000,6.40731005859375,1.8100165128707886,-8.597578048706055,-5.274426460266113
1766402565499319800,6.41731982421875,1.259350061416626,-8.418013572692871,-5.183446884155273
1766402565509329400,6.427329345703125,0.5410895943641663,-8.65743350982666,-5.20978307723999
1766402565519339300,6.43733935546875,0.15801730751991272,-9.057265281677246,-5.386953830718994
1766402565539389200,6.45738916015625,-0.014365210197865963,-9.141061782836914,-5.315127849578857
1766402565549399000,6.46739892578125,-0.17717093229293823,-9.260771751403809,-5.3342814445495605
1766402565559409000,6.477408935546875,-0.33039984107017517,-9.069235801696777,-5.216965675354004
1766402565569449200,6.48744921875,-0.5650315880775452,-8.75080680847168,-4.987122058868408
1766402565579458800,6.497458740234375,-0.5530605912208557,-8.80587387084961,-4.93923807144165
1766402565589468700,6.50746875,-0.7805097699165344,-9.047688484191895,-4.802768707275391
1766402565599478500,6.517478515625,-0.912190854549408,-8.746018409729004,-4.683058738708496
1766402565609488100,6.527488037109375,-1.0127472877502441,-8.33182144165039,-4.438849925994873
1766402565619498000,6.537498046875,-1.3742717504501343,-8.485051155090332,-4.261679172515869
1766402565629507800,6.5475078125,-1.4867992401123047,-8.42040729522705,-4.2951979637146
1766402565639517400,6.557517333984375,-1.4413094520568848,-8.406042098999023,-4.280832767486572
1766402565649527300,6.56752734375,-1.1300631761550903,-8.10437297821045,-4.2760443687438965
1766402565659537000,6.577536865234375,-0.9313444495201111,-8.04930591583252,-4.347870349884033
1766402565669546800,6.587546630859375,-0.7182605266571045,-8.042123794555664,-4.489128112792969
1766402565679556600,6.597556640625,-0.49559974670410156,-8.08043098449707,-4.563348293304443
1766402565689566200,6.607566162109375,-0.09576806426048279,-8.08282470703125,-4.685452938079834
1766402565699576000,6.617576171875,-0.019153613597154617,-8.24084186553955,-4.721365928649902
1766402565709586000,6.6275859375,0.019153613597154617,-8.317456245422363,-4.948814868927002
1766402565719626200,6.637626220703125,-0.10534487664699554,-8.401253700256348,-4.960785865783691
1766402565739645700,6.657645751953125,-0.3016694188117981,-8.492233276367188,-5.171475887298584
1766402565759695600,6.677695556640625,-0.035913024097681046,-8.463502883911133,-5.104437828063965
1766402565769705500,6.68770556640625,0.28969839215278625,-8.607154846191406,-5.25527286529541
1766402565779745800,6.697745849609375,0.35434186458587646,-8.678980827331543,-5.2265424728393555
1766402565789755400,6.70775537109375,0.3064578175544739,-8.655038833618164,-5.288791656494141
1766402565799795700,6.717795654296875,-0.016759412363171577,-8.71489429473877,-5.245696067810059
1766402565809805600,6.7278056640625,-0.43095630407333374,-8.674192428588867,-5.080495834350586
1766402565819815400,6.7378154296875,-0.7589619159698486,-8.35097599029541,-4.888959884643555
1766402565859884800,6.777884765625,-1.5131354331970215,-8.398859977722168,-4.786009311676025
1766402565869894700,6.787894775390625,-1.6496049165725708,-8.293514251708984,-4.699818134307861
1766402565879904500,6.797904541015625,-1.6950948238372803,-8.372523307800293,-4.613626480102539
1766402565889914000,6.8079140625,-1.8818424940109253,-8.406042098999023,-4.5154643058776855
1766402565899954400,6.817954345703125,-1.9129672050476074,-8.609549522399902,-4.405331134796143
1766402565909964300,6.82796435546875,-1.9057846069335938,-8.5903959274292,-4.3861775398254395
1766402565919974100,6.83797412109375,-1.6974890232086182,-8.669404029846191,-4.443638324737549
1766402565930014200,6.84801416015625,-1.6376339197158813,-8.932766914367676,-4.424484729766846
1766402565950064400,6.868064453125,-1.8171991109848022,-8.83939266204834,-4.4723687171936035
1766402565970114300,6.8881142578125,-2.2002713680267334,-9.045293807983398,-4.618414878845215
1766402565990164500,6.90816455078125,-2.123656988143921,-8.89685344696045,-4.838681697845459
1766402566000174300,6.91817431640625,-1.9369091987609863,-8.712499618530273,-4.896142482757568
1766402566010245000,6.9282451171875,-1.7621324062347412,-8.808267593383789,-4.967968463897705
1766402566020254700,6.938254638671875,-1.5849615335464478,-8.674192428588867,-4.955997467041016
1766402566030264600,6.9482646484375,-1.5610195398330688,-8.518569946289062,-5.051765441894531
1766402566040274400,6.9582744140625,-1.3192051649093628,-8.315062522888184,-5.185841083526611
1766402566060324400,6.978324462890625,-1.3694833517074585,-7.850587368011475,-5.130774021148682
1766402566070334200,6.988334228515625,-1.50355863571167,-7.829039573669434,-4.963180065155029
1766402566080374500,6.99837451171875,-1.6089035272598267,-7.841010570526123,-5.109226226806641
1766402566090414600,7.00841455078125,-1.6041151285171509,-8.063671112060547,-5.1331682205200195
1766402566100424400,7.018424560546875,-1.455674648284912,-8.145073890686035,-5.22175407409668
1766402566110434300,7.028434326171875,-1.4269442558288574,-7.967903137207031,-5.374982833862305
1766402566120474600,7.038474609375,-1.6376339197158813,-7.903259754180908,-5.276820659637451
1766402566130484200,7.048484130859375,-1.764526605606079,-7.850587368011475,-5.413290023803711
1766402566140494000,7.058494140625,-2.006340980529785,-8.166622161865234,-5.47075080871582
1766402566150504000,7.06850390625,-2.0254945755004883,-8.190564155578613,-5.537788391113281
1766402566160574700,7.07857470703125,-2.049436569213867,-8.190564155578613,-5.583278179168701
1766402566170553900,7.088553955078125,-2.049436569213867,-8.190564155578613,-5.583278179168701
1766402566180563700,7.098563720703125,-2.10210919380188,-8.128314971923828,-5.5329999923706055
1766402566190573300,7.1085732421875,-2.0925323963165283,-8.20732307434082,-5.600037574768066
1766402566200583200,7.118583251953125,-2.094926595687866,-8.26239013671875,-5.590460777282715
1766402566210593000,7.128593017578125,-2.140416383743286,-8.348581314086914,-5.475539207458496
1766402566220602600,7.1386025390625,-2.140416383743286,-8.327033042907715,-5.48272180557251
1766402566230612500,7.148612548828125,-2.1954829692840576,-8.267178535461426,-5.523423194885254
1766402566240622300,7.158622314453125,-2.3104045391082764,-8.094796180725098,-5.348646640777588
1766402566260641800,7.178641845703125,-2.3750481605529785,-8.243236541748047,-5.145139217376709
1766402566270651400,7.1886513671875,-2.365471363067627,-8.29590892791748,-5.147533416748047
1766402566280661200,7.1986611328125,-2.454056739807129,-8.300697326660156,-5.128379821777344
1766402566290671000,7.208671142578125,-2.5785553455352783,-8.195352554321289,-5.147533416748047
1766402566300711400,7.21871142578125,-2.5450363159179688,-8.209717750549316,-5.125985622406006
1766402566310721000,7.228720947265625,-2.762908697128296,-8.439560890197754,-5.123591423034668
1766402566320731000,7.23873095703125,-2.5306711196899414,-8.382100105285645,-5.329493045806885
1766402566330771200,7.248771240234375,-2.4181437492370605,-8.04691219329834,-5.2480902671813965
1766402566340780800,7.25878076171875,-2.33913516998291,-8.085219383239746,-5.2911858558654785
1766402566350790700,7.268790771484375,-2.470816135406494,-8.188169479370117,-5.468356609344482
1766402566370810000,7.28881005859375,-2.5067291259765625,-8.13789176940918,-5.535394191741943
1766402566380820000,7.298820068359375,-2.5115175247192383,-8.08282470703125,-5.626373767852783
1766402566390829800,7.308829833984375,-2.4372973442077637,-8.04930591583252,-5.600037574768066
1766402566400839400,7.31883935546875,-2.3080103397369385,-8.147468566894531,-5.655104637145996
1766402566410849300,7.328849365234375,-2.31758713722229,-8.202534675598145,-5.638344764709473
1766402566420889600,7.3388896484375,-2.296039342880249,-8.094796180725098,-5.571307182312012
1766402566430899200,7.348899169921875,-2.2577321529388428,-7.929595947265625,-5.456385612487793
1766402566440970200,7.35897021484375,-2.3319525718688965,-7.943961143493652,-5.434837818145752
1766402566491110400,7.4091103515625,-2.169146776199341,-7.762001991271973,-5.343858242034912
1766402566501120300,7.419120361328125,-2.2840683460235596,-7.6997528076171875,-5.374982833862305
1766402566511130000,7.429130126953125,-2.3942017555236816,-7.800309181213379,-5.30076265335083
1766402566521139700,7.4391396484375,-2.47560453414917,-7.929595947265625,-5.370194435119629
1766402566531149600,7.449149658203125,-2.470816135406494,-7.936778545379639,-5.386953830718994
1766402566541159400,7.459159423828125,-2.3271639347076416,-8.001421928405762,-5.418078422546387
1766402566551138600,7.469138671875,-2.365471363067627,-8.094796180725098,-5.489904403686523
1766402566581228800,7.499228759765625,-2.5330653190612793,-8.133103370666504,-5.3342814445495605
1766402566591238700,7.50923876953125,-2.5713725090026855,-8.243236541748047,-5.3342814445495605
1766402566601248500,7.51924853515625,-2.7222073078155518,-8.288725852966309,-5.2480902671813965
1766402566611258000,7.529258056640625,-2.6192567348480225,-8.099584579467773,-5.257667064666748
1766402566621268000,7.53926806640625,-2.4851813316345215,-7.975085735321045,-5.188235282897949
1766402566631277800,7.54927783203125,-2.367865562438965,-7.905653953552246,-5.212177276611328
1766402566641287400,7.559287353515625,-2.387019157409668,-7.936778545379639,-5.130774021148682
1766402566651297300,7.56929736328125,-2.408566951751709,-7.790732383728027,-5.185841083526611
1766402566661337600,7.579337646484375,-2.5043349266052246,-7.680599212646484,-5.109226226806641
1766402566681357000,7.599357177734375,-2.564189910888672,-7.838616371154785,-5.281609058380127
1766402566691397400,7.6093974609375,-2.451662540435791,-7.781155586242676,-5.231330871582031
1766402566711416800,7.629416748046875,-2.4372973442077637,-8.08282470703125,-5.305551052093506
1766402566721426700,7.6394267578125,-2.4468741416931152,-8.01339340209961,-5.410895824432373
1766402566731436500,7.6494365234375,-2.5450363159179688,-8.063671112060547,-5.453991413116455
1766402566741446100,7.659446044921875,-2.583343744277954,-7.920019149780273,-5.370194435119629
1766402566751456000,7.6694560546875,-2.5474305152893066,-7.793126583099365,-5.4013190269470215
1766402566761465600,7.679465576171875,-2.5546131134033203,-7.915230751037598,-5.475539207458496
1766402566771475500,7.689475341796875,-2.513911724090576,-8.058882713317871,-5.60722017288208
1766402566821585400,7.73958544921875,-2.3295583724975586,-8.066065788269043,-5.51624059677124
1766402566831595000,7.749594970703125,-2.315192937850952,-8.106766700744629,-5.535394191741943
1766402566841635300,7.75963525390625,-2.31758713722229,-8.02536392211914,-5.489904403686523
1766402566851706000,7.7697060546875,-2.3032219409942627,-7.955932140350342,-5.442020416259766
1766402566861746400,7.779746337890625,-2.363077163696289,-7.972691535949707,-5.3582234382629395
1766402566871756300,7.78975634765625,-2.4181437492370605,-8.061277389526367,-5.403713226318359
1766402566891806200,7.80980615234375,-2.4444799423217773,-7.797914981842041,-5.307945251464844
1766402566901816000,7.819816162109375,-2.4444799423217773,-7.797914981842041,-5.307945251464844
1766402566911826000,7.829825927734375,-2.4851813316345215,-7.7428483963012695,-5.47075080871582
1766402566921835500,7.83983544921875,-2.454056739807129,-8.001421928405762,-5.389348030090332
1766402566931875800,7.849875732421875,-2.492363929748535,-8.01339340209961,-5.413290023803711
1766402566941885700,7.8598857421875,-2.4468741416931152,-7.915230751037598,-5.396530628204346
1766402566951864800,7.86986474609375,-2.387019157409668,-7.99184513092041,-5.480327606201172
1766402566961905200,7.8799052734375,-2.5258827209472656,-8.01339340209961,-5.48272180557251
1766402566971884500,7.889884521484375,-2.4827871322631836,-7.931990146636963,-5.547365188598633
1766402567001913600,7.91991357421875,-2.7030537128448486,-7.7763671875,-5.571307182312012
1766402567021933300,7.939933349609375,-2.4612393379211426,-7.5968017578125,-5.4875102043151855
1766402567031943000,7.94994287109375,-2.4684219360351562,-7.536946773529053,-5.547365188598633
1766402567041952800,7.959952880859375,-2.4372973442077637,-7.702147006988525,-5.47075080871582
1766402567051993000,7.9699931640625,-2.4013843536376953,-7.797914981842041,-5.564124584197998
1766402567062003000,7.9800029296875,-2.343923568725586,-7.726089000701904,-5.626373767852783
1766402567072012500,7.990012451171875,-2.4229321479797363,-7.706935405731201,-5.430049419403076
1766402567082022400,8.0000224609375,-2.5115175247192383,-7.8745293617248535,-5.432443618774414
1766402567102103000,8.02010302734375,-2.6216509342193604,-8.121131896972656,-5.374982833862305
1766402567112112600,8.030112548828125,-2.513911724090576,-8.085219383239746,-5.386953830718994
1766402567122122500,8.04012255859375,-2.513911724090576,-8.097189903259277,-5.453991413116455
1766402567132132400,8.05013232421875,-2.4133553504943848,-8.111555099487305,-5.420472621917725
1766402567142203100,8.060203125,-2.4133553504943848,-8.066065788269043,-5.4013190269470215
1766402567152182300,8.070182373046874,-2.4684219360351562,-8.130708694458008,-5.2696380615234375
1766402567162222600,8.08022265625,-2.669534921646118,-8.437167167663574,-5.286397457122803
1766402567172232400,8.090232421875,-2.693476915359497,-8.595184326171875,-5.257667064666748
1766402567182242000,8.100241943359375,-2.6431987285614014,-8.418013572692871,-5.200206279754639
1766402567192252000,8.110251953125,-2.6455929279327393,-8.267178535461426,-5.137956619262695
1766402567222250800,8.140250732421874,-2.762908697128296,-8.08043098449707,-5.286397457122803
1766402567232260400,8.15026025390625,-2.7772738933563232,-7.99184513092041,-5.257667064666748
1766402567242270200,8.160270263671874,-2.734178304672241,-7.872135162353516,-5.324704647064209
1766402567252341000,8.170341064453124,-2.5977089405059814,-7.86734676361084,-5.355829238891602
1766402567262381300,8.18038134765625,-2.535459518432617,-7.814674377441406,-5.324704647064209
1766402567272391000,8.190390869140625,-2.5713725090026855,-7.757213592529297,-5.190629482269287
1766402567282400800,8.20040087890625,-2.6384103298187256,-7.943961143493652,-5.243301868438721
1766402567292441000,8.210441162109374,-2.6791117191314697,-8.166622161865234,-5.154716491699219
1766402567312491000,8.230490966796875,-2.5450363159179688,-7.934384346008301,-4.989516258239746
1766402567322500900,8.2405009765625,-2.5282769203186035,-8.123526573181152,-4.991910457611084
1766402567332510700,8.2505107421875,-2.6144683361053467,-8.29830265045166,-4.991910457611084
1766402567342520300,8.260520263671875,-2.5785553455352783,-8.271966934204102,-4.934449672698975
1766402567352530200,8.2705302734375,-2.473210334777832,-8.26239013671875,-5.006275653839111
1766402567362540000,8.2805400390625,-2.387019157409668,-8.255207061767578,-5.166687488555908
1766402567372549600,8.290549560546875,-2.4636335372924805,-8.391676902770996,-5.104437828063965
1766402567382620400,8.300620361328125,-2.516305923461914,-8.49941635131836,-5.178658485412598
1766402567392599800,8.310599853515624,-2.518700122833252,-8.559270858764648,-5.154716491699219
1766402567402609400,8.320609375,-2.497152328491211,-8.571242332458496,-5.097255229949951
1766402567432638700,8.350638671875,-2.2409727573394775,-8.17141056060791,-4.721365928649902
1766402567442648600,8.360648681640624,-2.1930887699127197,-8.334216117858887,-4.797980308532715
1766402567452658400,8.370658447265624,-2.1787235736846924,-8.26239013671875,-4.584896087646484
1766402567462668000,8.38066796875,-2.205059766769409,-8.367734909057617,-4.671087741851807
1766402567472678000,8.390677978515624,-2.3271639347076416,-8.580819129943848,-4.778826713562012
1766402567482687700,8.400687744140624,-2.4372973442077637,-8.638279914855957,-4.994304656982422
1766402567492697300,8.410697265625,-2.513911724090576,-8.51138687133789,-5.027823448181152
1766402567502737700,8.420737548828125,-2.58813214302063,-8.470685958862305,-5.078101634979248
1766402567512747500,8.43074755859375,-2.6408045291900635,-8.487444877624512,-4.965574264526367
1766402567542807300,8.460807373046874,-2.631227731704712,-8.439560890197754,-4.819528102874756
1766402567552817200,8.470817138671874,-2.6384103298187256,-8.681375503540039,-4.7836151123046875
1766402567572836600,8.490836669921874,-2.6384103298187256,-8.71728801727295,-4.795586109161377
1766402567582877000,8.500876953125,-2.535459518432617,-8.834604263305664,-4.821922302246094
1766402567592886500,8.510886474609375,-2.434903144836426,-8.757989883422852,-4.81473970413208
1766402567602896400,8.520896484375,-2.537853717803955,-8.621520042419434,-4.800374507904053
1766402567622915800,8.540915771484375,-2.5713725090026855,-8.40843677520752,-4.697423934936523
1766402567632956200,8.5509560546875,-2.561795711517334,-8.497021675109863,-4.649539470672607
1766402567642966000,8.560966064453124,-2.540247917175293,-8.643068313598633,-4.642356872558594
1766402567652975600,8.5709755859375,-2.470816135406494,-8.638279914855957,-4.5825018882751465
1766402567662985500,8.5809853515625,-2.427720546722412,-8.640673637390137,-4.613626480102539
1766402567672995300,8.590995361328124,-2.27209734916687,-8.760383605957031,-4.644751071929932
1766402567683005000,8.6010048828125,-2.293645143508911,-9.01895809173584,-4.788403511047363
1766402567693014800,8.611014892578124,-2.099714994430542,-9.294290542602539,-4.8482584953308105
1766402567703024600,8.621024658203124,-1.9321208000183105,-9.555258750915527,-5.193023681640625
1766402567713034200,8.6310341796875,-1.7717092037200928,-9.835380554199219,-5.616796970367432
1766402567743094000,8.661093994140625,-1.8914192914962769,-12.876016616821289,-7.371747016906738
1766402567753104000,8.671103759765625,-1.9728221893310547,-13.792996406555176,-8.188169479370117
1766402567763144200,8.681144287109374,-1.8339585065841675,-14.338873863220215,-9.349357604980469
1766402567773184500,8.6911845703125,-1.2976573705673218,-13.864822387695312,-11.216835021972656
1766402567783194000,8.701194091796875,-0.7709329724311829,-12.820950508117676,-12.861651420593262
1766402567793173500,8.711173583984374,-0.11252748221158981,-11.135432243347168,-13.982137680053711
1766402567803183400,8.721183349609374,0.7230489253997803,-9.792284965515137,-13.599065780639648
1766402567813223400,8.731223388671875,1.0965443849563599,-9.028534889221191,-11.836933135986328
1766402567823263700,8.741263671875,1.1779472827911377,-8.631096839904785,-9.96945571899414
1766402567843314000,8.76131396484375,0.9840168952941895,-8.35097599029541,-8.418013572692871
1766402567853323500,8.771323486328125,0.9457096457481384,-7.29034423828125,-8.564059257507324
1766402567863333400,8.78133349609375,0.8044517636299133,-6.742072105407715,-8.918401718139648
1766402567873343200,8.79134326171875,1.01753568649292,-5.542576789855957,-9.100360870361328
1766402567883352800,8.801352783203125,1.2497732639312744,-4.223371982574463,-8.458714485168457
1766402567893362700,8.81136279296875,1.4317326545715332,-3.5721490383148193,-7.807491779327393
1766402567903372500,8.82137255859375,1.4317326545715332,-4.158728122711182,-7.101202011108398
1766402567913382100,8.831382080078125,1.824381709098816,-5.9519853591918945,-6.952761650085449
1766402567923422500,8.84142236328125,2.0039467811584473,-7.108384609222412,-6.540958881378174
1766402567943472600,8.86147265625,1.4748282432556152,-6.921637058258057,-5.317522048950195
1766402567953482200,8.871482177734375,1.644816517829895,-6.567295074462891,-4.714183330535889
1766402567963492000,8.8814921875,1.9297266006469727,-6.294356346130371,-4.5394062995910645
1766402567973532400,8.891532470703124,2.322375535964966,-6.275202751159668,-4.4292731285095215
1766402567983572700,8.90157275390625,2.8179752826690674,-6.411672115325928,-4.299986362457275
1766402567993552000,8.9115517578125,2.8802247047424316,-6.6630635261535645,-4.10366153717041
1766402568003561700,8.921561767578124,3.1268274784088135,-6.531382083892822,-3.536235809326172
1766402568013602000,8.93160205078125,3.3662476539611816,-6.129156112670898,-2.896984100341797
1766402568023611600,8.941611572265625,3.335123062133789,-5.990292549133301,-2.4013843536376953
1766402568033652000,8.95165185546875,3.4787750244140625,-5.856217384338379,-1.821987509727478
1766402568053702100,8.9717021484375,3.028665065765381,-7.003039836883545,-0.569819986820221
1766402568063742200,8.9817421875,3.0765492916107178,-8.597578048706055,0.1364694982767105
1766402568073782500,8.991782470703125,3.4596214294433594,-10.412383079528809,0.5985504388809204
1766402568083792400,9.00179248046875,3.8379054069519043,-12.200851440429688,0.43335050344467163
1766402568093802200,9.01180224609375,3.778050184249878,-12.97657299041748,0.14365209639072418
1766402568103842300,9.02184228515625,3.5242648124694824,-12.830527305603027,-0.019153613597154617
1766402568113821700,9.03182177734375,2.3989901542663574,-11.801020622253418,-0.17717093229293823
1766402568123862000,9.041862060546874,0.9552865028381348,-10.1753568649292,0.09816227108240128
1766402568133871600,9.05187158203125,-0.23702596127986908,-9.287108421325684,0.6584054827690125
1766402568153860900,9.07186083984375,-2.33913516998291,-9.114726066589355,1.7286136150360107
1766402568163931600,9.081931640625,-2.1811177730560303,-9.873687744140625,1.6855180263519287
1766402568173910800,9.091910888671874,-1.5059528350830078,-9.524134635925293,1.5490485429763794
1766402568183920600,9.101920654296874,-0.4908113479614258,-8.588001251220703,1.161187767982483
1766402568193991400,9.111991455078124,0.5746083855628967,-8.180987358093262,0.6991068720817566
1766402568204001000,9.1220009765625,2.1380221843719482,-8.26239013671875,0.2992752194404602
1766402568214071800,9.13207177734375,3.8331170082092285,-8.638279914855957,-1.1635819673538208
1766402568224081700,9.14208154296875,5.044582843780518,-9.765948295593262,-2.9712042808532715
1766402568234091500,9.152091552734374,7.489062786102295,-7.860164165496826,-4.888959884643555
1766402568264151300,9.1821513671875,12.574347496032715,-4.565742492675781,-8.066065788269043
1766402568274161200,9.1921611328125,10.845733642578125,-5.446808815002441,-7.613561630249023
1766402568284201200,9.202201171875,8.772355079650879,-6.04775333404541,-6.9240312576293945
1766402568294241500,9.212241455078125,7.026981830596924,-7.647080421447754,-6.560112476348877
1766402568304251400,9.22225146484375,5.171475887298584,-7.951143741607666,-6.107608318328857
1766402568314291700,9.232291748046874,4.393360137939453,-7.393294811248779,-5.822698593139648
1766402568324301300,9.24230126953125,4.532223701477051,-6.449979305267334,-5.60722017288208
1766402568334311200,9.252311279296874,4.8602294921875,-6.3733649253845215,-5.767632007598877
1766402568344321000,9.262321044921874,4.8602294921875,-6.3733649253845215,-5.767632007598877
1766402568354330600,9.27233056640625,6.179434776306152,-7.127538681030273,-6.782773494720459
1766402568364340500,9.282340576171874,7.12035608291626,-7.240066051483154,-7.857769966125488
1766402568374350300,9.292350341796874,8.250418663024902,-7.103596210479736,-8.619126319885254
1766402568384360000,9.30235986328125,8.415618896484375,-6.687005519866943,-8.78432559967041
1766402568394369800,9.312369873046874,7.6111674308776855,-7.139509677886963,-8.765172004699707
1766402568404379600,9.322379638671874,6.081272125244141,-7.194576263427734,-8.068459510803223
1766402568414389200,9.33238916015625,4.790797710418701,-7.627926826477051,-7.022193431854248
1766402568424399000,9.342399169921874,3.892971992492676,-8.494627952575684,-6.842628479003906
1766402568434409000,9.352408935546874,3.6391866207122803,-9.289502143859863,-7.544129371643066
1766402568444418600,9.36241845703125,3.8594532012939453,-9.02135181427002,-7.948749542236328
1766402568464468700,9.38246875,4.331110954284668,-8.20732307434082,-7.479485988616943
1766402568474478300,9.392478271484375,4.0533833503723145,-7.417236804962158,-7.2352776527404785
1766402568484518700,9.4025185546875,3.8307228088378906,-6.821080684661865,-7.139509677886963
1766402568494559000,9.41255908203125,3.8522706031799316,-6.222530364990234,-6.785167694091797
1766402568504568800,9.42256884765625,3.794809579849243,-6.519411087036133,-6.631938934326172
1766402568514578400,9.432578369140625,3.3303346633911133,-8.564059257507324,-6.555324077606201
1766402568524588300,9.44258837890625,2.762908697128296,-10.307038307189941,-6.555324077606201
1766402568534567400,9.4525673828125,3.0382418632507324,-10.105925559997559,-6.627150535583496
1766402568544607700,9.462607666015625,2.477998733520508,-8.403648376464844,-6.313509941101074
1766402568554617600,9.47261767578125,3.098097085952759,-6.689399719238281,-6.203376770019531
1766402568584799500,9.502799560546874,4.489128112792969,-3.5434184074401855,-5.92325496673584
1766402568594778600,9.512778564453125,4.458003520965576,-4.8051629066467285,-5.676652431488037
1766402568604788500,9.52278857421875,4.484339714050293,-5.583278179168701,-5.453991413116455
1766402568614828800,9.532828857421874,4.620809078216553,-5.813121795654297,-4.917690277099609
1766402568624838400,9.54283837890625,3.8307228088378906,-5.57370138168335,-4.077325344085693
1766402568634848300,9.55284814453125,4.043806552886963,-5.125985622406006,-3.914519786834717
1766402568644888600,9.562888671875,4.1395745277404785,-4.369418144226074,-3.555389642715454
1766402568654898400,9.5728984375,3.464409828186035,-5.669469833374023,-3.6080620288848877
1766402568664938500,9.5829384765625,2.647987127304077,-7.419631004333496,-3.641580820083618
1766402568684958200,9.602958251953124,0.035913024097681046,-9.0859956741333,-2.559401512145996
1766402568694998500,9.61299853515625,-1.5083470344543457,-8.990227699279785,-2.695871114730835
1766402568705008000,9.623008056640625,-2.853888511657715,-7.881711959838867,-2.849100112915039
1766402568715018000,9.63301806640625,-0.8355764150619507,-7.671022415161133,-4.280832767486572
1766402568725027800,9.64302783203125,1.2761094570159912,-6.84981107711792,-5.219359874725342
1766402568735068000,9.65306787109375,3.778050184249878,-6.236895561218262,-5.995080947875977
1766402568745077800,9.663077880859374,4.912901878356934,-5.796362400054932,-6.0190229415893555
1766402568755087600,9.673087646484374,5.394136428833008,-5.884947776794434,-5.7125654220581055
1766402568765066800,9.683066650390625,6.646304130554199,-6.088454723358154,-5.738901615142822
1766402568775107000,9.693107177734374,6.840234279632568,-6.191405773162842,-5.52821159362793
1766402568795157200,9.7131572265625,7.218518257141113,-6.524199485778809,-6.62236213684082
1766402568805166800,9.723166748046875,6.279991149902344,-7.0988078117370605,-6.92881965637207
1766402568815207200,9.733207275390624,5.240907669067383,-8.398859977722168,-6.72531270980835
1766402568825217000,9.743217041015624,3.97916316986084,-8.710105895996094,-6.6630635261535645
1766402568835226600,9.7532265625,3.1483752727508545,-7.857769966125488,-6.586448669433594
1766402568845236500,9.763236572265624,2.937685489654541,-7.242460250854492,-5.987898349761963
1766402568855276800,9.77327685546875,2.7509377002716064,-7.850587368011475,-5.6191911697387695
1766402568865347600,9.78334765625,2.7293899059295654,-9.208099365234375,-5.657498836517334
1766402568875326700,9.79332666015625,2.451662540435791,-9.825803756713867,-5.231330871582031
1766402568905386500,9.823386474609375,2.1811177730560303,-8.944737434387207,-4.752490520477295
1766402568915396400,9.833396240234375,2.2170307636260986,-8.180987358093262,-4.551377296447754
1766402568925436700,9.843436767578124,2.0039467811584473,-7.5417351722717285,-4.563348293304443
1766402568935477000,9.85347705078125,2.3511061668395996,-6.739677906036377,-4.865017890930176
1766402568945486600,9.863486572265625,2.5713725090026855,-6.071695327758789,-4.345476150512695
1766402568955496400,9.873496337890625,2.5091233253479004,-5.796362400054932,-3.5482068061828613
1766402568965506300,9.88350634765625,2.2697031497955322,-5.793968200683594,-4.256890773773193
1766402568975546600,9.893546630859374,2.360682964324951,-6.775590896606445,-5.461174011230469
1766402569015646700,9.933646728515624,3.8355112075805664,-3.5242648124694824,-6.045359134674072
1766402569025687000,9.94368701171875,3.354276657104492,-2.4396915435791016,-6.04775333404541
1766402569035696600,9.953696533203125,3.2154128551483154,-2.0422539710998535,-6.203376770019531
1766402569045706500,9.96370654296875,3.450044631958008,-2.4229321479797363,-6.698976516723633
1766402569055716000,9.973716064453125,3.3877954483032227,-3.4356794357299805,-6.689399719238281
1766402569065726000,9.983725830078125,3.3877954483032227,-6.301538944244385,-7.359776020050049
1766402569075735800,9.99373583984375,3.509899616241455,-9.524134635925293,-7.936778545379639
1766402569085776100,10.003776123046874,3.509899616241455,-9.524134635925293,-7.936778545379639
1766402569095785700,10.01378564453125,3.5458126068115234,-9.603142738342285,-8.04691219329834
1766402569135855400,10.05385546875,5.7556610107421875,-1.0606313943862915,-10.091560363769531
1766402569145865200,10.063865234375,4.098873138427734,-2.80361008644104,-9.361329078674316
1766402569155905500,10.073905517578124,4.003105163574219,-3.778050184249878,-9.035717010498047
1766402569165915100,10.0839150390625,3.1292216777801514,-4.127603530883789,-9.181763648986816
1766402569175955500,10.09395556640625,2.5689783096313477,-4.795586109161377,-9.461885452270508
1766402569185965300,10.10396533203125,0.9074024558067322,-5.5114521980285645,-8.990227699279785
1766402569195975000,10.113974853515625,0.4692635238170624,-5.056553840637207,-9.14585018157959
1766402569205954300,10.123954345703124,0.9481038451194763,-5.609614372253418,-9.282320022583008
1766402569216025000,10.134025146484374,2.5905263423919678,-6.730101108551025,-10.520122528076172
1766402569226065400,10.1440654296875,2.360682964324951,-7.546523571014404,-10.828974723815918
1766402569236075000,10.154074951171875,1.8315643072128296,-6.964732646942139,-10.747570991516113
1766402569246084900,10.1640849609375,0.7613561153411865,-6.414066314697266,-10.922348022460938
1766402569256094700,10.1740947265625,-0.22505496442317963,-5.932831764221191,-11.027692794799805
1766402569266104300,10.184104248046875,-2.279279947280884,-5.671864032745361,-11.08994197845459
1766402569276114200,10.1941142578125,-3.2585084438323975,-5.47075080871582,-11.954249382019043
1766402569286124000,10.2041240234375,-2.7748796939849854,-5.9735331535339355,-13.005303382873535
1766402569296133600,10.214133544921875,-2.209848165512085,-4.879383087158203,-13.82412052154541
1766402569306143500,10.2241435546875,-0.9576807022094727,-3.339911460876465,-14.401123046875
1766402569346213000,10.264213134765624,-1.3766659498214722,-5.152322292327881,-14.626177787780762
1766402569356222700,10.27422265625,-0.8236053586006165,-4.970362663269043,-13.716381072998047
1766402569366202000,10.2842021484375,0.2082955539226532,-4.675876140594482,-13.21599292755127
1766402569376242400,10.294242431640624,-3.9384617805480957,-3.825934410095215,-12.797008514404297
1766402569386282500,10.304282470703125,-6.497863292694092,-2.9041666984558105,-11.496956825256348
1766402569396322800,10.31432275390625,-2.8562827110290527,0.7134721279144287,-11.496956825256348
1766402569406332700,10.324332763671874,-1.3215993642807007,1.0606313943862915,-10.886435508728027
1766402569426413300,10.344413330078124,-0.1604115068912506,-0.29209262132644653,-9.198522567749023
1766402569436423000,10.3544228515625,-0.6512228846549988,-0.569819986820221,-8.549694061279297
1766402569446402300,10.36440234375,-1.941697597503662,-0.9552865028381348,-7.778761386871338
1766402569456442600,10.374442626953124,-3.663128614425659,-2.4205379486083984,-7.4316020011901855
1766402569466421800,10.384421875,-4.10366153717041,-3.9815573692321777,-7.371747016906738
1766402569476431600,10.394431640625,-4.201824188232422,-2.408566951751709,-7.465120792388916
1766402569486441200,10.404441162109375,-1.0199298858642578,0.608127236366272,-7.491456985473633
1766402569496481500,10.4144814453125,-3.294421434402466,-2.2026655673980713,-6.89530086517334
1766402569506521900,10.42452197265625,-3.445256233215332,-1.723825216293335,-6.179434776306152
1766402569516501200,10.434501220703124,-2.051830768585205,1.3766659498214722,-6.160281181335449
1766402569566641400,10.484641357421875,0.5386953949928284,-3.375824451446533,-4.218583583831787
1766402569576651300,10.4946513671875,0.0933738648891449,-2.7269957065582275,-3.4332852363586426
1766402569586691600,10.504691650390624,-1.0678139925003052,-2.3487119674682617,-2.846705913543701
1766402569596701400,10.514701416015624,-1.6112977266311646,-1.6041151285171509,-2.8826189041137695
1766402569606772200,10.524772216796874,-1.6950948238372803,-0.8331822156906128,-2.190694570541382
1766402569616751400,10.53475146484375,-2.0039467811584473,0.29209262132644653,-1.2186486721038818
1766402569626791700,10.544791748046874,-0.5195417404174805,1.5155296325683594,-1.2210428714752197
1766402569656851500,10.5748515625,-1.4915876388549805,0.8762778043746948,-1.0749965906143188
1766402569666891800,10.584891845703124,-3.1747114658355713,0.05506663769483566,-2.892195701599121
1766402569676901600,10.594901611328124,-3.6511576175689697,-0.5961562395095825,-4.395754337310791
1766402569686941700,10.604941650390625,-1.9345149993896484,-2.4875755310058594,-4.8722004890441895
1766402569696951600,10.61495166015625,-1.0606313943862915,-4.144362926483154,-5.370194435119629
1766402569706961400,10.62496142578125,-0.8858546018600464,-4.934449672698975,-6.5696892738342285
1766402569716971000,10.634970947265625,-1.4987702369689941,-5.949591159820557,-7.704541206359863
1766402569726980900,10.64498095703125,-2.1284453868865967,-6.00226354598999,-8.813055992126465
1766402569736990700,10.65499072265625,-2.1332337856292725,-5.96874475479126,-9.861717224121094
1766402569777090800,10.6950908203125,-0.6224924325942993,-5.813121795654297,-14.31014347076416
1766402569787100400,10.705100341796875,-0.18914192914962769,-5.477933406829834,-14.963760375976562
1766402569797110300,10.7151103515625,0.9289502501487732,-5.102043628692627,-16.259023666381836
1766402569807150600,10.725150634765624,2.5234885215759277,-6.1985883712768555,-17.322050094604492
1766402569817191000,10.73519091796875,2.4684219360351562,-7.378929615020752,-17.9732723236084
1766402569827200500,10.745200439453125,2.4684219360351562,-7.378929615020752,-17.9732723236084
1766402569837210400,10.75521044921875,1.699883222579956,-7.01979923248291,-17.652448654174805
1766402569847220200,10.76522021484375,1.4101848602294922,-6.734889507293701,-16.46492576599121
1766402569857229800,10.775229736328125,1.0869675874710083,-6.8043212890625,-16.814477920532227
1766402569867270100,10.785270263671874,1.1444283723831177,-5.623979568481445,-17.707515716552734
1766402569877280000,10.795280029296874,2.492363929748535,-5.916072368621826,-17.50640296936035
1766402569887320300,10.8053203125,3.579331636428833,-6.112396717071533,-16.77138328552246
1766402569897330000,10.815329833984375,4.623203277587891,-5.104437828063965,-16.139312744140625
1766402569907339800,10.82533984375,5.937620162963867,-5.013458251953125,-14.939818382263184
1766402569917349600,10.835349609375,6.521805286407471,-5.039794445037842,-14.147337913513184
1766402569927420400,10.84542041015625,6.926425457000732,-5.473145008087158,-12.773066520690918
1766402569937430000,10.855429931640625,6.670246124267578,-5.896918773651123,-11.887211799621582
1766402569957449700,10.87544970703125,5.272032260894775,-6.943184852600098,-10.864887237548828
1766402569967459300,10.885459228515625,3.9025487899780273,-7.544129371643066,-10.06043529510498
1766402569977469200,10.89546923828125,3.315969467163086,-7.297526836395264,-9.071630477905273
1766402569987478800,10.905478759765625,3.098097085952759,-7.60637903213501,-7.977479934692383
1766402569997488600,10.915488525390625,2.449268341064453,-7.841010570526123,-7.1706342697143555
1766402570007529000,10.925529052734374,1.800439715385437,-7.879317760467529,-6.445190906524658
1766402570017538800,10.935538818359374,1.3742717504501343,-7.247248649597168,-5.743690013885498
1766402570027548400,10.94554833984375,0.45010992884635925,-8.394071578979492,-4.967968463897705
1766402570037558300,10.955558349609374,-0.6272808313369751,-9.938331604003906,-3.9384617805480957
1766402570047598600,10.9655986328125,-1.8507179021835327,-11.022904396057129,-2.9448680877685547
1766402570057608200,10.975608154296875,-1.9321208000183105,-11.710040092468262,-2.676717519760132
1766402570077658400,10.995658447265624,-1.237802267074585,-11.116278648376465,-2.779668092727661
1766402570087668200,11.005668212890624,-0.06224924325942993,-10.620678901672363,-2.5713725090026855
1766402570097677800,11.015677734375,1.7262194156646729,-10.747570991516113,-2.140416383743286
1766402570107718100,11.02571826171875,3.2345664501190186,-11.710040092468262,-1.7932571172714233
1766402570117789000,11.035788818359375,4.541800498962402,-13.163320541381836,-1.6208745241165161
1766402570127798800,11.045798828125,5.219359874725342,-15.227123260498047,-1.6208745241165161
1766402570137808400,11.055808349609375,5.477933406829834,-16.4816837310791,-1.8746598958969116
1766402570147818200,11.065818359375,5.643133640289307,-16.603788375854492,-1.9728221893310547
1766402570177939200,11.095939208984374,6.347028732299805,-14.137761116027832,-2.4420857429504395
1766402570187948800,11.10594873046875,5.542576789855957,-12.897564888000488,-1.5203180313110352
1766402570197989000,11.115989013671875,5.236119270324707,-12.354081153869629,-0.038307227194309235
1766402570208029400,11.126029541015624,5.276820659637451,-11.930307388305664,1.3263877630233765
1766402570218039300,11.136039306640624,5.458779811859131,-10.532093048095703,2.315192937850952
1766402570228049000,11.146048828125,5.671864032745361,-9.634267807006836,2.8203697204589844
1766402570238089200,11.156089111328125,5.523423194885254,-9.284713745117188,2.738966703414917
1766402570248099000,11.16609912109375,5.1595048904418945,-8.29590892791748,2.7269957065582275
1766402570258108700,11.176108642578125,4.869806289672852,-7.659051418304443,3.141192674636841
1766402570298178300,11.21617822265625,4.927267074584961,-5.6191911697387695,2.9712042808532715
1766402570318198000,11.236197998046874,4.4077253341674805,-5.039794445037842,3.4572272300720215
1766402570338248000,11.256248046875,2.851494312286377,-3.4356794357299805,4.436455726623535
1766402570348257800,11.2662578125,1.98958158493042,-3.627215623855591,4.797980308532715
1766402570358267400,11.276267333984375,1.5945383310317993,-4.120420932769775,5.288791656494141
1766402570368277200,11.28627734375,1.6711528301239014,-3.9456443786621094,5.284003257751465
1766402570378287000,11.296287109375,1.5418659448623657,-3.6846764087677,5.374982833862305
1766402570388327200,11.3063271484375,1.3239935636520386,-3.3423056602478027,5.552153587341309
1766402570398337000,11.3163369140625,1.1348515748977661,-3.1938650608062744,5.348646640777588
1766402570408347000,11.326346923828124,0.993593692779541,-3.117250680923462,4.912901878356934
1766402570418387200,11.33638720703125,0.8619126081466675,-3.1268274784088135,4.611232280731201
1766402570428396800,11.346396728515625,0.49559974670410156,-3.071760892868042,4.441244125366211
1766402570438406700,11.35640673828125,0.24660277366638184,-2.451662540435791,4.4292731285095215
1766402570448416500,11.36641650390625,0.31364041566848755,-1.2042834758758545,4.364629745483398
1766402570458395600,11.376395751953124,0.4596867263317108,-1.280897855758667,4.316745758056641
1766402570468405500,11.386405517578124,0.8882488012313843,-1.359906554222107,4.477157115936279
1766402570478415000,11.3964150390625,1.8363527059555054,-1.7190368175506592,4.917690277099609
1766402570518484700,11.436484619140625,4.304774761199951,-2.432508945465088,5.372588634490967
1766402570528525000,11.446525146484374,4.5609540939331055,-2.341529369354248,5.899312973022461
1766402570538535000,11.456534912109374,5.1810526847839355,-2.1571757793426514,6.076483726501465
1766402570548575000,11.466574951171875,5.664681434631348,-2.319981336593628,6.165069580078125
1766402570558584800,11.476584716796875,5.664681434631348,-2.319981336593628,6.165069580078125
1766402570568625200,11.486625244140624,5.937620162963867,-2.7676970958709717,6.251260757446289
1766402570578635000,11.496635009765624,6.1530985832214355,-2.7102363109588623,6.5050458908081055
1766402570588675000,11.506675048828125,6.023811340332031,-2.38462495803833,6.976703643798828
1766402570628744700,11.54674462890625,5.743690013885498,-2.7485435009002686,7.8745293617248535
1766402570638754600,11.556754638671874,5.595249176025391,-3.3494882583618164,8.058882713317871
1766402570648764400,11.566764404296874,5.355829238891602,-3.335123062133789,7.915230751037598
1766402570658804500,11.576804443359375,4.841075897216797,-2.9281086921691895,7.508216381072998
1766402570668844800,11.5868447265625,4.110844135284424,-3.2154128551483154,7.513004779815674
1766402570678854700,11.596854736328124,3.648763418197632,-3.708618402481079,7.769184589385986
1766402570688864500,11.606864501953124,3.2130186557769775,-4.24970817565918,8.073247909545898
1766402570718893800,11.636893798828124,3.512293815612793,-4.7189717292785645,7.754819393157959
1766402570728934000,11.646933837890625,3.706224203109741,-4.24970817565918,7.996633529663086
1766402570738913300,11.656913330078124,3.6080620288848877,-3.8546648025512695,8.008605003356934
1766402570748953600,11.66695361328125,3.488351821899414,-3.3303346633911133,8.159439086914062
1766402570758963200,11.676963134765625,3.2609026432037354,-3.950432777404785,8.307879447937012
1766402570768973000,11.68697314453125,3.464409828186035,-4.129997730255127,7.848193168640137
1766402570778983000,11.69698291015625,3.667917013168335,-3.7493197917938232,7.493851184844971
1766402570788992500,11.706992431640625,3.5697548389434814,-4.005499362945557,7.718906402587891
1766402570839072000,11.757072021484374,3.648763418197632,-3.7421371936798096,7.6997528076171875
1766402570849112300,11.7671123046875,3.687070608139038,-3.6367924213409424,7.920019149780273
1766402570859122000,11.777121826171875,3.9169139862060547,-3.622427225112915,7.915230751037598
1766402570869131800,11.7871318359375,4.364629745483398,-4.309563159942627,7.687781810760498
1766402570879141400,11.797141357421875,4.63517427444458,-4.6734819412231445,7.733271598815918
1766402570889151200,11.807151123046875,4.829104900360107,-4.618414878845215,7.800309181213379
1766402570899191600,11.817191650390624,4.903325080871582,-4.050989151000977,7.795520782470703
1766402570929190400,11.8471904296875,3.936067581176758,-4.833893299102783,8.518569946289062
1766402570949209900,11.8672099609375,3.095702886581421,-5.188235282897949,8.343792915344238
1766402570959219700,11.8772197265625,3.1651346683502197,-5.154716491699219,8.142680168151855
1766402570969229300,11.887229248046875,3.485957622528076,-4.991910457611084,7.999027729034424
1766402570979208700,11.897208740234374,3.8307228088378906,-4.031835556030273,8.176198959350586
1766402570989218300,11.90721826171875,3.885789394378662,-3.2800562381744385,8.197746276855469
1766402570999228200,11.917228271484374,3.6128504276275635,-3.292027235031128,8.33182144165039
1766402571009238000,11.927238037109374,3.5673606395721436,-3.6343982219696045,8.413225173950195
1766402571059347700,11.97734765625,4.584896087646484,-3.9384617805480957,7.632715225219727
1766402571069388000,11.987387939453125,4.335899353027344,-3.1292216777801514,7.996633529663086
1766402571079398000,11.99739794921875,4.165910720825195,-3.40216064453125,8.08043098449707
1766402571089407700,12.00740771484375,4.304774761199951,-3.708618402481079,7.836222171783447
1766402571099417300,12.017417236328125,4.517858505249023,-3.799597978591919,7.474697589874268
1766402571109427200,12.02742724609375,4.697423934936523,-3.912125587463379,7.254431247711182
1766402571119436800,12.037436767578125,4.613626480102539,-4.082113742828369,7.16584587097168
1766402571159476000,12.07747607421875,3.691859006881714,-3.383007049560547,7.6111674308776855
1766402571169485800,12.08748583984375,4.027047157287598,-2.806004285812378,7.501033782958984
1766402571179526100,12.097526123046874,4.1611223220825195,-1.9919757843017578,7.026981830596924
1766402571189535700,12.10753564453125,4.185064792633057,-1.5203180313110352,6.370970726013184
1766402571199576000,12.117576171875,4.094084739685059,-1.4484920501708984,6.042964935302734
1766402571209616400,12.127616455078124,3.864241600036621,-1.4676456451416016,5.932831764221191
1766402571219626200,12.137626220703124,3.5194764137268066,-1.5394717454910278,6.186617374420166
1766402571229635800,12.1476357421875,3.2393548488616943,-1.2449848651885986,6.423643112182617
1766402571249686000,12.16768603515625,2.0015525817871094,-1.6184803247451782,5.913678169250488
1766402571259726300,12.177726318359374,1.5490485429763794,-1.8626888990402222,6.04775333404541
1766402571269736000,12.18773583984375,1.5490485429763794,-1.8626888990402222,6.04775333404541
1766402571279745800,12.197745849609374,1.094150185585022,-2.0638017654418945,6.5050458908081055
1766402571289816600,12.207816650390624,0.6009446382522583,-2.851494312286377,6.818686485290527
1766402571299826400,12.217826416015624,0.44532153010368347,-3.2082302570343018,7.319074630737305
1766402571309897200,12.227897216796874,0.2082955539226532,-3.248931646347046,7.632715225219727
1766402571319937300,12.237937255859375,0.0694318488240242,-2.8826189041137695,7.982268333435059
1766402571329977600,12.2479775390625,-0.13168109953403473,-2.779668092727661,8.453926086425781
1766402571380087600,12.298087646484374,-0.395043283700943,-7.445967197418213,11.432312965393066
1766402571390097400,12.308097412109374,0.4381389021873474,-8.487444877624512,11.473014831542969
1766402571400107000,12.31810693359375,1.9800047874450684,-9.023746490478516,11.410765647888184
1766402571410177800,12.328177734375,3.663128614425659,-8.33182144165039,11.362881660461426
1766402571420187600,12.338187744140624,4.067748546600342,-9.162610054016113,11.12106704711914
1766402571430197500,12.348197509765624,3.6559460163116455,-11.295844078063965,11.461043357849121
1766402571440207000,12.35820703125,3.1052796840667725,-11.91354751586914,11.78665542602539
1766402571490317000,12.408317138671874,5.724536418914795,-9.294290542602539,8.516175270080566
1766402571500296200,12.418296142578125,5.944802761077881,-8.039729118347168,8.655038833618164
1766402571510306000,12.42830615234375,5.693411827087402,-7.230489253997803,8.449137687683105
1766402571520316000,12.43831591796875,4.355052947998047,-7.654263019561768,7.881711959838867
1766402571530325500,12.448325439453125,4.165910720825195,-7.060500621795654,7.1490864753723145
1766402571540305000,12.458304931640624,4.182670593261719,-5.403713226318359,6.4164605140686035
1766402571550345200,12.46834521484375,4.120420932769775,-4.656722068786621,6.313509941101074
1766402571570395100,12.48839501953125,4.438849925994873,-4.271255970001221,5.770026206970215
1766402571580405000,12.498405029296874,4.321534156799316,-3.8714241981506348,5.506663799285889
1766402571590445300,12.5084453125,3.7397429943084717,-3.8594532012939453,5.746084213256836
1766402571600455000,12.518454833984375,3.3016040325164795,-4.213795185089111,5.590460777282715
1766402571610495200,12.5284951171875,3.4332852363586426,-4.49870491027832,5.0469770431518555
1766402571620505000,12.538505126953124,4.158728122711182,-4.0749311447143555,4.7836151123046875
1766402571630484200,12.548484130859375,4.125209331512451,-3.971980571746826,4.90571928024292
1766402571640494000,12.558494140625,3.5266590118408203,-3.663128614425659,5.197812080383301
1766402571650534400,12.568534423828124,2.9496564865112305,-3.4524388313293457,5.5760955810546875
1766402571680624600,12.598624755859374,3.0621838569641113,-4.326322555541992,6.256049156188965
1766402571690665000,12.6086650390625,3.375824451446533,-4.084507942199707,6.406883716583252
1766402571700674800,12.6186748046875,3.998316764831543,-3.5625722408294678,6.648698329925537
1766402571710715000,12.62871484375,4.094084739685059,-3.4141316413879395,6.890512466430664
1766402571720724700,12.638724853515624,4.158728122711182,-3.670311212539673,7.223306655883789
1766402571730734600,12.648734619140624,3.821146011352539,-4.01268196105957,7.486668586730957
1766402571740775000,12.65877490234375,3.5051112174987793,-4.256890773773193,7.680599212646484
1766402571750784500,12.668784423828125,2.9951462745666504,-4.072536945343018,7.95832633972168
1766402571760764000,12.678763916015624,2.319981336593628,-4.876988887786865,8.039729118347168
1766402571790793200,12.708793212890624,2.8395233154296875,-4.546588897705078,8.130708694458008
1766402571800802800,12.718802734375,3.2178070545196533,-4.580107688903809,8.195352554321289
1766402571810812700,12.728812744140624,3.5410242080688477,-4.93923807144165,8.094796180725098
1766402571820822500,12.738822509765624,3.957615375518799,-4.896142482757568,7.750030994415283
1766402571830862600,12.748862548828125,4.345476150512695,-4.5609540939331055,7.893682956695557
1766402571840872400,12.75887255859375,3.9169139862060547,-4.699818134307861,8.037335395812988
1766402571850882300,12.76888232421875,3.536235809326172,-4.3191399574279785,7.927201747894287
1766402571860892000,12.778891845703125,3.4596214294433594,-4.484339714050293,7.73087739944458
1766402571890921200,12.808921142578125,4.2975921630859375,-5.058948040008545,7.42681360244751
1766402571900931000,12.81893115234375,4.675876140594482,-5.099649429321289,7.0317702293396
1766402571910941000,12.82894091796875,4.946420669555664,-5.085284233093262,6.555324077606201
1766402571920981000,12.83898095703125,4.721365928649902,-4.819528102874756,6.478709697723389
1766402571930990800,12.848990966796874,3.7828385829925537,-4.378994941711426,6.7061591148376465
1766402571941000700,12.859000732421874,3.134010076522827,-4.55616569519043,7.060500621795654
1766402571951010300,12.86901025390625,3.2130186557769775,-4.256890773773193,7.084442615509033
1766402571961020200,12.879020263671874,3.7014358043670654,-3.4596214294433594,7.082048416137695
1766402571981039600,12.89903955078125,3.646369218826294,-3.706224203109741,7.1706342697143555
1766402572031119000,12.949119140625,3.9647979736328125,-3.6535518169403076,5.813121795654297
1766402572041128700,12.959128662109375,3.758896589279175,-3.9240965843200684,5.0685248374938965
1766402572051169000,12.9691689453125,3.778050184249878,-3.8091750144958496,4.285621166229248
1766402572061179000,12.979178955078124,4.084507942199707,-3.533841609954834,3.6367924213409424
1766402572071188700,12.989188720703124,4.256890773773193,-3.4117374420166016,2.80361008644104
1766402572091208200,13.009208251953124,4.458003520965576,-2.786850690841675,1.8818424940109253
1766402572101217800,13.0192177734375,4.278438568115234,-2.540247917175293,1.357512354850769
1766402572111227600,13.0292275390625,4.151545524597168,-2.2864625453948975,1.0462661981582642
1766402572121207000,13.03920703125,3.9025487899780273,-2.6575639247894287,0.7852981686592102
1766402572131247000,13.0492470703125,2.5115175247192383,-4.19224739074707,0.2513911724090576
1766402572141257000,13.059257080078124,1.8483237028121948,-4.639962673187256,-0.090979665517807
1766402572151266800,13.069266845703124,1.5610195398330688,-4.797980308532715,0.1149216815829277
1766402572161276400,13.0792763671875,1.8124107122421265,-5.252878665924072,0.37828385829925537
1766402572171286300,13.089286376953124,2.319981336593628,-5.6191911697387695,0.27054479718208313
1766402572181296000,13.099296142578124,3.2393548488616943,-4.51067590713501,0.1604115068912506
1766402572201315600,13.119315673828124,2.9903578758239746,-4.266467571258545,0.5602431893348694
1766402572211325400,13.129325439453124,2.3032219409942627,-5.406107425689697,1.0821791887283325
1766402572221335000,13.1393349609375,1.867477297782898,-6.756437301635742,1.5658079385757446
1766402572231345000,13.149344970703124,1.3742717504501343,-7.654263019561768,1.9081788063049316
1766402572241354800,13.159354736328124,0.6607996821403503,-8.844181060791016,1.8698714971542358
1766402572251394800,13.169394775390625,0.28969839215278625,-10.259154319763184,1.9081788063049316
1766402572261404700,13.17940478515625,0.8690952062606812,-11.137825965881348,2.3726539611816406
1766402572271445000,13.189445068359374,1.5610195398330688,-10.017339706420898,3.155557870864868
1766402572281454800,13.199454833984374,2.070984363555908,-8.508993148803711,4.548983097076416
1766402572291464400,13.20946435546875,2.4660277366638184,-7.407660007476807,6.200982570648193
1766402572301474300,13.219474365234374,2.2242133617401123,-7.524975776672363,7.539340972900391
1766402572311484200,13.229484130859374,1.359906554222107,-9.370905876159668,7.965508937835693
1766402572321493800,13.23949365234375,0.21547815203666687,-12.382811546325684,6.751648902893066
1766402572331503600,13.249503662109374,-0.35913026332855225,-15.638925552368164,4.764461517333984
1766402572341513200,13.25951318359375,-0.2561795711517334,-16.790536880493164,3.3901896476745605
1766402572351523000,13.269523193359374,0.10534487664699554,-15.670049667358398,3.35667085647583
1766402572361533000,13.279532958984374,1.161187767982483,-13.565546989440918,4.477157115936279
1766402572371573200,13.2895732421875,2.3798365592956543,-11.058817863464355,6.406883716583252
1766402572381552400,13.299552490234374,3.466804027557373,-8.374917984008789,7.642292022705078
1766402572391562200,13.309562255859374,4.244919776916504,-8.030152320861816,7.271190643310547
1766402572411642600,13.329642578125,4.759673118591309,-9.825803756713867,2.9927520751953125
1766402572421652500,13.339652587890624,4.745307922363281,-11.927912712097168,1.5083470344543457
1766402572431692800,13.34969287109375,4.438849925994873,-12.856863021850586,0.9289502501487732
1766402572441702700,13.35970263671875,4.1395745277404785,-12.646173477172852,0.9002198576927185
1766402572451712300,13.369712158203125,3.823540210723877,-12.586318016052246,1.0223240852355957
1766402572461722000,13.37972216796875,3.4979286193847656,-12.265495300292969,1.1851298809051514
1766402572471731700,13.389731689453125,3.1028854846954346,-11.894393920898438,1.2713210582733154
1766402572481741600,13.399741455078125,2.738966703414917,-11.6430025100708,1.3455413579940796
1766402572491751400,13.40975146484375,2.5546131134033203,-11.882423400878906,1.3503297567367554
1766402572501730600,13.41973046875,2.5067291259765625,-13.0914945602417,1.3479355573654175
1766402572531821000,13.449821044921874,3.0789434909820557,-15.437812805175781,-0.3734954595565796
1766402572541830700,13.45983056640625,3.509899616241455,-14.54716968536377,-0.9911994934082031
1766402572551871000,13.46987109375,4.000710964202881,-13.103466033935547,-1.2258312702178955
1766402572561850400,13.479850341796874,4.371812343597412,-12.042834281921387,-1.400607943534851
1766402572571890400,13.489890380859375,5.020640850067139,-11.465831756591797,-1.8531121015548706
1766402572581930800,13.4999306640625,5.118803024291992,-11.008539199829102,-2.121262788772583
1766402572591940600,13.509940673828124,5.568912982940674,-11.159374237060547,-2.5450363159179688
1766402572601950500,13.519950439453124,5.57370138168335,-11.60708999633789,-2.695871114730835
1766402572611960000,13.5299599609375,5.4252610206604,-11.240777015686035,-3.002328872680664
1766402572631979500,13.5499794921875,5.243301868438721,-9.394847869873047,-3.44765043258667
1766402572642019800,13.560019775390625,5.073313236236572,-8.937555313110352,-3.4189200401306152
1766402572652060200,13.57006005859375,4.8267107009887695,-8.901641845703125,-3.2968156337738037
1766402572662039600,13.58003955078125,4.551377296447754,-9.078812599182129,-3.0573954582214355
1766402572672079600,13.59007958984375,4.235342979431152,-9.045293807983398,-2.920926094055176
1766402572682089500,13.60008935546875,4.0964789390563965,-8.892065048217773,-2.8179752826690674
1766402572692129800,13.6101298828125,3.9240965843200684,-8.667010307312012,-2.6024973392486572
1766402572702170000,13.620170166015624,3.866635799407959,-8.540117263793945,-2.4660277366638184
1766402572712179700,13.6301796875,3.706224203109741,-8.762778282165527,-2.1978771686553955
1766402572722189600,13.640189453125,3.706224203109741,-8.762778282165527,-2.1978771686553955
1766402572732199400,13.650199462890624,3.6367924213409424,-8.96149730682373,-2.231395959854126
1766402572742209000,13.660208984375,3.643975019454956,-9.35654067993164,-2.166752576828003
1766402572752219000,13.670218994140624,3.5649664402008057,-9.713275909423828,-2.070984363555908
1766402572762228700,13.680228759765624,3.584120035171509,-10.153809547424316,-1.8962076902389526
1766402572772238300,13.69023828125,3.5266590118408203,-10.369287490844727,-1.8195933103561401
1766402572782248200,13.700248291015624,3.512293815612793,-10.357316970825195,-1.900996208190918
1766402572792288500,13.71028857421875,3.536235809326172,-10.398017883300781,-2.0614075660705566
1766402572802298400,13.72029833984375,3.4165258407592773,-10.436325073242188,-2.343923568725586
1766402572812308000,13.730307861328125,3.292027235031128,-10.347740173339844,-2.542642116546631
1766402572822317800,13.74031787109375,3.1723172664642334,-10.053253173828125,-2.5977089405059814
1766402572852347100,13.77034716796875,3.114856481552124,-9.959878921508789,-2.6408045291900635
1766402572862387500,13.780387451171874,2.956839084625244,-10.153809547424316,-2.585737943649292
1766402572872397000,13.79039697265625,2.849100112915039,-10.225635528564453,-2.449268341064453
1766402572882437400,13.800437255859375,2.6216509342193604,-10.232817649841309,-2.408566951751709
1766402572892477700,13.810477783203124,2.3056161403656006,-9.93593692779541,-2.2673089504241943
1766402572902487600,13.820487548828124,2.248155355453491,-9.615114212036133,-2.0901381969451904
1766402572912527600,13.830527587890625,2.123656988143921,-9.713275909423828,-1.9919757843017578
1766402572922537500,13.840537353515625,2.118868589401245,-9.62947940826416,-2.006340980529785
1766402572942618000,13.8606181640625,1.9536685943603516,-8.927978515625,-1.9057846069335938
1766402572952627700,13.870627685546875,1.9752163887023926,-8.844181060791016,-1.7693150043487549
1766402572962637600,13.880637451171875,1.9153614044189453,-8.913613319396973,-1.6687586307525635
1766402572972647400,13.8906474609375,1.8770540952682495,-9.121908187866211,-1.5131354331970215
1766402572982657000,13.900656982421875,2.0254945755004883,-9.66299819946289,-1.479616641998291
1766402572992667000,13.9106669921875,2.078166961669922,-9.995792388916016,-1.558625340461731
1766402573002707200,13.920707275390624,2.2361843585968018,-10.04846477508545,-1.7932571172714233
1766402573012717000,13.930717041015624,2.343923568725586,-10.304644584655762,-2.183511972427368
1766402573022726700,13.9407265625,2.3319525718688965,-10.050858497619629,-2.5306711196899414
1766402573032736500,13.950736572265624,2.22660756111145,-9.516951560974121,-2.6862943172454834
1766402573042746400,13.960746337890624,2.145204782485962,-9.124302864074707,-2.63362193107605
1766402573052786400,13.970786376953125,2.049436569213867,-8.868123054504395,-2.4875755310058594
1766402573062796300,13.98079638671875,1.9608511924743652,-8.638279914855957,-2.322375535964966
1766402573072806100,13.99080615234375,2.0039467811584473,-8.506598472595215,-2.0853497982025146
1766402573082815700,14.000815673828125,2.0805611610412598,-8.89685344696045,-2.030282974243164
1766402573092825600,14.01082568359375,2.0015525817871094,-9.050082206726074,-1.8411411046981812
1766402573102835500,14.02083544921875,2.1356279850006104,-9.083600997924805,-1.7717092037200928
1766402573112845000,14.030844970703125,2.2649147510528564,-9.148244857788086,-1.8195933103561401
1766402573122885400,14.040885498046874,2.4205379486083984,-9.093177795410156,-1.8555063009262085
1766402573132925700,14.05092578125,2.5665841102600098,-9.050082206726074,-1.8698714971542358
1766402573152945200,14.070945068359375,2.875436305999756,-9.739612579345703,-2.0254945755004883
1766402573163016000,14.081015869140625,3.023876667022705,-9.706093788146973,-2.1739351749420166
1766402573172964900,14.09096484375,3.1004912853240967,-9.428366661071777,-2.0853497982025146
1766402573182974500,14.100974365234375,3.136404275894165,-9.258378028869629,-2.054224967956543
1766402573192984300,14.110984375,3.1028854846954346,-9.205705642700195,-1.920149803161621
1766402573202994000,14.120993896484375,3.043030261993408,-9.205705642700195,-1.7477672100067139
1766402573213034200,14.1310341796875,3.1268274784088135,-9.251194953918457,-1.6543933153152466
1766402573223044000,14.141044189453124,3.1507694721221924,-9.205705642700195,-1.577778935432434
1766402573233084400,14.15108447265625,3.337517261505127,-9.430760383605957,-1.8195933103561401
1766402573243094000,14.161093994140625,3.5027170181274414,-9.375694274902344,-1.8339585065841675
1766402573273184500,14.1911845703125,3.7900211811065674,-8.774748802185059,-1.8579005002975464
1766402573283163600,14.20116357421875,3.797203779220581,-8.559270858764648,-1.6543933153152466
1766402573293234400,14.211234375,3.734954595565796,-8.504204750061035,-1.4484920501708984
1766402573303305200,14.22130517578125,3.758896589279175,-8.62630844116211,-1.2952631711959839
1766402573313345500,14.231345458984375,3.8115692138671875,-8.829815864562988,-1.2856862545013428
1766402573323325000,14.241324951171874,3.780444383621216,-9.042900085449219,-1.4963760375976562
1766402573333334500,14.25133447265625,3.88818359375,-9.042900085449219,-1.3527239561080933
1766402573343344400,14.261344482421874,3.9480385780334473,-9.100360870361328,-1.3479355573654175
1766402573363363800,14.28136376953125,3.9193081855773926,-9.26795482635498,-1.091755986213684
1766402573373373700,14.291373779296874,3.890577793121338,-9.59596061706543,-1.039083480834961
1766402573393362700,14.31136279296875,3.9863457679748535,-10.163386344909668,-1.4724340438842773
1766402573423422500,14.34142236328125,3.928884983062744,-9.385271072387695,-1.8818424940109253
1766402573433493200,14.3514931640625,3.9217023849487305,-8.911218643188477,-1.8531121015548706
1766402573443442000,14.36144189453125,3.9217023849487305,-8.911218643188477,-1.8531121015548706
1766402573453482200,14.371482177734375,4.022258758544922,-8.56645393371582,-1.742978811264038
1766402573473502000,14.391501953125,3.971980571746826,-8.255207061767578,-1.6950948238372803
1766402573483481000,14.401481201171874,3.8379054069519043,-8.456320762634277,-1.644816517829895
1766402573493521400,14.411521484375,3.7158010005950928,-8.832210540771484,-1.6280571222305298
1766402573503561700,14.421561767578124,3.670311212539673,-9.114726066589355,-1.6974890232086182
1766402573513571300,14.4315712890625,3.6846764087677,-9.346963882446289,-1.886630892753601
1766402573523550700,14.44155078125,3.7469255924224854,-9.564835548400879,-2.1356279850006104
1766402573533591000,14.451591064453124,3.665522813796997,-9.612719535827637,-2.322375535964966
1766402573543661800,14.461661865234374,3.6320040225982666,-9.581595420837402,-2.499546527862549
1766402573573752000,14.491751953125,3.9815573692321777,-9.588777542114258,-3.0095114707946777
1766402573583762000,14.501761962890624,4.24970817565918,-9.557653427124023,-3.205836057662964
1766402573593802200,14.51180224609375,4.367023944854736,-9.569623947143555,-3.397372245788574
1766402573603811800,14.521811767578125,4.3191399574279785,-9.655815124511719,-3.4380736351013184
1766402573613821700,14.53182177734375,4.20421838760376,-9.627084732055664,-3.5913026332855225
1766402573623831600,14.54183154296875,3.9671921730041504,-9.550470352172852,-3.598485231399536
1766402573633871600,14.55187158203125,3.7900211811065674,-9.224859237670898,-3.49314022064209
1766402573643881500,14.561881591796874,3.7900211811065674,-8.995016098022461,-3.3949780464172363
1766402573653921800,14.571921875,3.7684733867645264,-8.911218643188477,-3.3255462646484375
1766402573693991400,14.611991455078124,3.706224203109741,-8.178592681884766,-3.308786630630493
1766402573704001000,14.6220009765625,3.536235809326172,-7.994239330291748,-3.2537200450897217
1766402573714011000,14.632010986328124,3.6535518169403076,-8.04930591583252,-3.066972494125366
1766402573723990000,14.641989990234375,3.6942532062530518,-8.243236541748047,-3.0621838569641113
1766402573734030300,14.6520302734375,3.687070608139038,-8.56884765625,-3.0382418632507324
1766402573744040200,14.662040283203124,3.7038300037384033,-8.65982723236084,-2.889801502227783
1766402573754050000,14.672050048828124,3.928884983062744,-8.743624687194824,-2.806004285812378
1766402573784140300,14.702140380859374,4.144362926483154,-8.757989883422852,-2.5953147411346436
1766402573794150100,14.712150146484374,4.388571739196777,-8.688557624816895,-2.406172752380371
1766402573804129300,14.72212939453125,4.7189717292785645,-8.65743350982666,-2.0877439975738525
1766402573814169600,14.732169677734374,5.082890033721924,-9.17697525024414,-1.7262194156646729
