time,seconds_elapsed,z,y,x
1766402558165701600,-0.91629833984375,0.2082955539226532,-0.2585737705230713,-0.15322890877723694
1766402558195731000,-0.88626904296875,0.19632454216480255,0.23702596127986908,0.05506663769483566
1766402558205771300,-0.876228759765625,0.12449848651885986,0.19632454216480255,-0.043095629662275314
1766402558215780900,-0.86621923828125,0.038307227194309235,-0.1412578970193863,-0.3519476354122162
1766402558225821200,-0.8561787109375,0.2825157940387726,-1.6208745241165161,-2.5689783096313477
1766402558235800300,-0.84619970703125,0.23702596127986908,0.3998316824436188,0.6607996821403503
1766402558245840600,-0.836159423828125,0.4836287498474121,0.33758243918418884,0.5219359993934631
1766402558265860400,-0.8161396484375,0.4165911078453064,-0.2059013396501541,0.016759412363171577
1766402558275870000,-0.806130126953125,0.3280056416988373,-0.37828385829925537,0.23942017555236816
1766402558285879800,-0.7961201171875,0.28730419278144836,-0.15801730751991272,0.0454898327589035
1766402558335959000,-0.746041015625,0.23702596127986908,-0.20350714027881622,-0.10055647045373917
1766402558345969000,-0.736031005859375,0.33518823981285095,0.023942016065120697,0.028730420395731926
1766402558355978800,-0.726021240234375,0.4213795065879822,0.035913024097681046,0.22266076505184174
1766402558375998200,-0.706001708984375,0.15322890877723694,-0.19153612852096558,-0.10055647045373917
1766402558386069000,-0.695930908203125,0.10295066982507706,-0.14365209639072418,0.043095629662275314
1766402558396139800,-0.685860107421875,0.17717093229293823,0.1149216815829277,0.11013327538967133
1766402558406180000,-0.67581982421875,0.13168109953403473,0.17477671802043915,0.002394201699644327
1766402558426199600,-0.655800537109375,0.12928688526153564,0.1843535304069519,0.19153612852096558
1766402558436240000,-0.645760009765625,0.12689268589019775,0.10295066982507706,0.08619125932455063
1766402558456228900,-0.625771240234375,0.16759411990642548,-0.09816227108240128,0.06703764945268631
1766402558476279000,-0.605720947265625,0.0933738648891449,-0.0071826050989329815,-0.0071826050989329815
1766402558486288600,-0.59571142578125,0.09576806426048279,0.12689268589019775,0.07182604819536209
1766402558496298500,-0.585701416015625,0.17956513166427612,0.040701430290937424,0.13407529890537262
1766402558526358300,-0.555641845703125,0.26096799969673157,0.26096799969673157,0.09576806426048279
1766402558536337700,-0.545662353515625,0.14365209639072418,0.14844051003456116,-0.004788403399288654
1766402558546347300,-0.53565283203125,0.20111294090747833,-0.021547814831137657,-0.1173158809542656
1766402558556357000,-0.525642822265625,0.19393034279346466,-0.2298433631658554,-0.05746084079146385
1766402558576407000,-0.505593017578125,0.090979665517807,-0.08858546614646912,-0.1604115068912506
1766402558586417000,-0.4955830078125,0.014365210197865963,0.033518824726343155,-0.033518824726343155
1766402558596426800,-0.4855732421875,0.023942016065120697,-0.016759412363171577,0.002394201699644327
1766402558606436400,-0.475563720703125,0.13168109953403473,0.07661445438861847,0.10295066982507706
1766402558616446200,-0.4655537109375,0.22505496442317963,0.031124621629714966,0.09816227108240128
1766402558626456000,-0.4555439453125,0.19632454216480255,-0.1173158809542656,0.016759412363171577
1766402558636496100,-0.44550390625,0.2082955539226532,-0.035913024097681046,0.002394201699644327
1766402558646506000,-0.435493896484375,0.12689268589019775,0.0933738648891449,0.047884032130241394
1766402558656515800,-0.425484130859375,0.07422025501728058,0.10295066982507706,0.07900865375995636
1766402558666525400,-0.415474609375,0.07900865375995636,0.07900865375995636,0.014365210197865963
1766402558676535300,-0.405464599609375,0.12210428714752197,0.019153613597154617,-0.009576806798577309
1766402558686575600,-0.39542431640625,0.26575639843940735,-0.15083470940589905,-0.10773907601833344
1766402558696585500,-0.38541455078125,0.2777273952960968,0.035913024097681046,0.031124621629714966
1766402558726614500,-0.355385498046875,0.17717093229293823,0.11013327538967133,0.033518824726343155
1766402558736624400,-0.345375732421875,0.24899697303771973,0.023942016065120697,0.035913024097681046
1766402558746664700,-0.335335205078125,0.363918662071228,-0.016759412363171577,-0.07661445438861847
1766402558756705000,-0.325294921875,0.3471592366695404,0.0694318488240242,0.031124621629714966
1766402558766714600,-0.315285400390625,0.3423708379268646,0.0071826050989329815,0.004788403399288654
1766402558776724500,-0.305275634765625,0.21308395266532898,0.05267243832349777,0.05506663769483566
1766402558896902700,-0.185097412109375,0.05746084079146385,-0.047884032130241394,-0.040701430290937424
1766402558906943000,-0.17505712890625,0.026336219161748886,0.031124621629714966,-0.05985504388809204
1766402558916952800,-0.165047119140625,-0.07661445438861847,0.05746084079146385,-0.06224924325942993
1766402558926962400,-0.15503759765625,0.004788403399288654,-0.090979665517807,-0.10534487664699554
1766402558936941800,-0.14505810546875,0.10295066982507706,-0.07661445438861847,-0.1173158809542656
1766402558947012600,-0.1349873046875,0.17956513166427612,-0.14365209639072418,0.031124621629714966
1766402558987082200,-0.094917724609375,0.10295066982507706,0.07661445438861847,0.05267243832349777
1766402559027152000,-0.05484814453125,0.11971008777618408,-0.07661445438861847,-0.043095629662275314
1766402559037161500,-0.044838623046875,0.24899697303771973,-0.08140286058187485,-0.09816227108240128
1766402559047171300,-0.03482861328125,0.22026655077934265,0.05985504388809204,-0.004788403399288654
1766402559057150500,-0.024849609375,0.14365209639072418,0.11013327538967133,0.043095629662275314
1766402559067190800,-0.014809326171875,0.15801730751991272,0.09576806426048279,-0.031124621629714966
1766402559077200600,-0.00479931640625,0.1388636976480484,-0.11013327538967133,0.0454898327589035
1766402559087210200,0.005210205078125,0.17717093229293823,-0.06464344263076782,-0.026336219161748886
1766402559097189600,0.015189697265625,0.31124621629714966,-0.22744916379451752,0.05746084079146385
1766402559107260400,0.025260498046875,0.23702596127986908,-0.21308395266532898,-0.023942016065120697
1766402559117270300,0.035270263671875,0.28730419278144836,-0.2322375625371933,-0.06224924325942993
1766402559127279900,0.04527978515625,0.31842881441116333,-0.06703764945268631,0.021547814831137657
1766402559167319000,0.085319091796875,0.11971008777618408,-0.05027823522686958,-0.5674257874488831
1766402559177328600,0.09532861328125,0.090979665517807,0.47405192255973816,-0.36152446269989014
1766402559187369000,0.105368896484375,0.05267243832349777,0.12449848651885986,-1.2114660739898682
1766402559197378800,0.11537890625,0.002394201699644327,0.5578489899635315,-0.8834604024887085
1766402559207388700,0.125388671875,-0.29209262132644653,0.28730419278144836,0.009576806798577309
1766402559217367800,0.135367919921875,-0.22026655077934265,0.6799532771110535,-0.5363011956214905
1766402559227408100,0.145408203125,0.023942016065120697,0.811634361743927,-1.2737152576446533
1766402559237418000,0.15541796875,0.06703764945268631,0.38546648621559143,-0.9911994934082031
1766402559267477800,0.185477783203125,-0.19632454216480255,-0.31364041566848755,-0.5003881454467773
1766402559277487400,0.1954873046875,-0.14365209639072418,0.002394201699644327,-0.05985504388809204
1766402559287497200,0.205497314453125,-0.12210428714752197,-0.26575639843940735,0.2346317619085312
1766402559307516700,0.2255166015625,-0.1173158809542656,-0.5363011956214905,0.3663128614425659
1766402559317526500,0.235526611328125,0.12210428714752197,-0.7805097699165344,0.3447650372982025
1766402559327536400,0.245536376953125,0.31124621629714966,-0.9050082564353943,0.28969839215278625
1766402559337546000,0.2555458984375,0.3447650372982025,-0.5219359993934631,0.24181437492370605
1766402559357565700,0.275565673828125,0.07661445438861847,0.5195417404174805,0.26336219906806946
1766402559367605800,0.285605712890625,-0.1412578970193863,0.19632454216480255,0.5482721924781799
1766402559377615600,0.29561572265625,-0.4644751250743866,-0.8068459630012512,0.8643068075180054
1766402559387686400,0.305686279296875,-0.5123591423034668,-1.338358759880066,1.1204863786697388
1766402559397696300,0.3156962890625,-0.24660277366638184,-1.158793568611145,1.2282254695892334
1766402559407705900,0.325705810546875,0.1604115068912506,-0.9385270476341248,1.0630255937576294
1766402559417685200,0.335685302734375,0.6416460275650024,-0.6320692300796509,0.811634361743927
1766402559427725600,0.3457255859375,0.7422025203704834,-0.7230489253997803,0.6200982332229614
1766402559437735200,0.355735107421875,0.8571242094039917,-0.47165772318840027,0.43335050344467163
1766402559447745000,0.3657451171875,0.7829039692878723,-0.07900865375995636,0.5722141861915588
1766402559487845000,0.40584521484375,0.6967126727104187,-0.524330198764801,0.5410895943641663
1766402559497855000,0.41585498046875,0.7158663272857666,-0.2777273952960968,0.586579442024231
1766402559507834000,0.425834228515625,0.7230489253997803,-0.13407529890537262,0.6631938815116882
1766402559517844000,0.435843994140625,0.6536170840263367,-0.35913026332855225,0.4596867263317108
1766402559527853600,0.445853515625,0.33758243918418884,-0.6009446382522583,0.49320554733276367
1766402559537863400,0.455863525390625,0.090979665517807,-0.8092401623725891,0.6943184733390808
1766402559547903700,0.46590380859375,0.009576806798577309,-0.6607996821403503,0.5027823448181152
1766402559577933000,0.49593310546875,0.13407529890537262,-0.4213795065879822,0.15322890877723694
1766402559587973400,0.505973388671875,0.15562310814857483,-0.2322375625371933,-0.016759412363171577
1766402559598013700,0.516013671875,0.043095629662275314,0.19153612852096558,-0.16519992053508759
1766402559608023300,0.526023193359375,-0.13407529890537262,0.6991068720817566,-0.16519992053508759
1766402559618002700,0.536002685546875,-0.35913026332855225,0.8547300100326538,-0.26096799969673157
1766402559628042800,0.546042724609375,-0.646434485912323,0.6320692300796509,-0.3974374830722809
1766402559638052600,0.556052490234375,-0.9169792532920837,0.3232172429561615,-0.22505496442317963
1766402559648062500,0.5660625,-0.9840168952941895,-0.1412578970193863,-0.2968810200691223
1766402559658041600,0.57604150390625,-0.9576807022094727,-0.5913678407669067,-0.28730419278144836
1766402559678091800,0.596091796875,-0.6320692300796509,-0.3280056416988373,-0.26096799969673157
1766402559688101400,0.606101318359375,-0.45010992884635925,-0.44532153010368347,-0.28969839215278625
1766402559698111200,0.616111328125,-0.21787235140800476,-0.6655880808830261,-0.3519476354122162
1766402559708151600,0.626151611328125,-0.004788403399288654,-0.8762778043746948,-0.5434837937355042
1766402559718191900,0.63619189453125,-0.06224924325942993,-0.7326257228851318,-0.5267243981361389
1766402559728201500,0.646201416015625,-0.05985504388809204,-0.44771572947502136,-0.26575639843940735
1766402559738211300,0.65621142578125,-0.040701430290937424,-0.4141969084739685,-0.06224924325942993
1766402559748221200,0.66622119140625,-0.12210428714752197,-0.20111294090747833,0.07182604819536209
1766402559758230800,0.676230712890625,-0.14365209639072418,-0.12449848651885986,0.22026655077934265
1766402559768271000,0.68627099609375,-0.019153613597154617,-0.15083470940589905,0.22266076505184174
1766402559788382200,0.70638232421875,0.2849099934101105,-0.3663128614425659,0.19871874153614044
1766402559798392000,0.71639208984375,0.49799394607543945,-0.5363011956214905,0.2322375625371933
1766402559808401700,0.726401611328125,0.47165772318840027,-0.47405192255973816,0.3208230137825012
1766402559818350600,0.7363505859375,0.3423708379268646,-0.26575639843940735,0.38067805767059326
1766402559828390700,0.746390625,0.31364041566848755,-0.4620809257030487,0.2825157940387726
1766402559838431000,0.756430908203125,0.016759412363171577,-0.6153098344802856,0.10773907601833344
1766402559848440800,0.76644091796875,-0.20350714027881622,-0.6943184733390808,0.17477671802043915
1766402559858450700,0.77645068359375,-0.33758243918418884,-0.47884035110473633,0.24899697303771973
1766402559888541000,0.806541015625,-0.08379705995321274,-0.2513911724090576,-0.1412578970193863
1766402559898581200,0.816581298828125,0.016759412363171577,0.2537853717803955,-0.15801730751991272
1766402559908590800,0.8265908203125,0.12689268589019775,0.5578489899635315,-0.1149216815829277
1766402559918600700,0.8366005859375,0.05985504388809204,0.9097966551780701,-0.09816227108240128
1766402559928610600,0.846610595703125,0.021547814831137657,0.9481038451194763,-0.26575639843940735
1766402559938620200,0.8566201171875,-0.07422025501728058,0.8475474119186401,-0.4836287498474121
1766402559948630000,0.866630126953125,-0.17717093229293823,0.3926490843296051,-0.7637503147125244
1766402559958639900,0.876639892578125,-0.31124621629714966,-0.031124621629714966,-0.9600749015808105
1766402559998709200,0.916709228515625,-0.12210428714752197,-1.460463047027588,-1.3048399686813354
1766402560018820400,0.9368203125,-0.3734954595565796,-0.8523358106613159,-0.9457096457481384
1766402560028830200,0.946830322265625,-0.7422025203704834,-0.26575639843940735,-0.7972691655158997
1766402560038840000,0.956840087890625,-1.070208191871643,0.08858546614646912,-0.5530605912208557
1766402560048880400,0.96688037109375,-1.3934253454208374,0.38546648621559143,-0.3016694188117981
1766402560058890000,0.976889892578125,-1.6974890232086182,0.6129156351089478,-0.20111294090747833
1766402560068899800,0.98689990234375,-1.7956513166427612,0.5363011956214905,-0.21308395266532898
1766402560088949800,1.00694970703125,-2.363077163696289,0.2777273952960968,-0.3495534360408783
1766402560098959600,1.016959716796875,-2.6168625354766846,0.014365210197865963,-0.22266076505184174
1766402560108969500,1.026969482421875,-3.00711727142334,-0.2585737705230713,-0.22505496442317963
1766402560118979000,1.03697900390625,-3.2321722507476807,-0.3519476354122162,-0.21308395266532898
1766402560129019400,1.047019287109375,-3.3854012489318848,-0.45489832758903503,-0.21787235140800476
1766402560139059700,1.057059814453125,-3.5386300086975098,-0.5602431893348694,-0.3687070608139038
1766402560149069600,1.067069580078125,-3.754108190536499,-0.4596867263317108,-0.363918662071228
1766402560159079200,1.0770791015625,-4.022258758544922,-0.18914192914962769,-0.2777273952960968
1766402560169119500,1.087119384765625,-4.388571739196777,0.16998831927776337,-0.0454898327589035
1766402560199179300,1.11717919921875,-6.191405773162842,1.5490485429763794,1.158793568611145
1766402560209219600,1.127219482421875,-6.315904140472412,2.0638017654418945,1.6974890232086182
1766402560219229400,1.1372294921875,-6.452373504638672,2.0661959648132324,2.0470423698425293
1766402560229269800,1.147269775390625,-6.256049156188965,2.2146365642547607,1.9632453918457031
1766402560239279400,1.157279296875,-5.600037574768066,2.0638017654418945,1.8267759084701538
1766402560249319700,1.167319580078125,-5.394136428833008,1.3766659498214722,1.4508862495422363
1766402560259390500,1.177390380859375,-4.869806289672852,0.45489832758903503,1.0749965906143188
1766402560269400300,1.187400390625,-4.69024133682251,0.26336219906806946,0.9409212470054626
1766402560309439200,1.227439208984375,-5.506663799285889,-0.6799532771110535,1.2641384601593018
1766402560319449000,1.237448974609375,-4.8602294921875,-2.0398597717285156,0.8164227604866028
1766402560329459000,1.247458984375,-3.778050184249878,-2.8778305053710938,-0.08379705995321274
1766402560339468500,1.257468505859375,-2.229001760482788,-2.4396915435791016,-0.9241618514060974
1766402560349478400,1.267478515625,-0.12928688526153564,-2.5689783096313477,-1.7597382068634033
1766402560359488300,1.27748828125,1.2258312702178955,-1.9728221893310547,-2.782062292098999
1766402560369528600,1.287528564453125,-3.514688014984131,-1.6663644313812256,-2.829946517944336
1766402560379568600,1.297568603515625,-2.9281086921691895,8.032546997070312,-2.274491548538208
1766402560429678600,1.3476787109375,18.028339385986328,-11.386823654174805,-3.136404275894165
1766402560459799600,1.377799560546875,8.62630844116211,-5.834669589996338,1.558625340461731
1766402560519858200,1.437858154296875,-3.4787750244140625,-0.48602294921875,3.0310592651367188
1766402560559988700,1.47798876953125,-1.173158884048462,0.5434837937355042,0.871489405632019
1766402560580038700,1.49803857421875,-1.1204863786697388,1.1276689767837524,-0.21547815203666687
1766402560590048500,1.508048583984375,-0.33997663855552673,1.0558429956436157,-0.7038952708244324
1766402560600058400,1.518058349609375,0.5841852426528931,0.16998831927776337,-1.4532804489135742
1766402560620138800,1.538138671875,1.9345149993896484,-0.1364694982767105,-1.9967641830444336
1766402560670218200,1.58821826171875,-0.751779317855835,-0.9026140570640564,-0.35434186458587646
1766402560690268200,1.60826806640625,-1.7094600200653076,-1.2545616626739502,-0.12928688526153564
1766402560700278000,1.618278076171875,-1.6160861253738403,-0.7254431247711182,0.05027823522686958
1766402560710288000,1.628287841796875,-1.436521053314209,-0.2992752194404602,0.035913024097681046
1766402560720297500,1.63829736328125,-1.2018892765045166,-0.12689268589019775,-0.11971008777618408
1766402560730307300,1.648307373046875,-0.9864110946655273,0.031124621629714966,-0.2082955539226532
1766402560740317000,1.65831689453125,-0.7398083209991455,0.30885201692581177,-0.23942017555236816
1766402560750326800,1.668326904296875,-0.6536170840263367,0.38307225704193115,-0.33518823981285095
1766402560760336600,1.678336669921875,-0.7398083209991455,-0.20111294090747833,-0.33758243918418884
1766402560770377000,1.688376953125,-0.6799532771110535,-0.7182605266571045,-0.5315127968788147
1766402560780386600,1.698386474609375,-0.4405331015586853,-0.7637503147125244,-0.6775590777397156
1766402560800406300,1.71840625,0.0454898327589035,-0.15322890877723694,-0.5315127968788147
1766402560810446300,1.7284462890625,0.1149216815829277,0.028730420395731926,-0.5051765441894531
1766402560850516000,1.768515869140625,0.2753331959247589,0.5051765441894531,-0.3064578175544739
1766402560860556300,1.778556396484375,0.3064578175544739,0.090979665517807,-0.24660277366638184
1766402560870596600,1.7885966796875,0.3519476354122162,-0.24660277366638184,-0.23942017555236816
1766402560880637000,1.798636962890625,0.3758896589279175,-0.37828385829925537,-0.1867477297782898
1766402560890677200,1.80867724609375,0.3711012601852417,-0.36152446269989014,-0.05027823522686958
1766402560900656400,1.818656494140625,0.3256114423274994,-0.3758896589279175,0.090979665517807
1766402560910696700,1.82869677734375,0.23942017555236816,-0.3758896589279175,0.08858546614646912
1766402560920767500,1.838767578125,0.21308395266532898,-0.5578489899635315,0.24420857429504395
1766402560950857700,1.868857666015625,0.2298433631658554,-0.871489405632019,0.2968810200691223
1766402560960867600,1.87886767578125,0.35434186458587646,-0.5578489899635315,0.3208230137825012
1766402560970877400,1.88887744140625,0.4405331015586853,-0.24899697303771973,0.4429273009300232
1766402560980917500,1.89891748046875,0.44532153010368347,-0.16519992053508759,0.4596867263317108
1766402560990957800,1.908957763671875,0.4668693244457245,-0.11971008777618408,0.3926490843296051
1766402561000967700,1.9189677734375,0.363918662071228,-0.09816227108240128,0.35434186458587646
1766402561011038500,1.92903857421875,0.33758243918418884,-0.016759412363171577,0.35913026332855225
1766402561021048300,1.93904833984375,0.28969839215278625,-0.15562310814857483,0.33997663855552673
1766402561041128700,1.959128662109375,0.11252748221158981,-0.2561795711517334,0.23942017555236816
1766402561071188700,1.989188720703125,0.004788403399288654,-0.31364041566848755,0.19871874153614044
1766402561081228800,1.999228759765625,0.009576806798577309,-0.2992752194404602,0.08858546614646912
1766402561091269000,2.00926904296875,-0.0071826050989329815,-0.28969839215278625,0.047884032130241394
1766402561101309400,2.019309326171875,0.07661445438861847,-0.26336219906806946,-0.0071826050989329815
1766402561111349800,2.029349853515625,0.12210428714752197,-0.21308395266532898,-0.06224924325942993
1766402561121359600,2.039359619140625,0.10773907601833344,-0.22026655077934265,-0.13168109953403473
1766402561131430400,2.049430419921875,0.06464344263076782,-0.26336219906806946,-0.1364694982767105
1766402561141440000,2.05943994140625,-0.021547814831137657,-0.30885201692581177,-0.22026655077934265
1766402561161490200,2.079490234375,-0.13168109953403473,-0.19632454216480255,-0.22026655077934265
1766402561171561000,2.08956103515625,-0.038307227194309235,-0.2346317619085312,-0.11252748221158981
1766402561181570800,2.09957080078125,-0.09576806426048279,-0.2298433631658554,-0.22026655077934265
1766402561191611000,2.10961083984375,-0.07422025501728058,-0.19632454216480255,-0.29209262132644653
1766402561201651200,2.119651123046875,-0.06464344263076782,-0.10534487664699554,-0.1867477297782898
1766402561211661000,2.1296611328125,-0.031124621629714966,-0.016759412363171577,-0.2059013396501541
1766402561221701400,2.139701416015625,-0.0071826050989329815,0.08619125932455063,-0.11971008777618408
1766402561231711000,2.1497109375,0.05267243832349777,0.19153612852096558,-0.11971008777618408
1766402561251761200,2.16976123046875,0.06464344263076782,0.31124621629714966,-0.1173158809542656
1766402561261832000,2.17983203125,0.07422025501728058,0.31124621629714966,-0.16519992053508759
1766402561271841800,2.189841796875,0.05746084079146385,0.24660277366638184,-0.28730419278144836
1766402561281851400,2.199851318359375,0.0454898327589035,0.12449848651885986,-0.3471592366695404
1766402561291891700,2.2098916015625,0.15562310814857483,0.08379705995321274,-0.3663128614425659
1766402561301901600,2.219901611328125,0.10773907601833344,0.002394201699644327,-0.3423708379268646
1766402561311911200,2.2299111328125,0.181959331035614,-0.05267243832349777,-0.21308395266532898
1766402561321921000,2.239921142578125,0.08619125932455063,-0.10773907601833344,-0.2082955539226532
1766402561331931000,2.249930908203125,0.10055647045373917,-0.17717093229293823,-0.15083470940589905
1766402561351980800,2.269980712890625,0.05506663769483566,-0.1364694982767105,-0.05027823522686958
1766402561361990700,2.27999072265625,0.10295066982507706,-0.17956513166427612,-0.004788403399288654
1766402561372031000,2.290031005859375,0.0933738648891449,-0.20111294090747833,0.11971008777618408
1766402561382040600,2.30004052734375,0.14604631066322327,-0.14844051003456116,0.1173158809542656
1766402561392081000,2.310080810546875,0.08858546614646912,-0.21547815203666687,0.19632454216480255
1766402561402121200,2.320121337890625,0.12210428714752197,-0.2825157940387726,0.28730419278144836
1766402561412161500,2.33016162109375,0.16519992053508759,-0.31842881441116333,0.24899697303771973
1766402561422171400,2.34017138671875,0.1388636976480484,-0.38307225704193115,0.2585737705230713
1766402561432181000,2.350180908203125,0.17717093229293823,-0.36152446269989014,0.2059013396501541
1766402561442190800,2.36019091796875,0.2513911724090576,-0.3878606855869293,0.2801215946674347
1766402561472220200,2.39022021484375,0.1412578970193863,-0.26096799969673157,0.17477671802043915
1766402561482229800,2.400229736328125,0.038307227194309235,-0.26815059781074524,0.10295066982507706
1766402561492239600,2.410239501953125,0.08140286058187485,-0.2968810200691223,-0.05985504388809204
1766402561502249500,2.42024951171875,0.07900865375995636,-0.2106897532939911,-0.22744916379451752
1766402561512259000,2.430259033203125,0.011971008032560349,-0.08858546614646912,-0.2346317619085312
1766402561522299400,2.44029931640625,-0.004788403399288654,-0.12689268589019775,-0.27054479718208313
1766402561532339700,2.450339599609375,-0.033518824726343155,-0.1412578970193863,-0.3687070608139038
1766402561572409300,2.490409423828125,-0.1388636976480484,0.14604631066322327,-0.2346317619085312
1766402561582388500,2.500388427734375,-0.13407529890537262,0.2082955539226532,-0.2106897532939911
1766402561592459300,2.510459228515625,-0.19632454216480255,0.3711012601852417,-0.2059013396501541
1766402561612448500,2.530448486328125,-0.22744916379451752,0.2082955539226532,0.08858546614646912
1766402561622458000,2.5404580078125,-0.2513911724090576,-0.035913024097681046,0.026336219161748886
1766402561632529000,2.55052880859375,-0.05027823522686958,-0.23702596127986908,0.07661445438861847
1766402561652548600,2.570548583984375,0.043095629662275314,-0.4357447028160095,-0.05267243832349777
1766402561662558200,2.58055810546875,0.05746084079146385,-0.5602431893348694,-0.011971008032560349
1766402561672629000,2.59062890625,0.09576806426048279,-0.5602431893348694,0.0071826050989329815
1766402561682638800,2.600638916015625,0.10773907601833344,-0.3758896589279175,0.17238251864910126
1766402561692679200,2.61067919921875,0.22505496442317963,-0.33518823981285095,0.1149216815829277
1766402561712698600,2.63069873046875,0.2513911724090576,-0.272938996553421,0.1843535304069519
1766402561722708500,2.64070849609375,0.40701428055763245,-0.2082955539226532,0.14604631066322327
1766402561732718000,2.650718017578125,0.44771572947502136,-0.3064578175544739,0.10055647045373917
1766402561742728000,2.66072802734375,0.5195417404174805,-0.4644751250743866,0.08619125932455063
1766402561752737800,2.67073779296875,0.5626373887062073,-0.7661445140838623,0.047884032130241394
1766402561772787700,2.69078759765625,0.47165772318840027,-1.3239935636520386,-0.20350714027881622
1766402561782797600,2.700797607421875,0.21787235140800476,-1.161187767982483,-0.31124621629714966
1766402561792838000,2.710837890625,0.1604115068912506,-1.0103530883789062,-0.07661445438861847
1766402561802847500,2.720847412109375,0.06224924325942993,-1.0462661981582642,0.035913024097681046
1766402561812857300,2.730857421875,0.023942016065120697,-1.0127472877502441,-0.08858546614646912
1766402561822928100,2.74092822265625,0.033518824726343155,-0.9959878921508789,-0.10295066982507706
1766402561832938000,2.75093798828125,-0.1149216815829277,-0.5003881454467773,-0.12689268589019775
1766402561842978000,2.76097802734375,-0.2322375625371933,0.17238251864910126,0.18914192914962769
1766402561852988000,2.77098779296875,-0.06464344263076782,0.3758896589279175,0.4118026793003082
1766402561882986800,2.80098681640625,0.22266076505184174,0.45250412821769714,0.28730419278144836
1766402561893027000,2.811027099609375,0.37828385829925537,0.43335050344467163,0.24899697303771973
1766402561903006200,2.821006103515625,0.35434186458587646,0.22266076505184174,0.1628057211637497
1766402561913077000,2.831076904296875,0.38067805767059326,-0.44771572947502136,0.09576806426048279
1766402561923056400,2.841056396484375,0.4692635238170624,-1.1683704853057861,-0.09576806426048279
1766402561933066000,2.85106591796875,0.33279404044151306,-1.4844050407409668,-0.016759412363171577
1766402561943075800,2.861075927734375,0.11971008777618408,-1.3287819623947144,0.1364694982767105
1766402561983084300,2.901084228515625,-0.40222588181495667,-1.7118542194366455,-0.05506663769483566
1766402562003104000,2.92110400390625,-0.5099649429321289,-0.9624691009521484,0.6751648783683777
1766402562013113600,2.931113525390625,-0.6416460275650024,-0.7422025203704834,0.6631938815116882
1766402562023123500,2.94112353515625,-0.706289529800415,-0.35434186458587646,0.727837324142456
1766402562033133300,2.95113330078125,-0.1867477297782898,-0.31124621629714966,0.5985504388809204
1766402562043143000,2.961142822265625,0.1867477297782898,-0.6607996821403503,0.3926490843296051
1766402562053152800,2.97115283203125,0.33518823981285095,-1.015141487121582,0.090979665517807
1766402562063162600,2.98116259765625,0.608127236366272,-1.3096283674240112,-0.2585737705230713
1766402562083182000,3.00118212890625,0.38067805767059326,-0.24181437492370605,-0.21547815203666687
1766402562093222400,3.011222412109375,0.3878606855869293,-0.2106897532939911,0.09816227108240128
1766402562103201500,3.021201416015625,0.08379705995321274,-0.3902548849582672,0.016759412363171577
1766402562113241900,3.031241943359375,-0.27054479718208313,-0.2585737705230713,0.06224924325942993
1766402562123282200,3.0412822265625,-0.27054479718208313,0.05267243832349777,0.35434186458587646
1766402562133291800,3.051291748046875,0.16519992053508759,-0.15322890877723694,0.5554547905921936
1766402562143301600,3.061301513671875,0.07422025501728058,-0.3256114423274994,0.8307880163192749
1766402562153311500,3.0713115234375,-0.3974374830722809,-0.011971008032560349,1.01753568649292
1766402562163321000,3.081321044921875,-0.5937620401382446,0.23942017555236816,1.192312479019165
1766402562193350400,3.111350341796875,-1.4460978507995605,0.6440402865409851,1.5729905366897583
1766402562213400600,3.131400634765625,-1.4484920501708984,0.1843535304069519,1.4867992401123047
1766402562223410200,3.14141015625,-1.237802267074585,-0.4884171485900879,1.1899182796478271
1766402562233450500,3.151450439453125,-1.3623007535934448,-0.21547815203666687,1.237802267074585
1766402562243460400,3.16146044921875,-1.259350061416626,-0.06464344263076782,1.192312479019165
1766402562253500700,3.171500732421875,-0.9624691009521484,0.12449848651885986,1.235408067703247
1766402562283560400,3.201560546875,-0.4668693244457245,1.3479355573654175,1.3215993642807007
1766402562293600800,3.211600830078125,-0.07900865375995636,1.534683346748352,1.4053963422775269
1766402562303610600,3.221610595703125,0.2298433631658554,1.3192051649093628,1.50355863571167
1766402562313620200,3.2316201171875,0.2753331959247589,0.7805097699165344,1.2737152576446533
1766402562323630000,3.241630126953125,-0.05746084079146385,0.6153098344802856,1.0582371950149536
1766402562333639700,3.2516396484375,-0.14365209639072418,0.7733271718025208,0.9145850539207458
1766402562343649500,3.2616494140625,-0.27054479718208313,1.0654197931289673,0.7637503147125244
1766402562353659400,3.271659423828125,-0.2346317619085312,1.1300631761550903,0.706289529800415
1766402562363669000,3.2816689453125,-0.2944868206977844,1.2761094570159912,0.42377370595932007
1766402562373709300,3.291709228515625,-0.24181437492370605,1.4844050407409668,0.17238251864910126
1766402562383688700,3.301688720703125,0.07182604819536209,1.6041151285171509,-0.16519992053508759
1766402562403677700,3.321677734375,-0.19393034279346466,1.9967641830444336,-0.2968810200691223
1766402562443777800,3.36177783203125,0.0694318488240242,1.0007762908935547,-1.9033904075622559
1766402562453848600,3.3718486328125,-0.026336219161748886,1.7597382068634033,-1.6543933153152466
1766402562463858200,3.381858154296875,-0.27054479718208313,2.142810583114624,-1.4269442558288574
1766402562473868000,3.391867919921875,-0.33279404044151306,2.6144683361053467,-1.3192051649093628
1766402562493918200,3.411918212890625,0.1843535304069519,2.3487119674682617,-1.7717092037200928
1766402562503927800,3.421927734375,0.12689268589019775,1.1109095811843872,-2.4899697303771973
1766402562513907200,3.4319072265625,-0.12210428714752197,0.6440402865409851,-3.160346269607544
1766402562523916800,3.441916748046875,-0.31364041566848755,0.6703764796257019,-3.335123062133789
1766402562533926700,3.4519267578125,-0.28969839215278625,0.6344634294509888,-3.1699230670928955
1766402562543936500,3.4619365234375,-0.5793967843055725,0.8259995579719543,-2.9472622871398926
1766402562553946000,3.471946044921875,-0.8930372595787048,1.1348515748977661,-2.365471363067627
1766402562563956000,3.4819560546875,-0.9864110946655273,0.8906430602073669,-1.821987509727478
1766402562573996300,3.491996337890625,-0.8930372595787048,0.6655880808830261,-1.3263877630233765
1766402562594015700,3.512015625,-0.7038952708244324,-0.10055647045373917,-1.0749965906143188
1766402562604056000,3.52205615234375,-1.0414776802062988,-1.1204863786697388,-0.8906430602073669
1766402562614096400,3.532096435546875,-1.2761094570159912,-1.7094600200653076,-0.8906430602073669
1766402562624075500,3.542075439453125,-1.2401964664459229,-1.4891934394836426,-0.9289502501487732
1766402562634085400,3.55208544921875,-1.0414776802062988,-1.2042834758758545,-1.1420341730117798
1766402562644095200,3.56209521484375,-0.7757213711738586,-0.730231523513794,-1.4700398445129395
1766402562654166000,3.572166015625,-0.4572925269603729,0.035913024097681046,-1.9321208000183105
1766402562664175600,3.582175537109375,-0.21308395266532898,0.4908113479614258,-1.7932571172714233
1766402562674185500,3.592185546875,-0.19393034279346466,0.3519476354122162,-1.599326729774475
1766402562684164600,3.60216455078125,-0.3974374830722809,-0.2513911724090576,-1.4652514457702637
1766402562714224600,3.632224609375,-1.1324573755264282,-1.7980455160140991,-2.540247917175293
1766402562724234200,3.642234130859375,-1.2449848651885986,-1.2761094570159912,-2.9688100814819336
1766402562734274600,3.652274658203125,-1.4197616577148438,-0.6703764796257019,-2.9975404739379883
1766402562744284400,3.662284423828125,-1.8722656965255737,-0.36152446269989014,-2.7078421115875244
1766402562754294000,3.6722939453125,-2.2912509441375732,-0.2561795711517334,-2.142810583114624
1766402562764304000,3.682303955078125,-2.669534921646118,-0.16998831927776337,-1.5322890281677246
1766402562774344200,3.69234423828125,-2.6575639247894287,0.026336219161748886,-0.9026140570640564
1766402562784353800,3.702353759765625,-2.518700122833252,-0.05746084079146385,-0.1867477297782898
1766402562814413800,3.732413818359375,-1.5897499322891235,-0.4908113479614258,0.9193734526634216
1766402562824393000,3.74239306640625,-0.828393816947937,-0.6392518281936646,1.2641384601593018
1766402562834433300,3.752433349609375,-0.35913026332855225,-0.9888052940368652,1.6280571222305298
1766402562844473600,3.7624736328125,0.014365210197865963,-1.335964560508728,2.1787235736846924
1766402562854483200,3.772483154296875,0.10773907601833344,-1.6184803247451782,2.3487119674682617
1766402562864493000,3.7824931640625,0.22266076505184174,-1.599326729774475,2.4181437492370605
1766402562874503000,3.7925029296875,0.24420857429504395,-1.556231141090393,2.1523873805999756
1766402562914572300,3.832572265625,-0.3423708379268646,0.026336219161748886,-0.40701428055763245
1766402562934622500,3.85262255859375,0.05746084079146385,0.6033388376235962,-1.1468225717544556
1766402562944601600,3.8626015625,0.26815059781074524,0.6200982332229614,-1.3192051649093628
1766402562954642000,3.872641845703125,0.3902548849582672,0.19871874153614044,-1.7501614093780518
1766402562964682200,3.88268212890625,0.19153612852096558,-0.47884035110473633,-2.0614075660705566
1766402562974692000,3.892692138671875,0.07661445438861847,-0.8307880163192749,-1.7812861204147339
1766402563014761700,3.93276171875,-0.37828385829925537,-0.35913026332855225,-1.9512743949890137
1766402563024771300,3.942771240234375,-0.3256114423274994,-0.7158663272857666,-2.0853497982025146
1766402563034781200,3.95278125,-0.2944868206977844,-0.933738648891449,-1.778891921043396
1766402563044791000,3.962791015625,-0.3902548849582672,-1.3192051649093628,-1.522712230682373
1766402563054800600,3.972800537109375,-0.5817909836769104,-1.7142484188079834,-1.4772224426269531
1766402563064810500,3.982810546875,-0.6703764796257019,-2.298433542251587,-1.4748282432556152
1766402563074820000,3.992820068359375,-0.4908113479614258,-2.1308395862579346,-1.173158884048462
1766402563084860400,4.0028603515625,-0.5003881454467773,-1.6041151285171509,-0.6799532771110535
1766402563134909400,4.052909423828125,-0.6799532771110535,0.2322375625371933,0.24660277366638184
1766402563144980200,4.062980224609375,-0.811634361743927,0.49320554733276367,0.22026655077934265
1766402563154989800,4.07298974609375,-0.7924807667732239,0.5722141861915588,0.1867477297782898
1766402563164999700,4.082999755859375,-0.8762778043746948,0.42856210470199585,0.3423708379268646
1766402563175070500,4.093070556640625,-0.8092401623725891,0.016759412363171577,0.5147533416748047
1766402563185049600,4.103049560546875,-0.6033388376235962,-0.3064578175544739,0.4620809257030487
1766402563195059500,4.1130595703125,-0.43095630407333374,-0.49799394607543945,0.4357447028160095
1766402563215109600,4.133109619140625,-0.29209262132644653,-0.7398083209991455,0.26096799969673157
1766402563225119200,4.143119140625,-0.20111294090747833,-0.6200982332229614,0.31842881441116333
1766402563235129000,4.153129150390625,-0.181959331035614,-0.6631938815116882,0.3998316824436188
1766402563245108200,4.163108154296875,-0.07422025501728058,-0.706289529800415,0.26815059781074524
1766402563255148500,4.1731484375,-0.07661445438861847,-0.6703764796257019,0.2082955539226532
1766402563265158400,4.183158447265625,0.07182604819536209,-0.9457096457481384,0.004788403399288654
1766402563275198700,4.19319873046875,-0.011971008032560349,-1.3838485479354858,-0.0694318488240242
1766402563285208300,4.203208251953125,0.009576806798577309,-1.5298948287963867,-0.009576806798577309
1766402563295218200,4.21321826171875,0.17717093229293823,-1.6208745241165161,-0.17717093229293823
1766402563335257300,4.25325732421875,0.9481038451194763,0.9983820915222168,-0.4908113479614258
1766402563345267000,4.263266845703125,1.2114660739898682,1.3263877630233765,-0.4189853072166443
1766402563355337700,4.273337646484375,1.1324573755264282,1.41257905960083,-0.3687070608139038
1766402563365347600,4.28334765625,0.9433154463768005,1.7381904125213623,-0.2561795711517334
1766402563375388000,4.293387939453125,0.6799532771110535,1.867477297782898,0.10534487664699554
1766402563385428200,4.30342822265625,0.5434837937355042,1.9177556037902832,0.06703764945268631
1766402563395437800,4.313437744140625,0.27054479718208313,1.8626888990402222,0.2513911724090576
1766402563405417200,4.323417236328125,0.24660277366638184,1.7286136150360107,0.2777273952960968
1766402563425406200,4.34340625,0.16998831927776337,1.1803414821624756,0.44771572947502136
1766402563435446500,4.353446533203125,0.16759411990642548,0.47884035110473633,0.27054479718208313
1766402563445456100,4.3634560546875,0.2513911724090576,0.17956513166427612,0.26096799969673157
1766402563455466000,4.373466064453125,0.7805097699165344,0.0071826050989329815,0.10534487664699554
1766402563465475800,4.383475830078125,0.8906430602073669,-0.2537853717803955,0.12449848651885986
1766402563475485400,4.3934853515625,1.0606313943862915,-0.45010992884635925,0.023942016065120697
1766402563485495300,4.403495361328125,0.9193734526634216,-0.2585737705230713,0.18914192914962769
1766402563495535600,4.41353564453125,0.7852981686592102,0.004788403399288654,0.14365209639072418
1766402563505545200,4.423545166015625,0.5793967843055725,0.1412578970193863,-0.014365210197865963
1766402563535544000,4.4535439453125,-0.07900865375995636,-0.49799394607543945,0.019153613597154617
1766402563545554000,4.463553955078125,-0.31124621629714966,-0.4836287498474121,0.05985504388809204
1766402563555624700,4.473624755859375,-0.47405192255973816,-0.5626373887062073,0.07661445438861847
1766402563565665000,4.4836650390625,-0.6368576288223267,-0.6943184733390808,-0.031124621629714966
1766402563575705300,4.493705322265625,-0.6584054827690125,-0.6584054827690125,-0.13168109953403473
1766402563585715000,4.50371484375,-0.5985504388809204,-0.8188169598579407,-0.19632454216480255
1766402563595724800,4.513724853515625,-0.6129156351089478,-0.6512228846549988,-0.026336219161748886
1766402563605734400,4.523734375,-0.7469909191131592,-0.10773907601833344,0.031124621629714966
1766402563635794400,4.55379443359375,-0.8475474119186401,0.304063618183136,0.38067805767059326
1766402563645773600,4.563773681640625,-0.7374141216278076,0.004788403399288654,0.31364041566848755
1766402563655783400,4.573783447265625,-0.6368576288223267,-0.24181437492370605,0.17956513166427612
1766402563665793000,4.58379296875,-0.45250412821769714,-0.5219359993934631,0.031124621629714966
1766402563675803000,4.593802978515625,-0.0933738648891449,-0.5171475410461426,-0.090979665517807
1766402563685812700,4.603812744140625,0.2513911724090576,-0.45010992884635925,-0.23942017555236816
1766402563695822300,4.613822265625,0.5937620401382446,-0.1173158809542656,-0.35673606395721436
1766402563705801700,4.6238017578125,0.7661445140838623,0.009576806798577309,-0.45010992884635925
1766402563715811300,4.633811279296875,0.6655880808830261,0,-0.44771572947502136
1766402563735831000,4.6538310546875,0.11013327538967133,0.0454898327589035,-0.24899697303771973
1766402563745840600,4.663840576171875,-0.09816227108240128,-0.031124621629714966,-0.1843535304069519
1766402563755881000,4.673880859375,-0.2585737705230713,0.13168109953403473,-0.16759411990642548
1766402563765890800,4.683890869140625,-0.4644751250743866,0.17717093229293823,-0.15083470940589905
1766402563775900400,4.693900390625,-0.43095630407333374,0.27054479718208313,-0.1628057211637497
1766402563785910300,4.70391015625,-0.6009446382522583,0.22266076505184174,-0.08858546614646912
1766402563805929700,4.7239296875,-0.5267243981361389,0.1388636976480484,-0.22505496442317963
1766402563815939600,4.733939697265625,-0.3064578175544739,-0.12449848651885986,-0.12689268589019775
1766402563825949400,4.743949462890625,-0.2585737705230713,-0.40462008118629456,-0.2322375625371933
1766402563835989800,4.75398974609375,-0.1173158809542656,-0.43095630407333374,-0.1388636976480484
1766402563866080000,4.784080078125,-0.14365209639072418,-0.16759411990642548,-0.20350714027881622
1766402563876089900,4.79408984375,-0.07182604819536209,-0.0933738648891449,-0.14844051003456116
1766402563886099500,4.804099365234375,-0.12210428714752197,-0.011971008032560349,-0.08379705995321274
1766402563896109300,4.814109375,-0.06464344263076782,0.17238251864910126,-0.023942016065120697
1766402563906088400,4.82408837890625,-0.0454898327589035,0.2513911724090576,-0.12928688526153564
1766402563916098300,4.834098388671875,-0.16519992053508759,-0.047884032130241394,-0.09576806426048279
1766402563926138600,4.844138671875,-0.26096799969673157,0.033518824726343155,-0.07661445438861847
1766402563936179000,4.854178955078125,-0.40222588181495667,-0.12689268589019775,-0.14365209639072418
1766402563956198400,4.874198486328125,-0.047884032130241394,-0.1149216815829277,-0.23942017555236816
1766402563976217900,4.8942177734375,0.026336219161748886,-0.16998831927776337,-0.26815059781074524
1766402563986227700,4.904227783203125,0.17477671802043915,-0.10534487664699554,-0.21787235140800476
1766402563996237600,4.914237548828125,0.3758896589279175,0.05027823522686958,-0.17238251864910126
1766402564006247200,4.9242470703125,0.395043283700943,0.10055647045373917,-0.15322890877723694
1766402564016287500,4.93428759765625,0.3902548849582672,0.17956513166427612,-0.14365209639072418
1766402564026266600,4.9442666015625,0.2753331959247589,0.12210428714752197,-0.0694318488240242
1766402564036307000,4.954306884765625,0.11013327538967133,0.1364694982767105,-0.06464344263076782
1766402564066366700,4.98436669921875,-0.07661445438861847,-0.31364041566848755,-0.2059013396501541
1766402564076376600,4.99437646484375,0,-0.40222588181495667,-0.13407529890537262
1766402564086386400,5.004386474609375,0,-0.35434186458587646,-0.1173158809542656
1766402564096426800,5.0144267578125,0.038307227194309235,-0.15083470940589905,-0.021547814831137657
1766402564106466800,5.024466796875,0.0694318488240242,-0.009576806798577309,0.002394201699644327
1766402564116476700,5.0344765625,0.11013327538967133,0.0071826050989329815,-0.016759412363171577
1766402564126486500,5.044486572265625,0.06224924325942993,-0.023942016065120697,0.10773907601833344
1766402564136496000,5.05449609375,0.011971008032560349,-0.06703764945268631,0.0933738648891449
1766402564146506000,5.064506103515625,-0.043095629662275314,-0.08379705995321274,0.12449848651885986
1766402564166556200,5.08455615234375,-0.07182604819536209,0.16519992053508759,0.0933738648891449
1766402564186606000,5.104606201171875,-0.021547814831137657,0.16759411990642548,-0.038307227194309235
1766402564196646400,5.114646484375,-0.21308395266532898,0.2059013396501541,0.040701430290937424
1766402564206717200,5.12471728515625,-0.019153613597154617,0,-0.014365210197865963
1766402564216696300,5.1346962890625,-0.05506663769483566,-0.2944868206977844,-0.014365210197865963
1766402564226767400,5.144767333984375,-0.028730420395731926,-0.3974374830722809,0.11013327538967133
1766402564236838100,5.154838134765625,0.16519992053508759,-0.19632454216480255,0.08619125932455063
1766402564246847700,5.16484765625,0.047884032130241394,-0.1388636976480484,0.16759411990642548
1766402564256918500,5.17491845703125,0.08858546614646912,-0.090979665517807,0.10534487664699554
1766402564266928400,5.184928466796875,0.16998831927776337,-0.23942017555236816,0.031124621629714966
1766402564276938200,5.194938232421875,0.15801730751991272,-0.2825157940387726,0.002394201699644327
1766402564286947800,5.20494775390625,0.2801215946674347,-0.11013327538967133,-0.09816227108240128
1766402564297018600,5.2150185546875,0.1173158809542656,-0.3232172429561615,-0.07182604819536209
1766402564307028500,5.225028564453125,-0.002394201699644327,-0.4405331015586853,-0.0694318488240242
1766402564317038300,5.235038330078125,-0.05267243832349777,-0.31842881441116333,-0.031124621629714966
1766402564327017500,5.245017578125,0.035913024097681046,-0.4668693244457245,-0.043095629662275314
1766402564337057800,5.255057861328125,-0.026336219161748886,-0.545877993106842,-0.023942016065120697
1766402564347067600,5.265067626953125,0.13407529890537262,-0.08379705995321274,0.12928688526153564
1766402564357077200,5.2750771484375,0.1843535304069519,0.0933738648891449,0.08379705995321274
1766402564387106600,5.3051064453125,-0.0071826050989329815,0.026336219161748886,-0.05027823522686958
1766402564397147000,5.31514697265625,-0.05746084079146385,-0.014365210197865963,-0.07422025501728058
1766402564407187200,5.325187255859375,-0.07661445438861847,-0.11252748221158981,-0.12928688526153564
1766402564417227500,5.3352275390625,-0.24660277366638184,-0.1149216815829277,-0.05506663769483566
1766402564427237000,5.345237060546875,-0.24899697303771973,-0.07900865375995636,-0.05746084079146385
1766402564437247000,5.3552470703125,-0.16998831927776337,-0.14604631066322327,0.033518824726343155
1766402564447256800,5.3652568359375,-0.06703764945268631,-0.2537853717803955,0.0454898327589035
1766402564457266400,5.375266357421875,-0.019153613597154617,-0.2561795711517334,0
1766402564487265300,5.405265380859375,-0.021547814831137657,-0.13407529890537262,-0.1149216815829277
1766402564497336000,5.415336181640625,-0.11013327538967133,-0.10773907601833344,-0.07182604819536209
1766402564507346000,5.425345947265625,-0.07900865375995636,0.023942016065120697,-0.12210428714752197
1766402564517355500,5.43535546875,-0.16519992053508759,0.05985504388809204,-0.20350714027881622
1766402564527365400,5.445365478515625,-0.16519992053508759,-0.09816227108240128,-0.17956513166427612
1766402564537405700,5.45540576171875,-0.13407529890537262,-0.21308395266532898,-0.12689268589019775
1766402564547415600,5.46541552734375,-0.20111294090747833,0.06464344263076782,-0.023942016065120697
1766402564597464300,5.51546435546875,0,0.023942016065120697,-0.07422025501728058
1766402564607474000,5.525473876953125,0.021547814831137657,0.031124621629714966,-0.090979665517807
1766402564617514200,5.53551416015625,-0.009576806798577309,0.05027823522686958,-0.07422025501728058
1766402564627524000,5.545524169921875,0.08619125932455063,-0.2059013396501541,-0.12449848651885986
1766402564637534000,5.555533935546875,-0.002394201699644327,-0.12449848651885986,-0.20350714027881622
1766402564647604700,5.565604736328125,0.002394201699644327,-0.05267243832349777,-0.10534487664699554
1766402564657644800,5.575644775390625,-0.08858546614646912,-0.17238251864910126,-0.1364694982767105
1766402564667654700,5.585654541015625,0,-0.11013327538967133,-0.1628057211637497
1766402564677695000,5.595695068359375,0.06464344263076782,-0.17238251864910126,-0.21308395266532898
1766402564707724300,5.625724365234375,0.09576806426048279,-0.15562310814857483,-0.05267243832349777
1766402564717734100,5.635734130859375,0.043095629662275314,-0.09576806426048279,-0.05985504388809204
1766402564727713300,5.64571337890625,0.23942017555236816,0.09816227108240128,-0.05506663769483566
1766402564737753600,5.655753662109375,0.14844051003456116,0.19393034279346466,0.035913024097681046
1766402564747763500,5.665763427734375,0.040701430290937424,0,0.07182604819536209
1766402564757773000,5.67577294921875,-0.07661445438861847,-0.05267243832349777,0.1867477297782898
1766402564767783000,5.685782958984375,-0.14365209639072418,-0.1173158809542656,0.05985504388809204
1766402564777792500,5.69579248046875,-0.14604631066322327,-0.26336219906806946,0.07661445438861847
1766402564787802400,5.70580224609375,-0.07182604819536209,-0.15083470940589905,0.021547814831137657
1766402564817892600,5.735892578125,-0.19393034279346466,-0.1173158809542656,0.12928688526153564
1766402564838003700,5.756003662109375,-0.06464344263076782,-0.22744916379451752,0.09576806426048279
1766402564848044000,5.7660439453125,0.0071826050989329815,-0.10534487664699554,0.004788403399288654
1766402564858084400,5.77608447265625,-0.05985504388809204,-0.0071826050989329815,0.08858546614646912
1766402564868094200,5.78609423828125,0.09576806426048279,0.035913024097681046,0.07422025501728058
1766402564878103800,5.796103759765625,0.16759411990642548,0.05267243832349777,0.040701430290937424
1766402564888144100,5.80614404296875,0.016759412363171577,-0.16519992053508759,0.002394201699644327
1766402564918204000,5.836203857421875,-0.22505496442317963,-0.05027823522686958,-0.026336219161748886
1766402564928183300,5.846183349609375,-0.2585737705230713,-0.4189853072166443,-0.002394201699644327
1766402564938223600,5.8562236328125,-0.29209262132644653,-0.47405192255973816,-0.0694318488240242
1766402564948264000,5.866263916015625,-0.05985504388809204,-0.24899697303771973,-0.12210428714752197
1766402564958334700,5.876334716796875,-0.011971008032560349,-0.10055647045373917,-0.043095629662275314
1766402564968313900,5.88631396484375,0.12928688526153564,0.023942016065120697,-0.05267243832349777
1766402564988364000,5.906364013671875,0.31603461503982544,-0.023942016065120697,0.033518824726343155
1766402565008414000,5.9264140625,0.016759412363171577,0.021547814831137657,-0.1149216815829277
1766402565018454300,5.936454345703125,-0.031124621629714966,0.19153612852096558,-0.1364694982767105
1766402565028464000,5.946464111328125,0.15801730751991272,0.2801215946674347,-0.035913024097681046
1766402565048544500,5.96654443359375,-0.19871874153614044,-0.3423708379268646,-0.06703764945268631
1766402565058554400,5.976554443359375,-0.5770025849342346,-0.33997663855552673,0.0071826050989329815
1766402565068625200,5.986625244140625,-0.5841852426528931,0.026336219161748886,-0.11013327538967133
1766402565078665500,5.99666552734375,-0.43095630407333374,0.047884032130241394,0.10534487664699554
1766402565088675000,6.006675048828125,-0.09816227108240128,0.035913024097681046,-0.13407529890537262
1766402565118735000,6.036735107421875,-0.1149216815829277,-0.8331822156906128,-0.08379705995321274
1766402565128744700,6.04674462890625,0.05985504388809204,-0.5937620401382446,-0.28969839215278625
1766402565138785000,6.056784912109375,0.22505496442317963,-0.12928688526153564,0.06464344263076782
1766402565148764400,6.066764404296875,0.5339069962501526,0.15801730751991272,0.08858546614646912
1766402565158774000,6.07677392578125,0.8475474119186401,0.17717093229293823,0.11252748221158981
1766402565168784000,6.086783935546875,0.7996633648872375,0.3687070608139038,0.15801730751991272
1766402565178793700,6.096793701171875,0.667982280254364,0.28969839215278625,0.24899697303771973
1766402565188803300,6.10680322265625,0.44771572947502136,0.026336219161748886,0.10055647045373917
1766402565208853500,6.126853515625,-0.08379705995321274,0.05267243832349777,0.019153613597154617
1766402565218863000,6.136863037109375,-0.05985504388809204,-0.12689268589019775,-0.14604631066322327
1766402565228873000,6.146873046875,0.33997663855552673,-0.272938996553421,-0.2106897532939911
1766402565238882800,6.1568828125,0.5746083855628967,-0.4141969084739685,-0.21547815203666687
1766402565248892400,6.166892333984375,0.4668693244457245,-0.24660277366638184,-0.20350714027881622
1766402565258902300,6.17690234375,0.7613561153411865,-0.08858546614646912,-0.395043283700943
1766402565268912000,6.186912109375,1.048660397529602,0.1149216815829277,-0.3519476354122162
1766402565278952200,6.1969521484375,1.161187767982483,-0.07182604819536209,-0.2777273952960968
1766402565288962000,6.206962158203125,1.1635819673538208,-0.13168109953403473,-0.26096799969673157
1766402565309012200,6.22701220703125,0.950498104095459,-0.30885201692581177,-0.07422025501728058
1766402565319021800,6.237021728515625,0.47405192255973816,-0.1149216815829277,0
1766402565329062100,6.247062255859375,0.43095630407333374,-0.17717093229293823,-0.1173158809542656
1766402565339072000,6.257072021484375,0.19632454216480255,-0.3064578175544739,-0.21787235140800476
1766402565349081600,6.26708154296875,0.15562310814857483,-0.12449848651885986,-0.19153612852096558
1766402565359091500,6.277091552734375,0.21787235140800476,-0.31364041566848755,-0.17717093229293823
1766402565369101300,6.287101318359375,0.016759412363171577,-0.3519476354122162,-0.08858546614646912
1766402565379111000,6.29711083984375,-0.6488286852836609,-0.42616790533065796,0.1388636976480484
1766402565389120800,6.307120849609375,-0.6536170840263367,-0.4620809257030487,0.2082955539226532
1766402565429251300,6.347251220703125,-0.7350199222564697,-0.47165772318840027,-0.3926490843296051
1766402565439261200,6.35726123046875,0.5578489899635315,1.0654197931289673,-0.2298433631658554
1766402565449270800,6.367270751953125,1.7405846118927002,1.6759412288665771,-0.011971008032560349
1766402565459280600,6.37728076171875,1.680729627609253,1.659181833267212,0.011971008032560349
1766402565469290500,6.38729052734375,1.8483237028121948,0.3758896589279175,-0.2298433631658554
1766402565479300000,6.397300048828125,3.3854012489318848,0.7206547260284424,-0.3998316824436188
1766402565489310000,6.40731005859375,1.7166426181793213,0.7326257228851318,0.2513911724090576
1766402565499319800,6.41731982421875,1.1109095811843872,-0.17238251864910126,-0.30885201692581177
1766402565519339300,6.43733935546875,-0.47884035110473633,-0.2944868206977844,-0.19393034279346466
1766402565529349000,6.44734912109375,-0.9002198576927185,-0.7038952708244324,-0.363918662071228
1766402565539389200,6.45738916015625,-1.070208191871643,-0.8379706144332886,-0.37828385829925537
1766402565549399000,6.46739892578125,-1.039083480834961,-0.7829039692878723,-0.2944868206977844
1766402565559409000,6.477408935546875,-1.1324573755264282,-0.8930372595787048,-0.31603461503982544
1766402565569449200,6.48744921875,-1.194706678390503,-0.6847416758537292,-0.2082955539226532
1766402565579458800,6.497458740234375,-1.3239935636520386,-0.3495534360408783,0.0071826050989329815
1766402565589468700,6.50746875,-1.1851298809051514,-0.38546648621559143,0.040701430290937424
1766402565599478500,6.517478515625,-1.2761094570159912,-0.6057330369949341,0.15801730751991272
1766402565619498000,6.537498046875,-1.2258312702178955,0.15322890877723694,0.4620809257030487
1766402565629507800,6.5475078125,-1.4413094520568848,0.023942016065120697,0.6033388376235962
1766402565639517400,6.557517333984375,-1.3910311460494995,0.11252748221158981,0.5267243981361389
1766402565649527300,6.56752734375,-1.173158884048462,0.14844051003456116,0.49559974670410156
1766402565659537000,6.577536865234375,-0.6967126727104187,0.4692635238170624,0.45489832758903503
1766402565669546800,6.587546630859375,-0.3711012601852417,0.5363011956214905,0.3471592366695404
1766402565679556600,6.597556640625,-0.08379705995321274,0.5482721924781799,0.1867477297782898
1766402565689566200,6.607566162109375,0.17956513166427612,0.5123591423034668,0.10534487664699554
1766402565699576000,6.617576171875,0.6057330369949341,0.507570743560791,-0.016759412363171577
1766402565709586000,6.6275859375,0.7086837291717529,0.3471592366695404,-0.05027823522686958
1766402565729635800,6.6476357421875,0.608127236366272,0.16759411990642548,-0.2537853717803955
1766402565759695600,6.677695556640625,0.33997663855552673,0.016759412363171577,-0.30885201692581177
1766402565769705500,6.68770556640625,0.5339069962501526,0.038307227194309235,-0.2585737705230713
1766402565779745800,6.697745849609375,0.8140285611152649,-0.11971008777618408,-0.3758896589279175
1766402565789755400,6.70775537109375,0.8068459630012512,-0.2082955539226532,-0.31124621629714966
1766402565799795700,6.717795654296875,0.6823474764823914,-0.19871874153614044,-0.3423708379268646
1766402565809805600,6.7278056640625,0.28969839215278625,-0.27054479718208313,-0.272938996553421
1766402565849875200,6.767875244140625,-0.8523358106613159,-0.047884032130241394,0.1843535304069519
1766402565859884800,6.777884765625,-1.0031704902648926,0.016759412363171577,0.15083470940589905
1766402565869894700,6.787894775390625,-1.0630255937576294,0,0.2513911724090576
1766402565879904500,6.797904541015625,-1.1013327836990356,0.10534487664699554,0.3232172429561615
1766402565889914000,6.8079140625,-1.0199298858642578,0.028730420395731926,0.3902548849582672
1766402565899954400,6.817954345703125,-1.0845733880996704,0,0.4620809257030487
1766402565909964300,6.82796435546875,-0.9888052940368652,-0.19871874153614044,0.545877993106842
1766402565919974100,6.83797412109375,-0.8595184087753296,-0.16759411990642548,0.5219359993934631
1766402565950064400,6.868064453125,-0.33039984107017517,-0.3495534360408783,0.31124621629714966
1766402565970114300,6.8881142578125,-0.6200982332229614,-0.3663128614425659,0.10773907601833344
1766402565990164500,6.90816455078125,-0.6320692300796509,-0.667982280254364,-0.24899697303771973
1766402566000174300,6.91817431640625,-0.5051765441894531,-0.4165911078453064,-0.19393034279346466
1766402566010245000,6.9282451171875,-0.27054479718208313,-0.23702596127986908,-0.2585737705230713
1766402566020254700,6.938254638671875,-0.05985504388809204,-0.33997663855552673,-0.33039984107017517
1766402566030264600,6.9482646484375,0.14365209639072418,-0.21308395266532898,-0.31603461503982544
1766402566060324400,6.978324462890625,0.4692635238170624,0.2992752194404602,-0.5841852426528931
1766402566070334200,6.988334228515625,0.3902548849582672,0.5746083855628967,-0.4381389021873474
1766402566080374500,6.99837451171875,0.22744916379451752,0.5722141861915588,-0.22026655077934265
1766402566090414600,7.00841455078125,0.10295066982507706,0.5363011956214905,-0.31603461503982544
1766402566100424400,7.018424560546875,0.09576806426048279,0.28730419278144836,-0.28730419278144836
1766402566110434300,7.028434326171875,0.24181437492370605,0.17956513166427612,-0.33279404044151306
1766402566120474600,7.038474609375,0.26575639843940735,0.33279404044151306,-0.4429273009300232
1766402566130484200,7.048484130859375,0.0454898327589035,0.3687070608139038,-0.2944868206977844
1766402566150504000,7.06850390625,-0.31603461503982544,0.05267243832349777,-0.40222588181495667
1766402566160574700,7.07857470703125,-0.31603461503982544,0.002394201699644327,-0.43095630407333374
1766402566170553900,7.088553955078125,-0.31842881441116333,-0.021547814831137657,-0.44532153010368347
1766402566180563700,7.098563720703125,-0.28969839215278625,-0.0454898327589035,-0.4141969084739685
1766402566190573300,7.1085732421875,-0.31364041566848755,-0.0071826050989329815,-0.33758243918418884
1766402566200583200,7.118583251953125,-0.2753331959247589,-0.11013327538967133,-0.38067805767059326
1766402566210593000,7.128593017578125,-0.24420857429504395,-0.1867477297782898,-0.3471592366695404
1766402566220602600,7.1386025390625,-0.26575639843940735,-0.29209262132644653,-0.21308395266532898
1766402566230612500,7.148612548828125,-0.23942017555236816,-0.28730419278144836,-0.20350714027881622
1766402566260641800,7.178641845703125,-0.33758243918418884,-0.22026655077934265,0.17717093229293823
1766402566270651400,7.1886513671875,-0.38546648621559143,-0.2537853717803955,0.17477671802043915
1766402566280661200,7.1986611328125,-0.35434186458587646,-0.31124621629714966,0.17238251864910126
1766402566290671000,7.208671142578125,-0.4165911078453064,-0.31842881441116333,0.1843535304069519
1766402566300711400,7.21871142578125,-0.5123591423034668,-0.2106897532939911,0.15083470940589905
1766402566310721000,7.228720947265625,-0.44532153010368347,-0.22266076505184174,0.15562310814857483
1766402566320731000,7.23873095703125,-0.6272808313369751,-0.44771572947502136,0.1388636976480484
1766402566330771200,7.248771240234375,-0.3519476354122162,-0.38546648621559143,-0.08858546614646912
1766402566340780800,7.25878076171875,-0.2082955539226532,-0.047884032130241394,-0.023942016065120697
1766402566370810000,7.28881005859375,-0.21547815203666687,-0.11013327538967133,-0.24181437492370605
1766402566390829800,7.308829833984375,-0.21547815203666687,-0.0933738648891449,-0.42856210470199585
1766402566400839400,7.31883935546875,-0.12449848651885986,-0.06464344263076782,-0.3998316824436188
1766402566410849300,7.328849365234375,0.021547814831137657,-0.16998831927776337,-0.45250412821769714
1766402566420889600,7.3388896484375,0.023942016065120697,-0.2322375625371933,-0.43095630407333374
1766402566430899200,7.348899169921875,0.05746084079146385,-0.13168109953403473,-0.35673606395721436
1766402566440970200,7.35897021484375,0.10055647045373917,0.023942016065120697,-0.2346317619085312
1766402566451041000,7.369041015625,0.028730420395731926,0.002394201699644327,-0.20350714027881622
1766402566491110400,7.4091103515625,0.15083470940589905,0.13407529890537262,-0.05027823522686958
1766402566501120300,7.419120361328125,0.17956513166427612,0.1604115068912506,-0.07182604819536209
1766402566511130000,7.429130126953125,0.05746084079146385,0.21787235140800476,-0.090979665517807
1766402566521139700,7.4391396484375,-0.05506663769483566,0.11252748221158981,-0.0071826050989329815
1766402566531149600,7.449149658203125,-0.1388636976480484,-0.021547814831137657,-0.06703764945268631
1766402566541159400,7.459159423828125,-0.13407529890537262,-0.033518824726343155,-0.07422025501728058
1766402566551138600,7.469138671875,0.009576806798577309,-0.10295066982507706,-0.09816227108240128
1766402566581228800,7.499228759765625,-0.1149216815829277,-0.3256114423274994,-0.1173158809542656
1766402566591238700,7.50923876953125,-0.1843535304069519,-0.2537853717803955,0.004788403399288654
1766402566601248500,7.51924853515625,-0.22026655077934265,-0.363918662071228,0.004788403399288654
1766402566611258000,7.529258056640625,-0.3663128614425659,-0.4118026793003082,0.090979665517807
1766402566621268000,7.53926806640625,-0.2537853717803955,-0.22026655077934265,0.07422025501728058
1766402566641287400,7.559287353515625,0.014365210197865963,-0.016759412363171577,0.09816227108240128
1766402566651297300,7.56929736328125,0,-0.0454898327589035,0.17238251864910126
1766402566671347200,7.58934716796875,-0.10534487664699554,0.21547815203666687,0.17956513166427612
1766402566681357000,7.599357177734375,-0.10534487664699554,0.181959331035614,0.1364694982767105
1766402566711416800,7.629416748046875,0.06224924325942993,-0.05027823522686958,-0.023942016065120697
1766402566721426700,7.6394267578125,0.002394201699644327,-0.19632454216480255,-0.016759412363171577
1766402566731436500,7.6494365234375,0,-0.13168109953403473,-0.11971008777618408
1766402566741446100,7.659446044921875,-0.08858546614646912,-0.1843535304069519,-0.15801730751991272
1766402566751456000,7.6694560546875,-0.12210428714752197,-0.0454898327589035,-0.07182604819536209
1766402566761465600,7.679465576171875,-0.08140286058187485,0.07661445438861847,-0.10055647045373917
1766402566821585400,7.73958544921875,0.1628057211637497,-0.17238251864910126,-0.20350714027881622
1766402566831595000,7.749594970703125,0.16519992053508759,-0.22266076505184174,-0.1867477297782898
1766402566841635300,7.75963525390625,0.17238251864910126,-0.26575639843940735,-0.20111294090747833
1766402566851706000,7.7697060546875,0.1604115068912506,-0.1843535304069519,-0.14844051003456116
1766402566861746400,7.779746337890625,0.1628057211637497,-0.1149216815829277,-0.09576806426048279
1766402566881766000,7.799765869140625,0.028730420395731926,-0.22026655077934265,-0.05267243832349777
1766402566901816000,7.819816162109375,-0.002394201699644327,0.043095629662275314,0.040701430290937424
1766402566911826000,7.829825927734375,-0.0071826050989329815,0.0454898327589035,0.040701430290937424
1766402566921835500,7.83983544921875,-0.05027823522686958,0.10295066982507706,-0.12210428714752197
1766402566931875800,7.849875732421875,-0.021547814831137657,-0.15322890877723694,-0.040701430290937424
1766402566941885700,7.8598857421875,-0.06224924325942993,-0.1628057211637497,-0.06464344263076782
1766402566961905200,7.8799052734375,0.038307227194309235,-0.1388636976480484,-0.13407529890537262
1766402566971884500,7.889884521484375,-0.09816227108240128,-0.1604115068912506,-0.1388636976480484
1766402566991904000,7.909904052734375,-0.1173158809542656,0.15322890877723694,-0.21308395266532898
1766402567021933300,7.939933349609375,-0.11971008777618408,0.17238251864910126,-0.22026655077934265
1766402567031943000,7.94994287109375,0.0071826050989329815,0.2346317619085312,-0.13407529890537262
1766402567041952800,7.959952880859375,0.0071826050989329815,0.2849099934101105,-0.1843535304069519
1766402567051993000,7.9699931640625,0.0454898327589035,0.10773907601833344,-0.0933738648891449
1766402567062003000,7.9800029296875,0.08619125932455063,0.002394201699644327,-0.17477671802043915
1766402567072012500,7.990012451171875,0.14604631066322327,0.06703764945268631,-0.22744916379451752
1766402567082022400,8.0000224609375,0.06464344263076782,0.07661445438861847,-0.016759412363171577
1766402567102103000,8.02010302734375,-0.090979665517807,-0.31842881441116333,-0.023942016065120697
1766402567112112600,8.030112548828125,-0.13168109953403473,-0.3447650372982025,0.05267243832349777
1766402567122122500,8.04012255859375,-0.023942016065120697,-0.31124621629714966,0.040701430290937424
1766402567132132400,8.05013232421875,-0.023942016065120697,-0.3208230137825012,-0.023942016065120697
1766402567142203100,8.060203125,0.07422025501728058,-0.33518823981285095,0.004788403399288654
1766402567152182300,8.070182373046874,0.07182604819536209,-0.2849099934101105,0.019153613597154617
1766402567162222600,8.08022265625,0.011971008032560349,-0.3447650372982025,0.14365209639072418
1766402567172232400,8.090232421875,-0.19153612852096558,-0.6416460275650024,0.1173158809542656
1766402567182242000,8.100241943359375,-0.22026655077934265,-0.7876923680305481,0.12928688526153564
1766402567222250800,8.140250732421874,-0.27054479718208313,-0.3447650372982025,0
1766402567232260400,8.15026025390625,-0.27054479718208313,-0.1843535304069519,-0.033518824726343155
1766402567242270200,8.160270263671874,-0.272938996553421,-0.08379705995321274,-0.028730420395731926
1766402567252341000,8.170341064453124,-0.22026655077934265,0.043095629662275314,-0.1149216815829277
1766402567262381300,8.18038134765625,-0.07422025501728058,0.05506663769483566,-0.1628057211637497
1766402567272391000,8.190390869140625,-0.004788403399288654,0.1149216815829277,-0.14604631066322327
1766402567282400800,8.20040087890625,-0.038307227194309235,0.17956513166427612,-0.023942016065120697
1766402567292441000,8.210441162109374,-0.10055647045373917,0,-0.08619125932455063
1766402567312491000,8.230490966796875,-0.08379705995321274,-0.06703764945268631,0.12210428714752197
1766402567322500900,8.2405009765625,0,0.023942016065120697,0.13407529890537262
1766402567332510700,8.2505107421875,0.019153613597154617,-0.15322890877723694,0.1173158809542656
1766402567342520300,8.260520263671875,-0.06224924325942993,-0.3208230137825012,0.10295066982507706
1766402567352530200,8.2705302734375,-0.023942016065120697,-0.2849099934101105,0.14365209639072418
1766402567362540000,8.2805400390625,0.08140286058187485,-0.26575639843940735,0.05746084079146385
1766402567372549600,8.290549560546875,0.16998831927776337,-0.24899697303771973,-0.1173158809542656
1766402567382620400,8.300620361328125,0.090979665517807,-0.37828385829925537,-0.06703764945268631
1766402567392599800,8.310599853515624,0.035913024097681046,-0.47644615173339844,-0.15562310814857483
1766402567402609400,8.320609375,0.028730420395731926,-0.5267243981361389,-0.14604631066322327
1766402567432638700,8.350638671875,0.18914192914962769,-0.1628057211637497,0.05985504388809204
1766402567442648600,8.360648681640624,0.26815059781074524,-0.08140286058187485,0.21547815203666687
1766402567452658400,8.370658447265624,0.3016694188117981,-0.22744916379451752,0.1173158809542656
1766402567462668000,8.38066796875,0.2968810200691223,-0.13407529890537262,0.3064578175544739
1766402567472678000,8.390677978515624,0.24660277366638184,-0.22026655077934265,0.19632454216480255
1766402567482687700,8.400687744140624,0.10295066982507706,-0.4118026793003082,0.06464344263076782
1766402567492697300,8.410697265625,-0.026336219161748886,-0.45010992884635925,-0.16998831927776337
1766402567502737700,8.420737548828125,-0.11971008777618408,-0.3064578175544739,-0.22505496442317963
1766402567542807300,8.460807373046874,-0.2106897532939911,-0.08858546614646912,-0.05027823522686958
1766402567552817200,8.470817138671874,-0.2992752194404602,-0.16519992053508759,-0.10295066982507706
1766402567572836600,8.490836669921874,-0.4572925269603729,-0.5147533416748047,0.004788403399288654
1766402567582877000,8.500876953125,-0.31364041566848755,-0.4165911078453064,-0.12210428714752197
1766402567592886500,8.510886474609375,-0.21547815203666687,-0.5219359993934631,-0.16998831927776337
1766402567602896400,8.520896484375,-0.12210428714752197,-0.43335050344467163,-0.17956513166427612
1766402567612906200,8.53090625,-0.24420857429504395,-0.2801215946674347,-0.1867477297782898
1766402567622915800,8.540915771484375,-0.2585737705230713,-0.26575639843940735,-0.20350714027881622
1766402567632956200,8.5509560546875,-0.3064578175544739,-0.038307227194309235,-0.11971008777618408
1766402567642966000,8.560966064453124,-0.2992752194404602,-0.12210428714752197,-0.08140286058187485
1766402567652975600,8.5709755859375,-0.2849099934101105,-0.2585737705230713,-0.08619125932455063
1766402567662985500,8.5809853515625,-0.21787235140800476,-0.24660277366638184,-0.038307227194309235
1766402567672995300,8.590995361328124,-0.1843535304069519,-0.23942017555236816,-0.08140286058187485
1766402567683005000,8.6010048828125,-0.038307227194309235,-0.3519476354122162,-0.12449848651885986
1766402567693014800,8.611014892578124,-0.090979665517807,-0.5937620401382446,-0.2825157940387726
1766402567703024600,8.621024658203124,0.07182604819536209,-0.8571242094039917,-0.3519476354122162
1766402567713034200,8.6310341796875,0.1867477297782898,-1.0965443849563599,-0.7110779285430908
1766402567723044000,8.641044189453124,0.2849099934101105,-1.3551181554794312,-1.1492167711257935
1766402567743094000,8.661093994140625,0.05027823522686958,-3.1890766620635986,-2.2577321529388428
1766402567753104000,8.671103759765625,-0.09816227108240128,-4.307168960571289,-2.959233283996582
1766402567763144200,8.681144287109374,-0.2777273952960968,-5.190629482269287,-3.8067808151245117
1766402567773184500,8.6911845703125,-0.26575639843940735,-5.683835029602051,-5.023035049438477
1766402567783194000,8.701194091796875,0.1412578970193863,-5.152322292327881,-6.962338447570801
1766402567793173500,8.711173583984374,0.5363011956214905,-4.041412353515625,-8.700529098510742
1766402567803183400,8.721183349609374,1.0606313943862915,-2.2864625453948975,-9.931148529052734
1766402567813223400,8.731223388671875,1.7573440074920654,-0.8738836050033569,-9.66299819946289
1766402567823263700,8.741263671875,1.9847931861877441,-0.043095629662275314,-8.015787124633789
1766402567833273600,8.751273681640624,1.9177556037902832,0.4118026793003082,-6.2632317543029785
1766402567843314000,8.76131396484375,1.6136919260025024,0.6847416758537292,-5.006275653839111
1766402567853323500,8.771323486328125,1.4221558570861816,0.811634361743927,-4.960785865783691
1766402567863333400,8.78133349609375,1.2306196689605713,1.9249382019042969,-5.238513469696045
1766402567873343200,8.79134326171875,0.9241618514060974,2.52109432220459,-5.717353820800781
1766402567883352800,8.801352783203125,0.9457096457481384,3.7612907886505127,-6.009446144104004
1766402567893362700,8.81136279296875,0.950498104095459,5.104437828063965,-5.461174011230469
1766402567903372500,8.82137255859375,0.8690952062606812,5.767632007598877,-4.881777286529541
1766402567913382100,8.831382080078125,0.5793967843055725,5.17626428604126,-4.228160381317139
1766402567933462800,8.851462890625,0.5961562395095825,2.1571757793426514,-3.665522813796997
1766402567943472600,8.86147265625,0.24181437492370605,1.8363527059555054,-3.1100680828094482
1766402567953482200,8.871482177734375,-0.40462008118629456,2.1332337856292725,-2.0638017654418945
1766402567963492000,8.8814921875,-0.42377370595932007,2.293645143508911,-1.070208191871643
1766402567973532400,8.891532470703124,-0.272938996553421,2.2840683460235596,-0.33758243918418884
1766402567983572700,8.90157275390625,-0.021547814831137657,2.0446481704711914,0.19393034279346466
1766402567993552000,8.9115517578125,0.3208230137825012,1.680729627609253,0.6344634294509888
1766402568003561700,8.921561767578124,0.22505496442317963,1.2330138683319092,1.0630255937576294
1766402568013602000,8.93160205078125,0.28730419278144836,1.1779472827911377,1.8124107122421265
1766402568023611600,8.941611572265625,0.38307225704193115,1.4293384552001953,2.585737943649292
1766402568033652000,8.95165185546875,0.21787235140800476,1.3982137441635132,3.2369606494903564
1766402568053702100,8.9717021484375,0.019153613597154617,0.950498104095459,4.623203277587891
1766402568063742200,8.9817421875,-0.3734954595565796,-0.12449848651885986,5.530605792999268
1766402568073782500,8.991782470703125,-0.3878606855869293,-1.8842366933822632,6.385335922241211
1766402568083792400,9.00179248046875,-0.05027823522686958,-3.864241600036621,6.993463039398193
1766402568093802200,9.01180224609375,0.28969839215278625,-5.810727596282959,6.9695210456848145
1766402568103842300,9.02184228515625,0.2059013396501541,-6.730101108551025,6.801927089691162
1766402568113821700,9.03182177734375,-0.07900865375995636,-6.4595561027526855,6.502651691436768
1766402568123862000,9.041862060546874,-1.2186486721038818,-5.284003257751465,6.191405773162842
1766402568153860900,9.07186083984375,-4.965574264526367,-1.8052281141281128,7.1490864753723145
1766402568163931600,9.081931640625,-5.659893035888672,-1.8555063009262085,7.422025203704834
1766402568173910800,9.091910888671874,-5.288791656494141,-2.315192937850952,7.101202011108398
1766402568183920600,9.101920654296874,-4.371812343597412,-1.6711528301239014,6.670246124267578
1766402568193991400,9.111991455078124,-3.1100680828094482,-0.4620809257030487,5.980715751647949
1766402568204001000,9.1220009765625,-1.8626888990402222,0.14365209639072418,5.264849662780762
1766402568214071800,9.13207177734375,-0.16519992053508759,0.19632454216480255,4.685452938079834
1766402568224081700,9.14208154296875,1.5945383310317993,-0.09576806426048279,3.095702886581421
1766402568234091500,9.152091552734374,2.8131868839263916,-1.173158884048462,1.1899182796478271
1766402568264151300,9.1821513671875,10.47702693939209,3.557783842086792,-4.642356872558594
1766402568274161200,9.1921611328125,9.188945770263672,3.9911341667175293,-4.685452938079834
1766402568294241500,9.212241455078125,5.2672438621521,2.454056739807129,-3.5266590118408203
1766402568304251400,9.22225146484375,3.5865142345428467,0.8858546018600464,-3.179499864578247
1766402568314291700,9.232291748046874,1.7884687185287476,0.6129156351089478,-2.7461493015289307
1766402568324301300,9.24230126953125,1.0271124839782715,1.1851298809051514,-2.4827871322631836
1766402568344321000,9.262321044921874,1.3838485479354858,2.166752576828003,-2.4372973442077637
1766402568354330600,9.27233056640625,1.2713210582733154,2.1092917919158936,-2.408566951751709
1766402568364340500,9.282340576171874,2.4468741416931152,1.256955862045288,-3.3423056602478027
1766402568374350300,9.292350341796874,3.294421434402466,1.0893617868423462,-4.383783340454102
1766402568384360000,9.30235986328125,4.369418144226074,1.192312479019165,-5.125985622406006
1766402568394369800,9.312369873046874,4.513070106506348,1.5921441316604614,-5.279214859008789
1766402568404379600,9.322379638671874,3.7205893993377686,1.1444283723831177,-5.25527286529541
1766402568414389200,9.33238916015625,2.2457611560821533,1.1180921792984009,-4.565742492675781
1766402568424399000,9.342399169921874,1.0438719987869263,0.7374141216278076,-3.5458126068115234
1766402568434409000,9.352408935546874,0.2561795711517334,-0.06224924325942993,-3.4093432426452637
1766402568464468700,9.38246875,0.7781155705451965,-0.31364041566848755,-4.481945514678955
1766402568474478300,9.392478271484375,0.912190854549408,0.3902548849582672,-4.244919776916504
1766402568484518700,9.4025185546875,0.6105214357376099,1.194706678390503,-4.060565948486328
1766402568494559000,9.41255908203125,0.3687070608139038,1.8076223134994507,-4.0294413566589355
1766402568504568800,9.42256884765625,0.40462008118629456,2.434903144836426,-3.7397429943084717
1766402568514578400,9.432578369140625,0.4165911078453064,2.190694570541382,-3.6583402156829834
1766402568524588300,9.44258837890625,0.05267243832349777,0.20111294090747833,-3.6391866207122803
1766402568534567400,9.4525673828125,-0.3734954595565796,-1.4676456451416016,-3.7014358043670654
1766402568544607700,9.462607666015625,0.031124621629714966,-1.2018892765045166,-3.8355112075805664
1766402568584799500,9.502799560546874,1.1540051698684692,5.623979568481445,-3.3686418533325195
1766402568594778600,9.512778564453125,1.3239935636520386,5.231330871582031,-2.9065608978271484
1766402568604788500,9.52278857421875,1.1635819673538208,3.754108190536499,-2.2146365642547607
1766402568614828800,9.532828857421874,1.1204863786697388,2.80361008644104,-1.6519991159439087
1766402568634848300,9.55284814453125,0.363918662071228,2.5115175247192383,0.24660277366638184
1766402568644888600,9.562888671875,0.5315127968788147,2.8610711097717285,0.5530605912208557
1766402568654898400,9.5728984375,0.6033388376235962,3.576937437057495,0.9672574996948242
1766402568684958200,9.602958251953124,-2.1045033931732178,-0.7326257228851318,1.2689268589019775
1766402568694998500,9.61299853515625,-3.584120035171509,-1.290474772453308,2.1571757793426514
1766402568705008000,9.623008056640625,-5.137956619262695,-1.2282254695892334,2.0661959648132324
1766402568715018000,9.63301806640625,-6.507440090179443,-0.16759411990642548,1.9728221893310547
1766402568725027800,9.64302783203125,-4.520252704620361,-0.002394201699644327,0.5937620401382446
1766402568735068000,9.65306787109375,-2.4612393379211426,0.7445967197418213,-0.272938996553421
1766402568745077800,9.663077880859374,-0.021547814831137657,1.2856862545013428,-0.9864110946655273
1766402568755087600,9.673087646484374,1.039083480834961,1.656787633895874,-0.9648633003234863
1766402568765066800,9.683066650390625,1.4484920501708984,1.5059528350830078,-0.6248866319656372
1766402568795157200,9.7131572265625,3.7421371936798096,1.2330138683319092,-1.0893617868423462
1766402568805166800,9.723166748046875,2.853888511657715,0.47884035110473633,-1.3335703611373901
1766402568815207200,9.733207275390624,1.7166426181793213,-0.2825157940387726,-1.558625340461731
1766402568825217000,9.743217041015624,0.586579442024231,-1.6879122257232666,-1.3024457693099976
1766402568835226600,9.7532265625,-0.6631938815116882,-2.011129379272461,-1.216254472732544
1766402568845236500,9.763236572265624,-1.4317326545715332,-1.1252747774124146,-1.1252747774124146
1766402568855276800,9.77327685546875,-1.5682021379470825,-0.48602294921875,-0.49559974670410156
1766402568865347600,9.78334765625,-1.656787633895874,-1.0749965906143188,-0.07182604819536209
1766402568905386500,9.823386474609375,-1.8124107122421265,-2.6216509342193604,0.7038952708244324
1766402568915396400,9.833396240234375,-1.7477672100067139,-2.1092917919158936,1.072602391242981
1766402568925436700,9.843436767578124,-1.659181833267212,-1.3742717504501343,1.3431471586227417
1766402568935477000,9.85347705078125,-1.764526605606079,-0.7015010714530945,1.3646949529647827
1766402568945486600,9.863486572265625,-1.237802267074585,0.2106897532939911,1.0414776802062988
1766402568955496400,9.873496337890625,-0.7709329724311829,1.0773907899856567,1.4700398445129395
1766402568965506300,9.88350634765625,-0.6584054827690125,1.4915876388549805,2.190694570541382
1766402568975546600,9.893546630859374,-0.8236053586006165,1.5131354331970215,1.4963760375976562
1766402569015646700,9.933646728515624,0.9864110946655273,2.473210334777832,-0.272938996553421
1766402569025687000,9.94368701171875,1.036689281463623,3.6152446269989014,0.06224924325942993
1766402569035696600,9.953696533203125,0.6224924325942993,4.642356872558594,0.15562310814857483
1766402569045706500,9.96370654296875,0.6153098344802856,5.011064052581787,0.08858546614646912
1766402569055716000,9.973716064453125,1.0199298858642578,4.613626480102539,-0.31842881441116333
1766402569065726000,9.983725830078125,1.1516109704971313,3.5889084339141846,-0.22505496442317963
1766402569075735800,9.99373583984375,1.3694833517074585,0.7086837291717529,-0.811634361743927
1766402569085776100,10.003776123046874,1.7166426181793213,-2.5258827209472656,-1.3096283674240112
1766402569135855400,10.05385546875,4.067748546600342,4.982333660125732,-2.1763293743133545
1766402569145865200,10.063865234375,3.35667085647583,5.231330871582031,-2.9664158821105957
1766402569155905500,10.073905517578124,1.6280571222305298,3.294421434402466,-2.094926595687866
1766402569165915100,10.0839150390625,1.4915876388549805,2.142810583114624,-1.6376339197158813
1766402569175955500,10.09395556640625,0.6368576288223267,1.625662922859192,-1.644816517829895
1766402569185965300,10.10396533203125,0.07422025501728058,0.7852981686592102,-1.7980455160140991
1766402569195975000,10.113974853515625,-1.5275006294250488,-0.09576806426048279,-1.1875240802764893
1766402569216025000,10.134025146484374,-1.3551181554794312,-0.5195417404174805,-1.2258312702178955
1766402569226065400,10.1440654296875,0.3902548849582672,-1.7693150043487549,-2.3558945655822754
1766402569236075000,10.154074951171875,0.28969839215278625,-2.6647465229034424,-2.583343744277954
1766402569246084900,10.1640849609375,-0.12928688526153564,-2.1595699787139893,-2.432508945465088
1766402569256094700,10.1740947265625,-1.0869675874710083,-1.702277421951294,-2.5258827209472656
1766402569266104300,10.184104248046875,-2.0015525817871094,-1.3048399686813354,-2.5689783096313477
1766402569276114200,10.1941142578125,-3.9887399673461914,-1.1516109704971313,-2.559401512145996
1766402569286124000,10.2041240234375,-4.912901878356934,-1.048660397529602,-3.3638534545898438
1766402569296133600,10.214133544921875,-4.383783340454102,-1.6519991159439087,-4.355052947998047
1766402569346213000,10.264213134765624,-4.072536945343018,-1.3958195447921753,-6.133944988250732
1766402569356222700,10.27422265625,-2.8395233154296875,-1.5705963373184204,-5.6191911697387695
1766402569366202000,10.2842021484375,-2.2433669567108154,-1.501164436340332,-4.659116744995117
1766402569376242400,10.294242431640624,-1.1755530834197998,-1.3120225667953491,-4.113238334655762
1766402569386282500,10.304282470703125,-5.293580055236816,-0.5554547905921936,-3.6535518169403076
1766402569396322800,10.31432275390625,-7.82185697555542,0.2849099934101105,-2.322375535964966
1766402569406332700,10.324332763671874,-4.122815132141113,3.8498764038085938,-2.296039342880249
1766402569416373000,10.334373046875,-2.52109432220459,4.141968727111816,-1.656787633895874
1766402569436423000,10.3544228515625,-1.2258312702178955,2.647987127304077,0.090979665517807
1766402569446402300,10.36440234375,-1.647210717201233,2.315192937850952,0.7661445140838623
1766402569456442600,10.374442626953124,-2.8802247047424316,1.86508309841156,1.5634137392044067
1766402569466421800,10.384421875,-4.548983097076416,0.33758243918418884,1.9321208000183105
1766402569476431600,10.394431640625,-4.745307922363281,-1.335964560508728,2.0470423698425293
1766402569486441200,10.404441162109375,-4.441244125366211,0.1388636976480484,1.9967641830444336
1766402569496481500,10.4144814453125,-0.7206547260284424,3.0789434909820557,1.98958158493042
1766402569506521900,10.42452197265625,-2.6024973392486572,0.14604631066322327,2.5977089405059814
1766402569556570600,10.474570556640625,2.494758129119873,0.9433154463768005,4.220977783203125
1766402569576651300,10.4946513671875,2.0470423698425293,-1.1659762859344482,5.212177276611328
1766402569586691600,10.504691650390624,1.6424223184585571,-0.5315127968788147,5.995080947875977
1766402569596701400,10.514701416015624,0.5051765441894531,-0.15801730751991272,6.57926607131958
1766402569606772200,10.524772216796874,-0.021547814831137657,0.6009446382522583,6.536170482635498
1766402569616751400,10.53475146484375,-0.090979665517807,1.4077905416488647,7.218518257141113
1766402569646841600,10.564841552734375,2.2242133617401123,4.7405195236206055,8.525752067565918
1766402569666891800,10.584891845703124,0.14604631066322327,3.3446998596191406,8.271966934204102
1766402569676901600,10.594901611328124,-1.5442601442337036,2.5546131134033203,6.447585105895996
1766402569686941700,10.604941650390625,-2.027888774871826,1.922544002532959,4.93923807144165
1766402569696951600,10.61495166015625,-0.31842881441116333,0.035913024097681046,4.462791919708252
1766402569706961400,10.62496142578125,0.5506663918495178,-1.623268723487854,3.9647979736328125
1766402569716971000,10.634970947265625,0.7206547260284424,-2.403778553009033,2.762908697128296
1766402569726980900,10.64498095703125,0.09816227108240128,-3.3901896476745605,1.6208745241165161
1766402569747000300,10.665000244140625,-0.5626373887062073,-3.315969467163086,-0.5554547905921936
1766402569777090800,10.6950908203125,0.5674257874488831,-3.4189200401306152,-4.659116744995117
1766402569787100400,10.705100341796875,0.8523358106613159,-2.410961151123047,-5.236119270324707
1766402569797110300,10.7151103515625,1.2018892765045166,-1.968033790588379,-5.918466567993164
1766402569807150600,10.725150634765624,2.2361843585968018,-1.4987702369689941,-7.237671852111816
1766402569817191000,10.73519091796875,3.7229835987091064,-2.47560453414917,-8.334216117858887
1766402569827200500,10.745200439453125,3.555389642715454,-3.5434184074401855,-9.01895809173584
1766402569847220200,10.76522021484375,2.5282769203186035,-2.96162748336792,-8.769960403442383
1766402569857229800,10.775229736328125,2.051830768585205,-2.540247917175293,-7.630321025848389
1766402569867270100,10.785270263671874,1.5179238319396973,-2.4851813316345215,-8.02536392211914
1766402569877280000,10.795280029296874,1.3311761617660522,-1.1875240802764893,-8.968679428100586
1766402569887320300,10.8053203125,2.4157495498657227,-1.3670891523361206,-8.825027465820312
1766402569897330000,10.815329833984375,3.220201253890991,-1.460463047027588,-8.149862289428711
1766402569907339800,10.82533984375,3.971980571746826,-0.35673606395721436,-7.587224960327148
1766402569917349600,10.835349609375,4.982333660125732,-0.17956513166427612,-6.464344501495361
1766402569927420400,10.84542041015625,5.25527286529541,-0.13168109953403473,-5.7556610107421875
1766402569937430000,10.855429931640625,5.353435039520264,-0.4908113479614258,-4.477157115936279
1766402569957449700,10.87544970703125,4.017470359802246,-0.8571242094039917,-2.875436305999756
1766402569967459300,10.885459228515625,2.8107926845550537,-1.6711528301239014,-2.9735984802246094
1766402569977469200,10.89546923828125,1.161187767982483,-2.1475989818573,-2.3487119674682617
1766402569987478800,10.905478759765625,0.31603461503982544,-1.7477672100067139,-1.5658079385757446
1766402569997488600,10.915488525390625,-0.1412578970193863,-1.8842366933822632,-0.706289529800415
1766402570007529000,10.925529052734374,-1.0247182846069336,-1.9297266006469727,-0.1628057211637497
1766402570017538800,10.935538818359374,-1.8986018896102905,-1.764526605606079,0.26336219906806946
1766402570027548400,10.94554833984375,-2.537853717803955,-0.9145850539207458,0.6344634294509888
1766402570037558300,10.955558349609374,-3.667917013168335,-1.8387469053268433,1.0462661981582642
1766402570057608200,10.975608154296875,-6.335057735443115,-4.02465295791626,2.255337953567505
1766402570077658400,10.995658447265624,-6.8043212890625,-3.9647979736328125,1.5729905366897583
1766402570087668200,11.005668212890624,-6.165069580078125,-3.5218706130981445,0.9840168952941895
1766402570097677800,11.015677734375,-5.161899089813232,-2.9065608978271484,0.6823474764823914
1766402570107718100,11.02571826171875,-3.557783842086792,-2.956839084625244,0.5913678407669067
1766402570117789000,11.035788818359375,-2.2433669567108154,-3.869029998779297,0.3471592366695404
1766402570127798800,11.045798828125,-1.0630255937576294,-5.2911858558654785,0.023942016065120697
1766402570137808400,11.055808349609375,-0.4620809257030487,-7.314286231994629,-0.5386953949928284
1766402570177939200,11.095939208984374,0.9097966551780701,-7.386112213134766,-3.7708675861358643
1766402570187948800,11.10594873046875,1.039083480834961,-6.107608318328857,-4.299986362457275
1766402570197989000,11.115989013671875,0.45489832758903503,-4.900930881500244,-4.027047157287598
1766402570208029400,11.126029541015624,0.3687070608139038,-4.402936935424805,-3.071760892868042
1766402570218039300,11.136039306640624,0.7015010714530945,-4.067748546600342,-2.3271639347076416
1766402570228049000,11.146048828125,1.1180921792984009,-2.7748796939849854,-1.8171991109848022
1766402570238089200,11.156089111328125,1.6089035272598267,-2.0446481704711914,-1.8698714971542358
1766402570248099000,11.16609912109375,1.699883222579956,-1.8794482946395874,-2.4229321479797363
1766402570298178300,11.21617822265625,2.22660756111145,-0.06224924325942993,-3.7660791873931885
1766402570318198000,11.236197998046874,1.9488801956176758,0.45010992884635925,-4.101267337799072
1766402570338248000,11.256248046875,0.524330198764801,2.0614075660705566,-3.1675288677215576
1766402570348257800,11.2662578125,-0.35434186458587646,2.3989901542663574,-2.75812029838562
1766402570358267400,11.276267333984375,-1.2258312702178955,2.032677173614502,-2.5306711196899414
1766402570368277200,11.28627734375,-1.647210717201233,1.3742717504501343,-2.1523873805999756
1766402570378287000,11.296287109375,-1.6136919260025024,1.3934253454208374,-2.252943754196167
1766402570398337000,11.3163369140625,-2.099714994430542,1.702277421951294,-2.123656988143921
1766402570408347000,11.326346923828124,-2.3702597618103027,1.7190368175506592,-2.3750481605529785
1766402570418387200,11.33638720703125,-2.5929205417633057,1.6735470294952393,-2.851494312286377
1766402570428396800,11.346396728515625,-2.7988216876983643,1.5514427423477173,-3.1866824626922607
1766402570438406700,11.35640673828125,-3.2369606494903564,1.501164436340332,-3.3854012489318848
1766402570448416500,11.36641650390625,-3.557783842086792,2.0183119773864746,-3.421314239501953
1766402570458395600,11.376395751953124,-3.5625722408294678,3.1651346683502197,-3.507505416870117
1766402570468405500,11.386405517578124,-3.485957622528076,2.9927520751953125,-3.5745432376861572
1766402570478415000,11.3964150390625,-3.117250680923462,2.829946517944336,-3.428496837615967
1766402570488455400,11.406455322265625,-2.212242364883423,2.410961151123047,-2.9975404739379883
1766402570518484700,11.436484619140625,-0.035913024097681046,1.7884687185287476,-3.071760892868042
1766402570528525000,11.446525146484374,0.17238251864910126,1.6136919260025024,-2.542642116546631
1766402570538535000,11.456534912109374,0.40701428055763245,1.6950948238372803,-2.011129379272461
1766402570548575000,11.466574951171875,1.0079588890075684,1.8722656965255737,-1.824381709098816
1766402570558584800,11.476584716796875,1.4700398445129395,1.7094600200653076,-1.7262194156646729
1766402570568625200,11.486625244140624,1.4508862495422363,1.7142484188079834,-1.7118542194366455
1766402570578635000,11.496635009765624,1.702277421951294,1.2737152576446533,-1.6112977266311646
1766402570628744700,11.54674462890625,1.5466543436050415,1.9919757843017578,-0.2968810200691223
1766402570638754600,11.556754638671874,1.414973258972168,1.335964560508728,0.08379705995321274
1766402570648764400,11.566764404296874,1.2282254695892334,0.7182605266571045,0.2801215946674347
1766402570658804500,11.576804443359375,0.8667010068893433,0.6392518281936646,0.15801730751991272
1766402570668844800,11.5868447265625,0.17717093229293823,0.8906430602073669,-0.22026655077934265
1766402570678854700,11.596854736328124,-0.689530074596405,0.4668693244457245,-0.19632454216480255
1766402570708884000,11.626884033203124,-2.0015525817871094,-0.8643068075180054,0.28969839215278625
1766402570718893800,11.636893798828124,-1.6496049165725708,-0.8571242094039917,0.17477671802043915
1766402570728934000,11.646933837890625,-1.2114660739898682,-1.1324573755264282,-0.05027823522686958
1766402570738913300,11.656913330078124,-0.9193734526634216,-0.6033388376235962,0.15801730751991272
1766402570748953600,11.66695361328125,-0.9193734526634216,-0.15322890877723694,0.1388636976480484
1766402570758963200,11.676963134765625,-0.9481038451194763,0.4118026793003082,0.2585737705230713
1766402570768973000,11.68697314453125,-1.0893617868423462,-0.18914192914962769,0.3687070608139038
1766402570778983000,11.69698291015625,-0.7876923680305481,-0.3447650372982025,-0.13168109953403473
1766402570788992500,11.706992431640625,-0.49320554733276367,0.06703764945268631,-0.5171475410461426
1766402570799002400,11.71700244140625,-0.5315127968788147,-0.15801730751991272,-0.31124621629714966
1766402570849112300,11.7671123046875,-0.33039984107017517,0.19871874153614044,-0.3447650372982025
1766402570859122000,11.777121826171875,-0.28730419278144836,0.3208230137825012,-0.11971008777618408
1766402570869131800,11.7871318359375,-0.05027823522686958,0.3471592366695404,-0.11971008777618408
1766402570879141400,11.797141357421875,0.3998316824436188,-0.3208230137825012,-0.3423708379268646
1766402570889151200,11.807151123046875,0.6655880808830261,-0.6607996821403503,-0.2825157940387726
1766402570899191600,11.817191650390624,0.849941611289978,-0.5793967843055725,-0.19632454216480255
1766402570909201400,11.827201416015624,0.8930372595787048,0.016759412363171577,-0.16998831927776337
1766402570939200000,11.857199951171875,-0.22505496442317963,-0.730231523513794,0.646434485912323
1766402570949209900,11.8672099609375,-0.586579442024231,-0.7996633648872375,0.706289529800415
1766402570959219700,11.8772197265625,-1.048660397529602,-1.048660397529602,0.4812345504760742
1766402570969229300,11.887229248046875,-0.9193734526634216,-0.9648633003234863,0.2777273952960968
1766402570979208700,11.897208740234374,-0.5267243981361389,-0.7422025203704834,0.12689268589019775
1766402570989218300,11.90721826171875,-0.12210428714752197,0.26815059781074524,0.304063618183136
1766402570999228200,11.917228271484374,-0.031124621629714966,1.036689281463623,0.31603461503982544
1766402571009238000,11.927238037109374,-0.29209262132644653,1.0031704902648926,0.43335050344467163
1766402571019247600,11.93724755859375,-0.31124621629714966,0.6177040338516235,0.47644615173339844
1766402571059347700,11.97734765625,0.667982280254364,-0.49799394607543945,-0.38546648621559143
1766402571069388000,11.987387939453125,0.7374141216278076,0.21787235140800476,-0.3663128614425659
1766402571079398000,11.99739794921875,0.4381389021873474,1.015141487121582,0.011971008032560349
1766402571089407700,12.00740771484375,0.2106897532939911,0.7038952708244324,0.10295066982507706
1766402571099417300,12.017417236328125,0.304063618183136,0.3519476354122162,-0.1388636976480484
1766402571109427200,12.02742724609375,0.4812345504760742,0.22505496442317963,-0.5003881454467773
1766402571119436800,12.037436767578125,0.6200982332229614,0.08619125932455063,-0.7134721279144287
1766402571129446700,12.04744677734375,0.47884035110473633,-0.10055647045373917,-0.7805097699165344
1766402571159476000,12.07747607421875,-0.4141969084739685,0.5817909836769104,-0.2322375625371933
1766402571169485800,12.08748583984375,-0.5793967843055725,0.5506663918495178,-0.2849099934101105
1766402571179526100,12.097526123046874,-0.24899697303771973,1.1085153818130493,-0.40222588181495667
1766402571189535700,12.10753564453125,-0.12210428714752197,1.8938134908676147,-0.8858546018600464
1766402571199576000,12.117576171875,-0.11252748221158981,2.31758713722229,-1.558625340461731
1766402571209616400,12.127616455078124,-0.20350714027881622,2.3702597618103027,-1.8962076902389526
1766402571219626200,12.137626220703124,-0.40701428055763245,2.3726539611816406,-2.008735179901123
1766402571229635800,12.1476357421875,-0.7206547260284424,2.3343467712402344,-1.7573440074920654
1766402571249686000,12.16768603515625,-1.4460978507995605,2.741360902786255,-1.821987509727478
1766402571259726300,12.177726318359374,-2.073378562927246,2.4181437492370605,-2.03507137298584
1766402571269736000,12.18773583984375,-2.4588451385498047,2.2385785579681396,-1.900996208190918
1766402571279745800,12.197745849609374,-2.382230758666992,2.3127987384796143,-1.900996208190918
1766402571289816600,12.207816650390624,-2.7509377002716064,2.1978771686553955,-1.4413094520568848
1766402571299826400,12.217826416015624,-3.157952070236206,1.4939818382263184,-1.1228805780410767
1766402571309897200,12.227897216796874,-3.220201253890991,1.235408067703247,-0.6129156351089478
1766402571319937300,12.237937255859375,-3.3494882583618164,1.3096283674240112,-0.2825157940387726
1766402571329977600,12.2479775390625,-3.397372245788574,1.7693150043487549,0.07900865375995636
1766402571339987500,12.257987548828124,-3.4955344200134277,1.9847931861877441,0.5746083855628967
1766402571380087600,12.298087646484374,-3.778050184249878,-1.4891934394836426,3.4165258407592773
1766402571390097400,12.308097412109374,-2.8227639198303223,-2.3511061668395996,3.4165258407592773
1766402571400107000,12.31810693359375,-1.7118542194366455,-3.3638534545898438,3.397372245788574
1766402571410177800,12.328177734375,-0.1173158809542656,-3.8139634132385254,3.375824451446533
1766402571420187600,12.338187744140624,1.6160861253738403,-3.0310592651367188,3.3734302520751953
1766402571430197500,12.348197509765624,2.056619167327881,-3.794809579849243,3.1699230670928955
1766402571440207000,12.35820703125,1.6663644313812256,-5.872976779937744,3.5410242080688477
1766402571450247400,12.368247314453125,1.1300631761550903,-6.447585105895996,3.892971992492676
1766402571490317000,12.408317138671874,3.1483752727508545,-5.080495834350586,0.8212111592292786
1766402571500296200,12.418296142578125,3.646369218826294,-3.8953661918640137,0.6009446382522583
1766402571510306000,12.42830615234375,3.8091750144958496,-2.7054479122161865,0.7110779285430908
1766402571520316000,12.43831591796875,3.49314022064209,-1.9800047874450684,0.4668693244457245
1766402571530325500,12.448325439453125,2.097320795059204,-2.494758129119873,-0.1412578970193863
1766402571540305000,12.458304931640624,1.86508309841156,-1.9943699836730957,-0.9217676520347595
1766402571550345200,12.46834521484375,1.843535304069519,-0.43095630407333374,-1.702277421951294
1766402571570395100,12.48839501953125,1.8722656965255737,0.15083470940589905,-2.123656988143921
1766402571580405000,12.498405029296874,1.9991583824157715,0.42616790533065796,-2.4803929328918457
1766402571590445300,12.5084453125,1.8579005002975464,0.751779317855835,-2.779668092727661
1766402571600455000,12.518454833984375,1.1109095811843872,0.811634361743927,-2.4612393379211426
1766402571610495200,12.5284951171875,0.35913026332855225,0.6177040338516235,-2.4157495498657227
1766402571620505000,12.538505126953124,0.17956513166427612,0.49559974670410156,-2.734178304672241
1766402571630484200,12.548484130859375,0.7326257228851318,0.993593692779541,-2.875436305999756
1766402571640494000,12.558494140625,0.6009446382522583,1.1037269830703735,-2.7054479122161865
1766402571650534400,12.568534423828124,-0.0454898327589035,1.3886369466781616,-2.403778553009033
1766402571680624600,12.598624755859374,-0.5961562395095825,0.8738836050033569,-1.5538369417190552
1766402571690665000,12.6086650390625,-0.6823474764823914,0.6871358752250671,-1.2880805730819702
1766402571700674800,12.6186748046875,-0.3998316824436188,0.9361328482627869,-1.115697979927063
1766402571710715000,12.62871484375,0.19153612852096558,1.4652514457702637,-0.8547300100326538
1766402571720724700,12.638724853515624,0.2585737705230713,1.625662922859192,-0.5913678407669067
1766402571730734600,12.648734619140624,0.30885201692581177,1.37906014919281,-0.24420857429504395
1766402571740775000,12.65877490234375,-0.033518824726343155,1.0558429956436157,0.033518824726343155
1766402571750784500,12.668784423828125,-0.3495534360408783,0.828393816947937,0.23942017555236816
1766402571790793200,12.708793212890624,-1.5275006294250488,0.3998316824436188,0.6009446382522583
1766402571800802800,12.718802734375,-0.9026140570640564,0.5530605912208557,0.6416460275650024
1766402571810812700,12.728812744140624,-0.4668693244457245,0.4836287498474121,0.6536170840263367
1766402571820822500,12.738822509765624,-0.07900865375995636,0.07182604819536209,0.48602294921875
1766402571840872400,12.75887255859375,0.8212111592292786,0.3495534360408783,0.17477671802043915
1766402571850882300,12.76888232421875,0.3878606855869293,0.15801730751991272,0.28730419278144836
1766402571880911600,12.79891162109375,0.035913024097681046,0.07182604819536209,-0.1364694982767105
1766402571900931000,12.81893115234375,0.6799532771110535,-0.31364041566848755,-0.3495534360408783
1766402571910941000,12.82894091796875,1.036689281463623,-0.3471592366695404,-0.7326257228851318
1766402571920981000,12.83898095703125,1.2497732639312744,-0.31842881441116333,-1.170764684677124
1766402571930990800,12.848990966796874,0.9169792532920837,-0.019153613597154617,-1.1755530834197998
1766402571941000700,12.859000732421874,-0.12689268589019775,0.44771572947502136,-0.8738836050033569
1766402571951010300,12.86901025390625,-0.8427590131759644,0.2849099934101105,-0.47644615173339844
1766402571981039600,12.89903955078125,-0.2753331959247589,1.1779472827911377,-0.20111294090747833
1766402572031119000,12.949119140625,-0.1173158809542656,1.3670891523361206,-1.1204863786697388
1766402572041128700,12.959128662109375,-0.08619125932455063,1.2306196689605713,-1.659181833267212
1766402572051169000,12.9691689453125,-0.2849099934101105,1.0031704902648926,-2.3774423599243164
1766402572061179000,12.979178955078124,-0.2561795711517334,1.1683704853057861,-3.1316158771514893
1766402572081198300,12.9991982421875,0.24899697303771973,1.6855180263519287,-4.548983097076416
1766402572101217800,13.0192177734375,0.4908113479614258,2.4684219360351562,-5.382165431976318
1766402572111227600,13.0292275390625,0.33518823981285095,2.806004285812378,-5.853823184967041
1766402572121207000,13.03920703125,0.2322375625371933,3.160346269607544,-6.102819919586182
1766402572131247000,13.0492470703125,0.0071826050989329815,2.8993782997131348,-6.291962146759033
1766402572141257000,13.059257080078124,-1.357512354850769,1.4867992401123047,-6.742072105407715
1766402572151266800,13.069266845703124,-1.9919757843017578,1.173158884048462,-6.988674640655518
1766402572161276400,13.0792763671875,-2.250549554824829,1.1563993692398071,-6.677428722381592
1766402572171286300,13.089286376953124,-1.9704279899597168,0.8475474119186401,-6.296750545501709
1766402572201315600,13.119315673828124,-0.10773907601833344,3.0597896575927734,-6.00226354598999
1766402572211325400,13.129325439453124,-0.7038952708244324,2.4660277366638184,-5.535394191741943
1766402572221335000,13.1393349609375,-1.3503297567367554,1.4963760375976562,-4.841075897216797
1766402572231345000,13.149344970703124,-1.7357962131500244,0.3256114423274994,-4.173093795776367
1766402572241354800,13.159354736328124,-2.183511972427368,-0.3926490843296051,-3.6367924213409424
1766402572251394800,13.169394775390625,-2.8634653091430664,-1.414973258972168,-3.469198226928711
1766402572261404700,13.17940478515625,-3.2154128551483154,-2.671929121017456,-3.2178070545196533
1766402572271445000,13.189445068359374,-2.6216509342193604,-3.40216064453125,-2.5330653190612793
1766402572291464400,13.20946435546875,-1.4437036514282227,-0.5099649429321289,0.10055647045373917
1766402572301474300,13.219474365234374,-1.0821791887283325,0.7015010714530945,1.9919757843017578
1766402572311484200,13.229484130859374,-1.3694833517074585,0.689530074596405,3.576937437057495
1766402572321493800,13.23949365234375,-2.2816741466522217,-1.0606313943862915,4.2544965744018555
1766402572331503600,13.249503662109374,-3.28963303565979,-3.957615375518799,3.1675288677215576
1766402572341513200,13.25951318359375,-3.5458126068115234,-7.086836814880371,1.1875240802764893
1766402572351523000,13.269523193359374,-3.44765043258667,-8.145073890686035,0.05267243832349777
1766402572361533000,13.279532958984374,-3.0837318897247314,-6.94079065322876,0.23942017555236816
1766402572371573200,13.2895732421875,-2.0422539710998535,-4.766855716705322,1.5705963373184204
1766402572381552400,13.299552490234374,-0.871489405632019,-2.209848165512085,3.7205893993377686
1766402572411642600,13.329642578125,1.0893617868423462,0.05506663769483566,3.0406360626220703
1766402572421652500,13.339652587890624,1.0965443849563599,-0.9217676520347595,1.137245774269104
1766402572431692800,13.34969287109375,1.048660397529602,-3.00711727142334,-0.1843535304069519
1766402572441702700,13.35970263671875,0.7613561153411865,-3.8977603912353516,-0.5985504388809204
1766402572451712300,13.369712158203125,0.5315127968788147,-3.6343982219696045,-0.4668693244457245
1766402572461722000,13.37972216796875,0.3256114423274994,-3.509899616241455,-0.19871874153614044
1766402572471731700,13.389731689453125,0.13407529890537262,-3.1196448802948,0.10773907601833344
1766402572481741600,13.399741455078125,-0.10773907601833344,-2.6791117191314697,0.33758243918418884
1766402572491751400,13.40975146484375,-0.30885201692581177,-2.360682964324951,0.5482721924781799
1766402572501730600,13.41973046875,-0.33279404044151306,-2.537853717803955,0.6871358752250671
1766402572531821000,13.449821044921874,0.2561795711517334,-5.985504150390625,0.17956513166427612
1766402572541830700,13.45983056640625,0.790086567401886,-5.9088897705078125,-0.524330198764801
1766402572551871000,13.46987109375,1.3215993642807007,-4.991910457611084,-1.0295066833496094
1766402572561850400,13.479850341796874,1.8722656965255737,-3.533841609954834,-1.1492167711257935
1766402572571890400,13.489890380859375,2.2649147510528564,-2.470816135406494,-1.213860273361206
1766402572581930800,13.4999306640625,2.9041666984558105,-1.8986018896102905,-1.5658079385757446
1766402572591940600,13.509940673828124,2.9735984802246094,-1.4508862495422363,-1.7405846118927002
1766402572601950500,13.519950439453124,3.380612850189209,-1.6136919260025024,-2.078166961669922
1766402572631979500,13.5499794921875,3.066972494125366,-0.8331822156906128,-2.6862943172454834
1766402572642019800,13.560019775390625,2.8610711097717285,0.08858546614646912,-2.7557260990142822
1766402572652060200,13.57006005859375,2.650381326675415,0.5315127968788147,-2.6862943172454834
1766402572662039600,13.58003955078125,2.367865562438965,0.5554547905921936,-2.5115175247192383
1766402572672079600,13.59007958984375,2.073378562927246,0.3687070608139038,-2.231395959854126
1766402572682089500,13.60008935546875,1.7501614093780518,0.3974374830722809,-2.051830768585205
1766402572692129800,13.6101298828125,1.6112977266311646,0.5482721924781799,-1.9177556037902832
1766402572702170000,13.620170166015624,1.436521053314209,0.768538773059845,-1.6639702320098877
1766402572712179700,13.6301796875,1.3766659498214722,0.8906430602073669,-1.4891934394836426
1766402572722189600,13.640189453125,1.216254472732544,0.6631938815116882,-1.1779472827911377
1766402572732199400,13.650199462890624,1.1851298809051514,0.646434485912323,-1.1013327836990356
1766402572742209000,13.660208984375,1.0247182846069336,0.40701428055763245,-1.0127472877502441
1766402572752219000,13.670218994140624,0.9074024558067322,-0.043095629662275314,-0.7924807667732239
1766402572762228700,13.680228759765624,0.7110779285430908,-0.4572925269603729,-0.5506663918495178
1766402572772238300,13.69023828125,0.6344634294509888,-0.9481038451194763,-0.2537853717803955
1766402572782248200,13.700248291015624,0.5099649429321289,-1.2042834758758545,-0.08619125932455063
1766402572792288500,13.71028857421875,0.44532153010368347,-1.2210428714752197,-0.09816227108240128
1766402572802298400,13.72029833984375,0.42377370595932007,-1.290474772453308,-0.19871874153614044
1766402572812308000,13.730307861328125,0.2561795711517334,-1.3551181554794312,-0.42616790533065796
1766402572852347100,13.77034716796875,-0.19871874153614044,-0.8667010068893433,-0.5554547905921936
1766402572862387500,13.780387451171874,-0.3519476354122162,-1.0295066833496094,-0.5578489899635315
1766402572872397000,13.79039697265625,-0.569819986820221,-1.2473790645599365,-0.49320554733276367
1766402572882437400,13.800437255859375,-0.7254431247711182,-1.338358759880066,-0.35673606395721436
1766402572892477700,13.810477783203124,-0.9911994934082031,-1.359906554222107,-0.3232172429561615
1766402572902487600,13.820487548828124,-1.338358759880066,-1.072602391242981,-0.19393034279346466
1766402572912527600,13.830527587890625,-1.4101848602294922,-0.7541735172271729,-0.035913024097681046
1766402572942618000,13.8606181640625,-1.5275006294250488,-0.3519476354122162,-0.031124621629714966
1766402572952627700,13.870627685546875,-1.4197616577148438,0.05985504388809204,0.07422025501728058
1766402572962637600,13.880637451171875,-1.2330138683319092,0.2059013396501541,0.20111294090747833
1766402572972647400,13.8906474609375,-1.1085153818130493,0.20111294090747833,0.2944868206977844
1766402572982657000,13.900656982421875,-0.9600749015808105,0.05506663769483566,0.4381389021873474
1766402572992667000,13.9106669921875,-0.6440402865409851,-0.42856210470199585,0.44532153010368347
1766402573012717000,13.930717041015624,-0.21308395266532898,-0.7350199222564697,0.0454898327589035
1766402573032736500,13.950736572265624,-0.035913024097681046,-0.7038952708244324,-0.7541735172271729
1766402573042746400,13.960746337890624,-0.12449848651885986,-0.16519992053508759,-0.9193734526634216
1766402573052786400,13.970786376953125,-0.1867477297782898,0.22744916379451752,-0.849941611289978
1766402573062796300,13.98079638671875,-0.26096799969673157,0.4812345504760742,-0.6631938815116882
1766402573072806100,13.99080615234375,-0.31842881441116333,0.706289529800415,-0.43335050344467163
1766402573082815700,14.000815673828125,-0.23702596127986908,0.8307880163192749,-0.11971008777618408
1766402573092825600,14.01082568359375,-0.12928688526153564,0.4381389021873474,-0.014365210197865963
1766402573102835500,14.02083544921875,-0.181959331035614,0.28730419278144836,0.19153612852096558
1766402573112845000,14.030844970703125,-0.019153613597154617,0.2585737705230713,0.26336219906806946
1766402573122885400,14.040885498046874,0.14604631066322327,0.20350714027881622,0.2106897532939911
1766402573152945200,14.070945068359375,0.689530074596405,-0.24181437492370605,0.14365209639072418
1766402573163016000,14.081015869140625,0.7350199222564697,-0.3926490843296051,0.019153613597154617
1766402573172964900,14.09096484375,0.8188169598579407,-0.3734954595565796,-0.13168109953403473
1766402573182974500,14.100974365234375,0.828393816947937,-0.11252748221158981,-0.038307227194309235
1766402573192984300,14.110984375,0.790086567401886,0.033518824726343155,0
1766402573202994000,14.120993896484375,0.6727706789970398,0.06464344263076782,0.1412578970193863
1766402573213034200,14.1310341796875,0.5363011956214905,0.043095629662275314,0.31842881441116333
1766402573223044000,14.141044189453124,0.5506663918495178,-0.019153613597154617,0.4118026793003082
1766402573233084400,14.15108447265625,0.5099649429321289,0.0071826050989329815,0.47405192255973816
1766402573243094000,14.161093994140625,0.629675030708313,-0.2298433631658554,0.2082955539226532
1766402573273184500,14.1911845703125,0.8140285611152649,0.08619125932455063,0.14604631066322327
1766402573293234400,14.211234375,0.7422025203704834,0.5434837937355042,0.31842881441116333
1766402573303305200,14.22130517578125,0.5817909836769104,0.5674257874488831,0.5099649429321289
1766402573313345500,14.231345458984375,0.507570743560791,0.4165911078453064,0.6344634294509888
1766402573323325000,14.241324951171874,0.47644615173339844,0.19153612852096558,0.6105214357376099
1766402573333334500,14.25133447265625,0.3711012601852417,-0.038307227194309235,0.35673606395721436
1766402573363363800,14.28136376953125,0.3926490843296051,-0.13407529890537262,0.5554547905921936
1766402573373373700,14.291373779296874,0.3016694188117981,-0.31364041566848755,0.6009446382522583
1766402573393362700,14.31136279296875,0.2059013396501541,-0.9097966551780701,0.49559974670410156
1766402573423422500,14.34142236328125,0.33279404044151306,-0.7661445140838623,-0.3663128614425659
1766402573433493200,14.3514931640625,0.22026655077934265,-0.44771572947502136,-0.2968810200691223
1766402573443442000,14.36144189453125,0.20111294090747833,0.014365210197865963,-0.24899697303771973
1766402573473502000,14.391501953125,0.3016694188117981,0.5746083855628967,-0.07422025501728058
1766402573483481000,14.401481201171874,0.19153612852096558,0.6344634294509888,-0.033518824726343155
1766402573493521400,14.411521484375,0.038307227194309235,0.42616790533065796,0.019153613597154617
1766402573503561700,14.421561767578124,-0.09816227108240128,0.040701430290937424,0.035913024097681046
1766402573513571300,14.4315712890625,-0.15322890877723694,-0.24181437492370605,-0.031124621629714966
1766402573523550700,14.44155078125,-0.14604631066322327,-0.47644615173339844,-0.22266076505184174
1766402573533591000,14.451591064453124,-0.09576806426048279,-0.6991068720817566,-0.47405192255973816
1766402573543661800,14.461661865234374,-0.18914192914962769,-0.7541735172271729,-0.6584054827690125
1766402573553702100,14.4717021484375,-0.22505496442317963,-0.7254431247711182,-0.8188169598579407
1766402573573752000,14.491751953125,-0.0454898327589035,-0.751779317855835,-1.1109095811843872
1766402573583762000,14.501761962890624,0.13407529890537262,-0.7493851184844971,-1.2282254695892334
1766402573593802200,14.51180224609375,0.3878606855869293,-0.730231523513794,-1.3910311460494995
1766402573603811800,14.521811767578125,0.4812345504760742,-0.7589619159698486,-1.5538369417190552
1766402573613821700,14.53182177734375,0.40222588181495667,-0.8619126081466675,-1.577778935432434
1766402573623831600,14.54183154296875,0.2585737705230713,-0.8475474119186401,-1.7310078144073486
1766402573633871600,14.55187158203125,0.002394201699644327,-0.7757213711738586,-1.7477672100067139
1766402573643881500,14.561881591796874,-0.1867477297782898,-0.45250412821769714,-1.6663644313812256
1766402573653921800,14.571921875,-0.19632454216480255,-0.22266076505184174,-1.5849615335464478
1766402573693991400,14.611991455078124,-0.12449848651885986,0.40462008118629456,-1.3670891523361206
1766402573704001000,14.6220009765625,-0.22266076505184174,0.5506663918495178,-1.1971008777618408
1766402573714011000,14.632010986328124,-0.363918662071228,0.7086837291717529,-0.9888052940368652
1766402573723990000,14.641989990234375,-0.21308395266532898,0.6224924325942993,-0.6344634294509888
1766402573734030300,14.6520302734375,-0.14604631066322327,0.3926490843296051,-0.4668693244457245
1766402573744040200,14.662040283203124,-0.13407529890537262,0.035913024097681046,-0.30885201692581177
1766402573754050000,14.672050048828124,-0.09816227108240128,-0.07422025501728058,-0.06703764945268631
1766402573784140300,14.702140380859374,0.1867477297782898,-0.22744916379451752,0.22505496442317963
1766402573794150100,14.712150146484374,0.33758243918418884,-0.181959331035614,0.2513911724090576
1766402573804129300,14.72212939453125,0.5722141861915588,-0.11013327538967133,0.4141969084739685
1766402573824179500,14.742179443359374,1.213860273361206,-0.5961562395095825,1.0127472877502441
1766402573834219500,14.752219482421875,1.2713210582733154,-1.403002142906189,1.0654197931289673
1766402573844290300,14.762290283203125,1.4293384552001953,-2.0590133666992188,1.2665326595306396
1766402573854300200,14.772300048828125,1.7070658206939697,-2.8203697204589844,1.8100165128707886
1766402573884329500,14.80232958984375,2.0231003761291504,-4.307168960571289,2.82515811920166
1766402573904349000,14.822348876953125,2.3271639347076416,-4.458003520965576,3.318363666534424
1766402573914358800,14.83235888671875,2.4396915435791016,-4.175487995147705,3.5386300086975098
1766402573924368600,14.84236865234375,2.403778553009033,-4.151545524597168,3.5960910320281982
1766402573934378200,14.852378173828125,1.9536685943603516,-3.1244332790374756,3.7229835987091064
1766402573944388000,14.86238818359375,1.4987702369689941,-2.3774423599243164,3.912125587463379
1766402573954398000,14.87239794921875,1.1875240802764893,-2.1308395862579346,4.017470359802246
1766402573964407600,14.882407470703125,0.6703764796257019,-2.434903144836426,4.2951979637146
1766402574004446700,14.92244677734375,-0.45489832758903503,-1.9776105880737305,2.853888511657715
1766402574024496600,14.94249658203125,-0.19153612852096558,-1.3024457693099976,2.229001760482788
1766402574034506500,14.952506591796874,-0.06464344263076782,-1.0342950820922852,2.183511972427368
1766402574044516400,14.962516357421874,-0.15083470940589905,-0.8762778043746948,1.8100165128707886
1766402574054556400,14.972556396484375,-0.24181437492370605,-0.7996633648872375,1.1324573755264282
1766402574064566300,14.982566162109375,-0.3926490843296051,-0.6320692300796509,0.47165772318840027
1766402574074576100,14.992576171875,-0.7422025203704834,-0.3471592366695404,0.2346317619085312
1766402574104636000,15.022635986328124,-1.455674648284912,-0.17956513166427612,0.22744916379451752
1766402574114645800,15.032645751953124,-0.9792284965515137,0.19871874153614044,-0.06464344263076782
1766402574124655400,15.0426552734375,-0.45250412821769714,0.05267243832349777,-0.43095630407333374
1766402574134665200,15.052665283203124,-0.09816227108240128,0.3064578175544739,-0.7422025203704834
1766402574144675000,15.062675048828124,0.05746084079146385,0.7493851184844971,-1.0103530883789062
1766402574154684700,15.0726845703125,-0.26096799969673157,1.7956513166427612,-1.2832920551300049
1766402574164694500,15.082694580078124,-0.9768342971801758,2.5115175247192383,-1.05105459690094
1766402574204733400,15.1227333984375,-1.4053963422775269,2.607285737991333,-1.7908629179000854
1766402574214743300,15.132743408203124,-0.8690952062606812,3.114856481552124,-2.2577321529388428
1766402574224753200,15.142753173828124,-0.22266076505184174,3.7828385829925537,-2.535459518432617
1766402574234762800,15.1527626953125,0.1173158809542656,3.7277719974517822,-2.47560453414917
1766402574244772600,15.162772705078124,0.09816227108240128,3.7636849880218506,-2.7724854946136475
1766402574254873900,15.172873779296875,0.07422025501728058,3.9193081855773926,-2.7964274883270264
1766402574264944600,15.182944580078125,-0.26815059781074524,3.4979286193847656,-2.7964274883270264
1766402574274954500,15.19295458984375,-0.47884035110473633,2.937685489654541,-2.6886885166168213
1766402574315054600,15.2330546875,-0.45250412821769714,2.343923568725586,-0.8068459630012512
1766402574335104500,15.2531044921875,0.19871874153614044,2.2146365642547607,-0.6655880808830261
1766402574345084000,15.263083984375,0.26336219906806946,2.0590133666992188,-0.7038952708244324
1766402574355124200,15.273124267578124,0.23942017555236816,1.723825216293335,-0.6033388376235962
1766402574365133800,15.2831337890625,0.17956513166427612,1.6089035272598267,-0.1364694982767105
1766402574375143700,15.293143798828124,0.16519992053508759,1.1204863786697388,0.4692635238170624
1766402574415213300,15.33321337890625,1.1276689767837524,2.1308395862579346,0.8236053586006165
1766402574425223200,15.34322314453125,1.3527239561080933,1.9943699836730957,0.5841852426528931
1766402574435232800,15.353232666015625,1.764526605606079,2.205059766769409,0.45250412821769714
1766402574445242600,15.36324267578125,1.7357962131500244,2.1332337856292725,0.2322375625371933
