time,seconds_elapsed,z,y,x
1766402558165701600,-0.91629833984375,9.718424797058105,0.17572788894176483,-1.3006666898727417
1766402558195731000,-0.88626904296875,9.718273162841797,0.17606979608535767,-1.3017491102218628
1766402558205771300,-0.876228759765625,9.717320442199707,0.16858378052711487,-1.3098331689834595
1766402558215780900,-0.86621923828125,9.715662002563477,0.1521826833486557,-1.3240654468536377
1766402558225821200,-0.8561787109375,9.717085838317871,0.16204258799552917,-1.312393069267273
1766402558235800300,-0.84619970703125,9.717986106872559,0.1716059446334839,-1.304490089416504
1766402558245840600,-0.836159423828125,9.71757698059082,0.17644542455673218,-1.3068873882293701
1766402558255850500,-0.8261494140625,9.717198371887207,0.1689719408750534,-1.3106805086135864
1766402558265860400,-0.8161396484375,9.716992378234863,0.15641309320926666,-1.3137718439102173
1766402558275870000,-0.806130126953125,9.716368675231934,0.16221246123313904,-1.317667841911316
1766402558285879800,-0.7961201171875,9.716024398803711,0.17450298368930817,-1.3186395168304443
1766402558335959000,-0.746041015625,9.71435260772705,0.18645265698432922,-1.3292796611785889
1766402558345969000,-0.736031005859375,9.714702606201172,0.18361608684062958,-1.3271105289459229
1766402558355978800,-0.726021240234375,9.714783668518066,0.1814754158258438,-1.3268145322799683
1766402558375998200,-0.706001708984375,9.714722633361816,0.16717293858528137,-1.3291351795196533
1766402558386069000,-0.695930908203125,9.714771270751953,0.17101320624351501,-1.3282965421676636
1766402558396139800,-0.685860107421875,9.714691162109375,0.1755170226097107,-1.328291654586792
1766402558406180000,-0.67581982421875,9.714673042297363,0.1826721578836441,-1.3274552822113037
1766402558426199600,-0.655800537109375,9.715157508850098,0.19316257536411285,-1.3224152326583862
1766402558436240000,-0.645760009765625,9.71550178527832,0.1915825754404068,-1.3201146125793457
1766402558446249700,-0.635750244140625,9.71557903289795,0.1897427886724472,-1.3198139667510986
1766402558456228900,-0.625771240234375,9.715189933776855,0.1883091777563095,-1.3228788375854492
1766402558476279000,-0.605720947265625,9.714571952819824,0.19234149158000946,-1.3268389701843262
1766402558486288600,-0.59571142578125,9.714766502380371,0.1931857317686081,-1.3252815008163452
1766402558496298500,-0.585701416015625,9.714692115783691,0.19651849567890167,-1.3253415822982788
1766402558526358300,-0.555641845703125,9.714827537536621,0.20342867076396942,-1.323302149772644
1766402558536337700,-0.545662353515625,9.714691162109375,0.2015027105808258,-1.3246023654937744
1766402558546347300,-0.53565283203125,9.714776992797852,0.18908976018428802,-1.3257943391799927
1766402558556357000,-0.525642822265625,9.714625358581543,0.17938242852687836,-1.3282561302185059
1766402558576407000,-0.505593017578125,9.71434211730957,0.1670554131269455,-1.3319278955459595
1766402558586417000,-0.4955830078125,9.714522361755371,0.15984423458576202,-1.3315056562423706
1766402558596426800,-0.4855732421875,9.715160369873047,0.15496589243412018,-1.3274199962615967
1766402558606436400,-0.475563720703125,9.715500831604004,0.15414178371429443,-1.325016736984253
1766402558616446200,-0.4655537109375,9.71571159362793,0.15188220143318176,-1.3237296342849731
1766402558626456000,-0.4555439453125,9.715790748596191,0.15003551542758942,-1.3233610391616821
1766402558636496100,-0.44550390625,9.715874671936035,0.1491602659225464,-1.3228458166122437
1766402558646506000,-0.435493896484375,9.716042518615723,0.14842866361141205,-1.3216924667358398
1766402558656515800,-0.425484130859375,9.71611213684082,0.14739596843719482,-1.321298599243164
1766402558666525400,-0.415474609375,9.716076850891113,0.14719383418560028,-1.3215841054916382
1766402558676535300,-0.405464599609375,9.715787887573242,0.14659608900547028,-1.3237665891647339
1766402558686575600,-0.39542431640625,9.715834617614746,0.1471843272447586,-1.3233600854873657
1766402558696585500,-0.38541455078125,9.71593952178955,0.14747874438762665,-1.3225585222244263
1766402558736624400,-0.345375732421875,9.715846061706543,0.1453448385000229,-1.3234779834747314
1766402558746664700,-0.335335205078125,9.715814590454102,0.1485317200422287,-1.3233593702316284
1766402558756705000,-0.325294921875,9.715749740600586,0.15329451858997345,-1.323287010192871
1766402558766714600,-0.315285400390625,9.715758323669434,0.15652824938297272,-1.3228483200073242
1766402558776724500,-0.305275634765625,9.715694427490234,0.15818005800247192,-1.3231183290481567
1766402558896902700,-0.185097412109375,9.71483039855957,0.15490630269050598,-1.3298412561416626
1766402558906943000,-0.17505712890625,9.714689254760742,0.15473298728466034,-1.3308885097503662
1766402558916952800,-0.165047119140625,9.714369773864746,0.1492999792098999,-1.3338388204574585
1766402558926962400,-0.15503759765625,9.714141845703125,0.1482958048582077,-1.3356091976165771
1766402558936941800,-0.14505810546875,9.714186668395996,0.14872290194034576,-1.3352314233779907
1766402558947012600,-0.1349873046875,9.714217185974121,0.14901863038539886,-1.3349804878234863
1766402558956991700,-0.12500830078125,9.714264869689941,0.15108992159366608,-1.334392786026001
1766402558987082200,-0.094917724609375,9.720179557800293,0.1515977531671524,-1.2905462980270386
1766402559027152000,-0.05484814453125,9.720269203186035,0.14693865180015564,-1.2904160022735596
1766402559037161500,-0.044838623046875,9.720251083374023,0.14454194903373718,-1.2908188104629517
1766402559047171300,-0.03482861328125,9.720303535461426,0.1419743150472641,-1.290710687637329
1766402559057150500,-0.024849609375,9.720322608947754,0.14087975025177002,-1.290686011314392
1766402559067190800,-0.014809326171875,9.72048568725586,0.13984912633895874,-1.2895692586898804
1766402559077200600,-0.00479931640625,9.720514297485352,0.14050959050655365,-1.2892848253250122
1766402559087210200,0.005210205078125,9.720574378967285,0.14024768769741058,-1.2888591289520264
1766402559097189600,0.015189697265625,9.72050666809082,0.13841739296913147,-1.289569616317749
1766402559107260400,0.025260498046875,9.720373153686523,0.1341739147901535,-1.2910232543945312
1766402559117270300,0.035270263671875,9.720264434814453,0.12772874534130096,-1.2924939393997192
1766402559127279900,0.04527978515625,9.720056533813477,0.11896444857120514,-1.2948940992355347
1766402559167319000,0.085319091796875,9.721464157104492,-0.010863707400858402,-1.2897372245788574
1766402559177328600,0.09532861328125,9.721442222595215,-0.038511376827955246,-1.2893644571304321
1766402559187369000,0.105368896484375,9.72230052947998,-0.05144216865301132,-1.2824238538742065
1766402559197378800,0.11537890625,9.72474479675293,-0.06658587604761124,-1.2630503177642822
1766402559207388700,0.125388671875,9.725231170654297,-0.06842532008886337,-1.2591990232467651
1766402559217367800,0.135367919921875,9.727019309997559,-0.10182070732116699,-1.2430307865142822
1766402559227408100,0.145408203125,9.726672172546387,-0.10955438017845154,-1.2450838088989258
1766402559237418000,0.15541796875,9.727020263671875,-0.13993406295776367,-1.2393059730529785
1766402559257437400,0.1754375,9.727030754089355,-0.20950666069984436,-1.229379415512085
1766402559267477800,0.185477783203125,9.728416442871094,-0.2318647801876068,-1.2143080234527588
1766402559277487400,0.1954873046875,9.731660842895508,-0.2724069058895111,-1.1793937683105469
1766402559287497200,0.205497314453125,9.732495307922363,-0.29045867919921875,-1.1681385040283203
1766402559307516700,0.2255166015625,9.734310150146484,-0.3761539161205292,-1.127880573272705
1766402559317526500,0.235526611328125,9.734709739685059,-0.4156484007835388,-1.11042320728302
1766402559327536400,0.245536376953125,9.734830856323242,-0.452629417181015,-1.0947980880737305
1766402559337546000,0.2555458984375,9.734840393066406,-0.48754167556762695,-1.0796170234680176
1766402559357565700,0.275565673828125,9.734694480895996,-0.5852490663528442,-1.0313012599945068
1766402559367605800,0.285605712890625,9.7340726852417,-0.6189634799957275,-1.0173991918563843
1766402559377615600,0.29561572265625,9.731629371643066,-0.6967821717262268,-0.990085780620575
1766402559387686400,0.305686279296875,9.72842788696289,-0.7728580832481384,-0.9647656679153442
1766402559397696300,0.3156962890625,9.725868225097656,-0.8309764266014099,-0.9419920444488525
1766402559407705900,0.325705810546875,9.722955703735352,-0.8831287622451782,-0.924441397190094
1766402559417685200,0.335685302734375,9.720556259155273,-0.919080913066864,-0.9145846962928772
1766402559427725600,0.3457255859375,9.719205856323242,-0.9384374022483826,-0.9092615842819214
1766402559437735200,0.355735107421875,9.714612007141113,-1.0004940032958984,-0.8920325040817261
1766402559447745000,0.3657451171875,9.713242530822754,-1.0214275121688843,-0.8831749558448792
1766402559487845000,0.40584521484375,9.695828437805176,-1.2276496887207031,-0.8088116645812988
1766402559497855000,0.41585498046875,9.694294929504395,-1.2468878030776978,-0.7976816892623901
1766402559507834000,0.425834228515625,9.688630104064941,-1.3036844730377197,-0.7753876447677612
1766402559517844000,0.435843994140625,9.686504364013672,-1.3269461393356323,-0.7623971104621887
1766402559527853600,0.445853515625,9.681729316711426,-1.3758245706558228,-0.7359403371810913
1766402559537863400,0.455863525390625,9.677190780639648,-1.4213978052139282,-0.7085199356079102
1766402559547903700,0.46590380859375,9.673181533813477,-1.4610118865966797,-0.6821908354759216
1766402559577933000,0.49593310546875,9.666672706604004,-1.5265861749649048,-0.6287767291069031
1766402559587973400,0.505973388671875,9.666091918945312,-1.5344674587249756,-0.6184401512145996
1766402559598013700,0.516013671875,9.661725044250488,-1.570566177368164,-0.5956345796585083
1766402559608023300,0.526023193359375,9.660390853881836,-1.581712007522583,-0.5877330303192139
1766402559618002700,0.536002685546875,9.654191970825195,-1.6250698566436768,-0.5710548758506775
1766402559628042800,0.546042724609375,9.645367622375488,-1.6826796531677246,-0.5530511736869812
1766402559638052600,0.556052490234375,9.634507179260254,-1.7490403652191162,-0.5362136363983154
1766402559648062500,0.5660625,9.617705345153809,-1.8445119857788086,-0.5176056027412415
1766402559678091800,0.596091796875,9.588492393493652,-1.9990979433059692,-0.4845646619796753
1766402559688101400,0.606101318359375,9.581896781921387,-2.030440092086792,-0.48472413420677185
1766402559698111200,0.616111328125,9.570144653320312,-2.0865414142608643,-0.4786190688610077
1766402559708151600,0.626151611328125,9.55665397644043,-2.148603916168213,-0.473559707403183
1766402559718191900,0.63619189453125,9.543128967285156,-2.2097883224487305,-0.4646596908569336
1766402559728201500,0.646201416015625,9.523893356323242,-2.2961931228637695,-0.4397219717502594
1766402559738211300,0.65621142578125,9.51125717163086,-2.3511784076690674,-0.42229294776916504
1766402559748221200,0.66622119140625,9.504935264587402,-2.378498077392578,-0.4115237295627594
1766402559758230800,0.676230712890625,9.49216079711914,-2.4319307804107666,-0.3936862647533417
1766402559768271000,0.68627099609375,9.479619979858398,-2.482618808746338,-0.37920546531677246
1766402559788382200,0.70638232421875,9.454429626464844,-2.579258441925049,-0.3627359867095947
1766402559798392000,0.71639208984375,9.442794799804688,-2.6225314140319824,-0.35543307662010193
1766402559808401700,0.726401611328125,9.43220329284668,-2.661471128463745,-0.34713730216026306
1766402559818350600,0.7363505859375,9.42134952545166,-2.700442314147949,-0.3408452272415161
1766402559828390700,0.746390625,9.408419609069824,-2.7456188201904297,-0.33704566955566406
1766402559838431000,0.756430908203125,9.390901565551758,-2.8056392669677734,-0.33127841353416443
1766402559848440800,0.76644091796875,9.367813110351562,-2.8823740482330322,-0.326172411441803
1766402559858450700,0.77645068359375,9.358296394348145,-2.9135329723358154,-0.32250282168388367
1766402559888541000,0.806541015625,9.303683280944824,-3.081157922744751,-0.34398385882377625
1766402559898581200,0.816581298828125,9.301141738891602,-3.0881574153900146,-0.3499166667461395
1766402559908590800,0.8265908203125,9.288433074951172,-3.125554084777832,-0.35538339614868164
1766402559918600700,0.8366005859375,9.272675514221191,-3.1711511611938477,-0.3628625273704529
1766402559928610600,0.846610595703125,9.253793716430664,-3.224696636199951,-0.372843861579895
1766402559938620200,0.8566201171875,9.219515800476074,-3.319572687149048,-0.38904446363449097
1766402559948630000,0.866630126953125,9.19415283203125,-3.387261152267456,-0.4054843485355377
1766402559958639900,0.876639892578125,9.150650978088379,-3.5021653175354004,-0.41330066323280334
1766402559998709200,0.916709228515625,9.024405479431152,-3.8189244270324707,-0.3825005292892456
1766402560018820400,0.9368203125,8.974383354187012,-3.937903642654419,-0.35177281498908997
1766402560028830200,0.946830322265625,8.943392753601074,-4.012813091278076,-0.28886476159095764
1766402560038840000,0.956840087890625,8.908775329589844,-4.093851566314697,-0.21091948449611664
1766402560048880400,0.96688037109375,8.844759941101074,-4.235018253326416,-0.07230453938245773
1766402560058890000,0.976889892578125,8.820987701416016,-4.284841060638428,-0.02648359164595604
1766402560068899800,0.98689990234375,8.73459529876709,-4.456550121307373,0.12804222106933594
1766402560088949800,1.00694970703125,8.588163375854492,-4.72139835357666,0.3496205508708954
1766402560098959600,1.016959716796875,8.499946594238281,-4.868838310241699,0.4644339680671692
1766402560108969500,1.026969482421875,8.399983406066895,-5.0273756980896,0.5797997713088989
1766402560118979000,1.03697900390625,8.288087844848633,-5.195947170257568,0.6929083466529846
1766402560129019400,1.047019287109375,8.165231704711914,-5.372057914733887,0.8002333045005798
1766402560139059700,1.057059814453125,8.033440589904785,-5.551992893218994,0.8997730016708374
1766402560149069600,1.067069580078125,7.894443988800049,-5.733013153076172,0.9903038740158081
1766402560159079200,1.0770791015625,7.748328685760498,-5.915070533752441,1.0703874826431274
1766402560169119500,1.087119384765625,7.672180652618408,-6.006898880004883,1.1068873405456543
1766402560199179300,1.11717919921875,7.166516304016113,-6.581146240234375,1.224721908569336
1766402560209219600,1.127219482421875,6.980430603027344,-6.7808380126953125,1.2100468873977661
1766402560219229400,1.1372294921875,6.697157859802246,-7.077149391174316,1.1101442575454712
1766402560229269800,1.147269775390625,6.507599830627441,-7.268515586853027,0.9950962662696838
1766402560239279400,1.157279296875,6.412630558013916,-7.361320495605469,0.9271028637886047
1766402560249319700,1.167319580078125,6.15283203125,-7.609472751617432,0.6395148634910583
1766402560259390500,1.177390380859375,6.010164260864258,-7.7384538650512695,0.4057880938053131
1766402560269400300,1.187400390625,5.946779251098633,-7.792725563049316,0.28221258521080017
1766402560309439200,1.227439208984375,5.841670989990234,-7.813967704772949,-0.9935649633407593
1766402560319449000,1.237448974609375,5.882099628448486,-7.724730968475342,-1.3783409595489502
1766402560329459000,1.247458984375,6.062265396118164,-7.439980983734131,-2.016434669494629
1766402560339468500,1.257468505859375,6.206639766693115,-7.183213233947754,-2.4595649242401123
1766402560349478400,1.267478515625,6.339946269989014,-6.891612529754639,-2.912240982055664
1766402560359488300,1.27748828125,6.369201183319092,-6.746211051940918,-3.1768381595611572
1766402560369528600,1.287528564453125,6.454950332641602,-6.308329105377197,-3.835230588912964
1766402560379568600,1.297568603515625,6.437657833099365,-6.052700996398926,-4.25344181060791
1766402560429678600,1.3476787109375,6.02377462387085,-5.513726234436035,-5.429858207702637
1766402560439779800,1.35777978515625,5.944594860076904,-5.547060012817383,-5.482911109924316
1766402560469809200,1.38780908203125,5.793520450592041,-5.7760467529296875,-5.407660484313965
1766402560519858200,1.437858154296875,5.678794860839844,-6.120602607727051,-5.143918991088867
1766402560559988700,1.47798876953125,5.790578842163086,-5.951767921447754,-5.2168989181518555
1766402560580038700,1.49803857421875,5.814794063568115,-5.836067199707031,-5.319668769836426
1766402560590048500,1.508048583984375,5.834664344787598,-5.767003059387207,-5.3729658126831055
1766402560600058400,1.518058349609375,5.8567399978637695,-5.6787109375,-5.442539691925049
1766402560620138800,1.538138671875,5.882326602935791,-5.588792324066162,-5.507633209228516
1766402560660178000,1.578177978515625,5.789073467254639,-5.6979594230651855,-5.494568824768066
1766402560690268200,1.60826806640625,5.673608779907227,-5.85664176940918,-5.447963237762451
1766402560700278000,1.618278076171875,5.679182052612305,-5.852022171020508,-5.447119235992432
1766402560710288000,1.628287841796875,5.685303688049316,-5.843348503112793,-5.450044631958008
1766402560720297500,1.63829736328125,5.684580326080322,-5.840742588043213,-5.4535908699035645
1766402560730307300,1.648307373046875,5.677088737487793,-5.838860988616943,-5.4634013175964355
1766402560740317000,1.65831689453125,5.654434680938721,-5.852484226226807,-5.472311019897461
1766402560750326800,1.668326904296875,5.623004913330078,-5.876439094543457,-5.479021072387695
1766402560760336600,1.678336669921875,5.571600437164307,-5.922388553619385,-5.482058525085449
1766402560770377000,1.688376953125,5.5065155029296875,-5.979045391082764,-5.486318588256836
1766402560780386600,1.698386474609375,5.4836039543151855,-5.996357440948486,-5.490370750427246
1766402560800406300,1.71840625,5.453452110290527,-6.015154838562012,-5.499833106994629
1766402560810446300,1.7284462890625,5.444133281707764,-6.020464897155762,-5.503253936767578
1766402560850516000,1.768515869140625,5.336140155792236,-6.098442077636719,-5.52313232421875
1766402560860556300,1.778556396484375,5.286210536956787,-6.1467366218566895,-5.517608642578125
1766402560870596600,1.7885966796875,5.236068248748779,-6.194713592529297,-5.5117597579956055
1766402560880637000,1.798636962890625,5.1772780418396,-6.25244140625,-5.50210428237915
1766402560890677200,1.80867724609375,5.161335468292236,-6.270742893218994,-5.496251583099365
1766402560900656400,1.818656494140625,5.135259628295898,-6.299616813659668,-5.487652778625488
1766402560910696700,1.82869677734375,5.111677169799805,-6.3282246589660645,-5.476743221282959
1766402560920767500,1.838767578125,5.08701229095459,-6.3586859703063965,-5.464412689208984
1766402560950857700,1.868857666015625,5.030872344970703,-6.42722749710083,-5.436124801635742
1766402560960867600,1.87886767578125,5.038568019866943,-6.43126106262207,-5.424213409423828
1766402560970877400,1.88887744140625,5.055964946746826,-6.429039478302002,-5.410643100738525
1766402560980917500,1.89891748046875,5.068846702575684,-6.4284796714782715,-5.399242877960205
1766402560990957800,1.908957763671875,5.079543113708496,-6.4309163093566895,-5.386273384094238
1766402561000967700,1.9189677734375,5.093169689178467,-6.4355363845825195,-5.367856502532959
1766402561011038500,1.92903857421875,5.094383716583252,-6.4426751136779785,-5.358132839202881
1766402561021048300,1.93904833984375,5.097728729248047,-6.448880672454834,-5.347473621368408
1766402561041128700,1.959128662109375,5.103618144989014,-6.454317569732666,-5.3352837562561035
1766402561071188700,1.989188720703125,5.115687847137451,-6.4650068283081055,-5.310725688934326
1766402561081228800,1.999228759765625,5.117306709289551,-6.467250347137451,-5.30643367767334
1766402561091269000,2.00926904296875,5.116669178009033,-6.470066547393799,-5.303613662719727
1766402561101309400,2.019309326171875,5.116415977478027,-6.471762180328369,-5.301790237426758
1766402561111349800,2.029349853515625,5.115411758422852,-6.473416805267334,-5.300736904144287
1766402561121359600,2.039359619140625,5.114300727844238,-6.475655555725098,-5.299076080322266
1766402561131430400,2.049430419921875,5.112048149108887,-6.47830057144165,-5.298016548156738
1766402561141440000,2.05943994140625,5.109890937805176,-6.480903148651123,-5.296915054321289
1766402561161490200,2.079490234375,5.108575820922852,-6.487459659576416,-5.290152549743652
1766402561171561000,2.08956103515625,5.106901168823242,-6.490366458892822,-5.28820276260376
1766402561181570800,2.09957080078125,5.1055402755737305,-6.492612838745117,-5.286759853363037
1766402561191611000,2.10961083984375,5.104481220245361,-6.495820045471191,-5.283841133117676
1766402561201651200,2.119651123046875,5.104828834533691,-6.497549533843994,-5.28137731552124
1766402561211661000,2.1296611328125,5.108480930328369,-6.4985737800598145,-5.276584625244141
1766402561221701400,2.139701416015625,5.113482475280762,-6.49753999710083,-5.273012161254883
1766402561231711000,2.1497109375,5.118758201599121,-6.496379852294922,-5.269321918487549
1766402561251761200,2.16976123046875,5.131453037261963,-6.493924140930176,-5.259994029998779
1766402561261832000,2.17983203125,5.135891914367676,-6.489513397216797,-5.261105060577393
1766402561271841800,2.189841796875,5.137824535369873,-6.492384910583496,-5.255673885345459
1766402561281851400,2.199851318359375,5.138611316680908,-6.4946064949035645,-5.252155303955078
1766402561291891700,2.2098916015625,5.138680458068848,-6.495449542999268,-5.251046657562256
1766402561301901600,2.219901611328125,5.138477802276611,-6.500226020812988,-5.245330810546875
1766402561311911200,2.2299111328125,5.1367950439453125,-6.506389141082764,-5.239335060119629
1766402561321921000,2.239921142578125,5.135289192199707,-6.516367435455322,-5.228398323059082
1766402561331931000,2.249930908203125,5.135807514190674,-6.518850803375244,-5.22479248046875
1766402561351980800,2.269980712890625,5.1367692947387695,-6.536208152770996,-5.202113151550293
1766402561361990700,2.27999072265625,5.137818336486816,-6.5421905517578125,-5.193550109863281
1766402561372031000,2.290031005859375,5.137315273284912,-6.551130771636963,-5.182765007019043
1766402561382040600,2.30004052734375,5.134997844696045,-6.56231689453125,-5.170897006988525
1766402561392081000,2.310080810546875,5.132440567016602,-6.574583530426025,-5.157837390899658
1766402561402121200,2.320121337890625,5.129866123199463,-6.585659980773926,-5.146255970001221
1766402561412161500,2.33016162109375,5.127248287200928,-6.596748352050781,-5.134649753570557
1766402561422171400,2.34017138671875,5.125290870666504,-6.606919765472412,-5.1235151290893555
1766402561432181000,2.350180908203125,5.124406814575195,-6.6174163818359375,-5.110836982727051
1766402561442190800,2.36019091796875,5.1233720779418945,-6.628533840179443,-5.097450256347656
1766402561472220200,2.39022021484375,5.118128776550293,-6.664069652557373,-5.056215763092041
1766402561482229800,2.400229736328125,5.112448692321777,-6.681415557861328,-5.039040565490723
1766402561492239600,2.410239501953125,5.10886812210083,-6.693334102630615,-5.02684211730957
1766402561502249500,2.42024951171875,5.105503559112549,-6.705593109130859,-5.013903617858887
1766402561512259000,2.430259033203125,5.1033854484558105,-6.71209192276001,-5.007362365722656
1766402561522299400,2.44029931640625,5.097256660461426,-6.726925373077393,-4.993680477142334
1766402561532339700,2.450339599609375,5.087700843811035,-6.745724201202393,-4.978041172027588
1766402561572409300,2.490409423828125,5.039151191711426,-6.82887601852417,-4.913634777069092
1766402561582388500,2.500388427734375,5.029764175415039,-6.847239017486572,-4.897671699523926
1766402561592459300,2.510459228515625,5.016801357269287,-6.876145362854004,-4.870392322540283
1766402561602408200,2.520408203125,5.012257099151611,-6.8851799964904785,-4.862298488616943
1766402561612448500,2.530448486328125,4.992801189422607,-6.914982318878174,-4.839975833892822
1766402561622458000,2.5404580078125,4.985508918762207,-6.926180839538574,-4.831471920013428
1766402561632529000,2.55052880859375,4.965395450592041,-6.952812194824219,-4.813900947570801
1766402561652548600,2.570548583984375,4.936983108520508,-6.9860758781433105,-4.794928550720215
1766402561662558200,2.58055810546875,4.92938756942749,-6.995246410369873,-4.789368629455566
1766402561672629000,2.59062890625,4.917451858520508,-7.010219097137451,-4.77973747253418
1766402561682638800,2.600638916015625,4.9088358879089355,-7.021889686584473,-4.771454811096191
1766402561692679200,2.61067919921875,4.897651195526123,-7.035980224609375,-4.762182235717773
1766402561702688800,2.620688720703125,4.895859718322754,-7.040838718414307,-4.75684118270874
1766402561712698600,2.63069873046875,4.884429931640625,-7.0521440505981445,-4.751841068267822
1766402561722708500,2.64070849609375,4.877382755279541,-7.058341979980469,-4.749876022338867
1766402561732718000,2.650718017578125,4.8704047203063965,-7.063153266906738,-4.749887466430664
1766402561742728000,2.66072802734375,4.862363338470459,-7.0677289962768555,-4.751316070556641
1766402561762747400,2.680747314453125,4.842177867889404,-7.078826904296875,-4.755410194396973
1766402561772787700,2.69078759765625,4.835418701171875,-7.083273410797119,-4.755665302276611
1766402561782797600,2.700797607421875,4.820601463317871,-7.094171524047852,-4.754462242126465
1766402561792838000,2.710837890625,4.799821853637695,-7.110264301300049,-4.75144624710083
1766402561802847500,2.720847412109375,4.791112422943115,-7.118185520172119,-4.7483744621276855
1766402561812857300,2.730857421875,4.785551071166992,-7.124317646026611,-4.744787693023682
1766402561822928100,2.74092822265625,4.781359672546387,-7.128776550292969,-4.742313385009766
1766402561832938000,2.75093798828125,4.7863287925720215,-7.128600120544434,-4.7375640869140625
1766402561842978000,2.76097802734375,4.795361042022705,-7.1240057945251465,-4.7353410720825195
1766402561882986800,2.80098681640625,4.812415599822998,-7.105825424194336,-4.745344161987305
1766402561893027000,2.811027099609375,4.8152337074279785,-7.103272438049316,-4.746307849884033
1766402561903006200,2.821006103515625,4.806397438049316,-7.107730865478516,-4.748589038848877
1766402561913077000,2.831076904296875,4.7955756187438965,-7.112641334533691,-4.7521772384643555
1766402561923056400,2.841056396484375,4.7858757972717285,-7.119274616241455,-4.752020835876465
1766402561933066000,2.85106591796875,4.780604839324951,-7.1264448165893555,-4.746577262878418
1766402561943075800,2.861075927734375,4.7698445320129395,-7.143774032592773,-4.731329917907715
1766402561983084300,2.901084228515625,4.6879143714904785,-7.251712322235107,-4.648282527923584
1766402562003104000,2.92110400390625,4.601963520050049,-7.372884750366211,-4.542346477508545
1766402562013113600,2.931113525390625,4.530524730682373,-7.451268196105957,-4.485902309417725
1766402562023123500,2.94112353515625,4.481264114379883,-7.514671802520752,-4.429260730743408
1766402562033133300,2.95113330078125,4.436134338378906,-7.564256191253662,-4.390117168426514
1766402562043143000,2.961142822265625,4.39063024520874,-7.610264301300049,-4.356216907501221
1766402562053152800,2.97115283203125,4.344027519226074,-7.656552314758301,-4.321694374084473
1766402562083182000,3.00118212890625,4.181558132171631,-7.821439743041992,-4.1845011711120605
1766402562093222400,3.011222412109375,4.10102653503418,-7.893874645233154,-4.127796173095703
1766402562103201500,3.021201416015625,3.9960854053497314,-7.983497142791748,-4.057766914367676
1766402562113241900,3.031241943359375,3.881309986114502,-8.075740814208984,-3.9860050678253174
1766402562123282200,3.0412822265625,3.7755038738250732,-8.174921035766602,-3.8841521739959717
1766402562133291800,3.051291748046875,3.6677138805389404,-8.271575927734375,-3.7814419269561768
1766402562143301600,3.061301513671875,3.610607862472534,-8.318263053894043,-3.7336857318878174
1766402562153311500,3.0713115234375,3.440171480178833,-8.442667007446289,-3.61344838142395
1766402562173331000,3.0913310546875,3.283782482147217,-8.553322792053223,-3.4968361854553223
1766402562203390700,3.121390625,2.849820375442505,-8.801772117614746,-3.2523393630981445
1766402562213400600,3.131400634765625,2.6945247650146484,-8.884220123291016,-3.1592018604278564
1766402562223410200,3.14141015625,2.5304148197174072,-8.958756446838379,-3.0835165977478027
1766402562233450500,3.151450439453125,2.441215753555298,-8.999283790588379,-3.0370633602142334
1766402562243460400,3.16146044921875,2.2646422386169434,-9.069677352905273,-2.9635696411132812
1766402562253500700,3.171500732421875,2.098628282546997,-9.129046440124512,-2.9028749465942383
1766402562283560400,3.201560546875,1.683638572692871,-9.261961936950684,-2.748056173324585
1766402562293600800,3.211600830078125,1.5471922159194946,-9.307060241699219,-2.6749260425567627
1766402562303610600,3.221610595703125,1.4813519716262817,-9.332472801208496,-2.623154640197754
1766402562313620200,3.2316201171875,1.4185173511505127,-9.356502532958984,-2.5717787742614746
1766402562323630000,3.241630126953125,1.3874849081039429,-9.36915111541748,-2.5425002574920654
1766402562333639700,3.2516396484375,1.287892460823059,-9.39956283569336,-2.481924295425415
1766402562343649500,3.2616494140625,1.2301654815673828,-9.415704727172852,-2.4498138427734375
1766402562353659400,3.271659423828125,1.1772916316986084,-9.42883586883545,-2.425163745880127
1766402562363669000,3.2816689453125,1.1282284259796143,-9.440108299255371,-2.4045491218566895
1766402562383688700,3.301688720703125,1.0679219961166382,-9.45276927947998,-2.3822503089904785
1766402562403677700,3.321677734375,1.0281648635864258,-9.458279609680176,-2.377858877182007
1766402562443777800,3.36177783203125,1.0735607147216797,-9.431819915771484,-2.4614310264587402
1766402562453848600,3.3718486328125,1.0817103385925293,-9.426060676574707,-2.479851007461548
1766402562463858200,3.381858154296875,1.0809448957443237,-9.423736572265625,-2.4890036582946777
1766402562473868000,3.391867919921875,1.0666052103042603,-9.42089557647705,-2.5058884620666504
1766402562493918200,3.411918212890625,1.0399223566055298,-9.395356178283691,-2.6107892990112305
1766402562503927800,3.421927734375,1.0080783367156982,-9.375645637512207,-2.6928517818450928
1766402562513907200,3.4319072265625,0.9767398238182068,-9.359663963317871,-2.759178876876831
1766402562523916800,3.441916748046875,0.9599907398223877,-9.346165657043457,-2.8103392124176025
1766402562533926700,3.4519267578125,0.8971366286277771,-9.323179244995117,-2.9058306217193604
1766402562543936500,3.4619365234375,0.8365302085876465,-9.294106483459473,-3.0149941444396973
1766402562553946000,3.471946044921875,0.7972282767295837,-9.27003288269043,-3.0985982418060303
1766402562563956000,3.4819560546875,0.6802871823310852,-9.239034652709961,-3.216806411743164
1766402562594015700,3.512015625,0.42754504084587097,-9.180713653564453,-3.420833110809326
1766402562604056000,3.52205615234375,0.38376423716545105,-9.172871589660645,-3.4469635486602783
1766402562614096400,3.532096435546875,0.27099213004112244,-9.15190601348877,-3.512775421142578
1766402562624075500,3.542075439453125,0.20647871494293213,-9.134786605834961,-3.561382532119751
1766402562634085400,3.55208544921875,0.15122954547405243,-9.11397933959961,-3.617032051086426
1766402562654166000,3.572166015625,0.07954397052526474,-9.063563346862793,-3.743779182434082
1766402562664175600,3.582175537109375,0.01569715328514576,-9.022147178649902,-3.84330677986145
1766402562674185500,3.592185546875,-0.02968454360961914,-8.994757652282715,-3.9068970680236816
1766402562714224600,3.632224609375,-0.20971202850341797,-8.909095764160156,-4.093219757080078
1766402562724234200,3.642234130859375,-0.3021102845668793,-8.861412048339844,-4.189814567565918
1766402562734274600,3.652274658203125,-0.33921536803245544,-8.838475227355957,-4.235170841217041
1766402562744284400,3.662284423828125,-0.4188121259212494,-8.794808387756348,-4.318142890930176
1766402562754294000,3.6722939453125,-0.546106219291687,-8.728790283203125,-4.436256408691406
1766402562764304000,3.682303955078125,-0.6366637945175171,-8.677833557128906,-4.523300647735596
1766402562774344200,3.69234423828125,-0.7319363951683044,-8.623308181762695,-4.612290859222412
1766402562814413800,3.732413818359375,-1.1282663345336914,-8.424983024597168,-4.8905110359191895
1766402562824393000,3.74239306640625,-1.2537543773651123,-8.349266052246094,-4.988811016082764
1766402562834433300,3.752433349609375,-1.3284538984298706,-8.31087589263916,-5.033382892608643
1766402562844473600,3.7624736328125,-1.4050387144088745,-8.265522956848145,-5.086982250213623
1766402562854483200,3.772483154296875,-1.4785370826721191,-8.222333908081055,-5.135908603668213
1766402562864493000,3.7824931640625,-1.5121142864227295,-8.209426879882812,-5.146766662597656
1766402562874503000,3.7925029296875,-1.5873788595199585,-8.157163619995117,-5.20685338973999
1766402562914572300,3.832572265625,-1.840489387512207,-7.9276123046875,-5.471377849578857
1766402562924582100,3.84258203125,-1.908284306526184,-7.829946041107178,-5.587556838989258
1766402562934622500,3.85262255859375,-1.9245635271072388,-7.792409896850586,-5.634252071380615
1766402562944601600,3.8626015625,-2.004927396774292,-7.698027610778809,-5.735071659088135
1766402562954642000,3.872641845703125,-2.0317838191986084,-7.666122913360596,-5.768260478973389
1766402562964682200,3.88268212890625,-2.127769947052002,-7.578398704528809,-5.84900426864624
1766402563014761700,3.93276171875,-2.3413517475128174,-7.387566566467285,-6.009352684020996
1766402563024771300,3.942771240234375,-2.3678507804870605,-7.367834091186523,-6.02318000793457
1766402563034781200,3.95278125,-2.379864454269409,-7.360039234161377,-6.027972221374512
1766402563044791000,3.962791015625,-2.411363363265991,-7.344301223754883,-6.034646987915039
1766402563054800600,3.972800537109375,-2.4199657440185547,-7.342457294464111,-6.033449649810791
1766402563064810500,3.982810546875,-2.435540199279785,-7.349797248840332,-6.018223285675049
1766402563074820000,3.992820068359375,-2.436283826828003,-7.367438316345215,-5.99631404876709
1766402563084860400,4.0028603515625,-2.4322240352630615,-7.392869472503662,-5.966586589813232
1766402563134909400,4.052909423828125,-2.3986282348632812,-7.621337890625,-5.686141490936279
1766402563144980200,4.062980224609375,-2.3927385807037354,-7.6664862632751465,-5.627628326416016
1766402563154989800,4.07298974609375,-2.388360023498535,-7.712679386138916,-5.566034317016602
1766402563164999700,4.082999755859375,-2.387404203414917,-7.767998695373535,-5.488977432250977
1766402563175070500,4.093070556640625,-2.3764865398406982,-7.821561813354492,-5.417187690734863
1766402563185049600,4.103049560546875,-2.358954668045044,-7.872443675994873,-5.350730895996094
1766402563215109600,4.133109619140625,-2.305569648742676,-8.014595031738281,-5.159559726715088
1766402563225119200,4.143119140625,-2.2993650436401367,-8.042567253112793,-5.118633270263672
1766402563235129000,4.153129150390625,-2.274808168411255,-8.108798027038574,-5.0242438316345215
1766402563245108200,4.163108154296875,-2.257901191711426,-8.154481887817383,-4.957489967346191
1766402563255148500,4.1731484375,-2.247779607772827,-8.178702354431152,-4.922064304351807
1766402563265158400,4.183158447265625,-2.2271409034729004,-8.221768379211426,-4.859292507171631
1766402563275198700,4.19319873046875,-2.203939199447632,-8.265106201171875,-4.7959394454956055
1766402563285208300,4.203208251953125,-2.166390895843506,-8.327451705932617,-4.7043256759643555
1766402563335257300,4.25325732421875,-1.996730923652649,-8.517260551452637,-4.431674003601074
1766402563345267000,4.263266845703125,-1.9559696912765503,-8.549070358276367,-4.388388633728027
1766402563355337700,4.273337646484375,-1.9347292184829712,-8.563343048095703,-4.3699445724487305
1766402563365347600,4.28334765625,-1.8769410848617554,-8.600576400756836,-4.32175874710083
1766402563375388000,4.293387939453125,-1.8571622371673584,-8.610283851623535,-4.310956954956055
1766402563385428200,4.30342822265625,-1.8035943508148193,-8.630940437316895,-4.29235315322876
1766402563395437800,4.313437744140625,-1.766534447669983,-8.638672828674316,-4.29221248626709
1766402563425406200,4.34340625,-1.6623225212097168,-8.641404151916504,-4.328189373016357
1766402563435446500,4.353446533203125,-1.6060127019882202,-8.63223934173584,-4.367560863494873
1766402563445456100,4.3634560546875,-1.5725769996643066,-8.628538131713867,-4.386993885040283
1766402563455466000,4.373466064453125,-1.5167816877365112,-8.614563941955566,-4.433851718902588
1766402563465475800,4.383475830078125,-1.491229772567749,-8.610265731811523,-4.450838088989258
1766402563475485400,4.3934853515625,-1.4549673795700073,-8.60089111328125,-4.480865478515625
1766402563485495300,4.403495361328125,-1.4326518774032593,-8.589000701904297,-4.510764122009277
1766402563495535600,4.41353564453125,-1.4139692783355713,-8.569754600524902,-4.553061008453369
1766402563505545200,4.423545166015625,-1.3982535600662231,-8.56254768371582,-4.571441173553467
1766402563535544000,4.4535439453125,-1.381897211074829,-8.52864933013916,-4.639275074005127
1766402563545554000,4.463553955078125,-1.3808218240737915,-8.525690078735352,-4.6450324058532715
1766402563555624700,4.473624755859375,-1.3791627883911133,-8.518326759338379,-4.659011363983154
1766402563565665000,4.4836650390625,-1.380162239074707,-8.510540962219238,-4.672928333282471
1766402563575705300,4.493705322265625,-1.3853086233139038,-8.503104209899902,-4.684925079345703
1766402563585715000,4.50371484375,-1.395569086074829,-8.497241973876953,-4.692512512207031
1766402563595724800,4.513724853515625,-1.4146294593811035,-8.491377830505371,-4.697417736053467
1766402563605734400,4.523734375,-1.4467955827713013,-8.487403869628906,-4.6948018074035645
1766402563615774700,4.533774658203125,-1.4802000522613525,-8.482150077819824,-4.693883895874023
1766402563635794400,4.55379443359375,-1.5343456268310547,-8.482778549194336,-4.6753249168396
1766402563645773600,4.563773681640625,-1.56227445602417,-8.480560302734375,-4.670094013214111
1766402563655783400,4.573783447265625,-1.5728864669799805,-8.480940818786621,-4.665839672088623
1766402563665793000,4.58379296875,-1.5887967348098755,-8.479393005371094,-4.6632609367370605
1766402563675803000,4.593802978515625,-1.6037875413894653,-8.477185249328613,-4.662142276763916
1766402563685812700,4.603812744140625,-1.6129162311553955,-8.47397232055664,-4.66483736038208
1766402563695822300,4.613822265625,-1.6166852712631226,-8.469512939453125,-4.671621799468994
1766402563705801700,4.6238017578125,-1.632445216178894,-8.463587760925293,-4.676876068115234
1766402563715811300,4.633811279296875,-1.6358380317687988,-8.461153984069824,-4.6800971031188965
1766402563735831000,4.6538310546875,-1.6854192018508911,-8.450963020324707,-4.680916786193848
1766402563745840600,4.663840576171875,-1.7017548084259033,-8.446205139160156,-4.683596611022949
1766402563755881000,4.673880859375,-1.7336894273757935,-8.438302040100098,-4.686131000518799
1766402563765890800,4.683890869140625,-1.7584706544876099,-8.431611061096191,-4.688938140869141
1766402563775900400,4.693900390625,-1.7887589931488037,-8.424590110778809,-4.690099239349365
1766402563785910300,4.70391015625,-1.8273341655731201,-8.41467571258545,-4.693024158477783
1766402563795920100,4.713920166015625,-1.8435603380203247,-8.408788681030273,-4.697230339050293
1766402563805929700,4.7239296875,-1.8599913120269775,-8.404302597045898,-4.6987786293029785
1766402563815939600,4.733939697265625,-1.8726778030395508,-8.400257110595703,-4.70097541809082
1766402563825949400,4.743949462890625,-1.8851240873336792,-8.396656036376953,-4.702432155609131
1766402563835989800,4.75398974609375,-1.903875470161438,-8.39130973815918,-4.704418182373047
1766402563866080000,4.784080078125,-1.9342800378799438,-8.382856369018555,-4.707089900970459
1766402563876089900,4.79408984375,-1.945950984954834,-8.380660057067871,-4.706188201904297
1766402563886099500,4.804099365234375,-1.9558628797531128,-8.378999710083008,-4.705036163330078
1766402563896109300,4.814109375,-1.964713454246521,-8.376583099365234,-4.7056498527526855
1766402563906088400,4.82408837890625,-1.974387288093567,-8.375740051269531,-4.703103065490723
1766402563916098300,4.834098388671875,-1.9914714097976685,-8.37326431274414,-4.700310230255127
1766402563926138600,4.844138671875,-1.999732255935669,-8.371866226196289,-4.699289321899414
1766402563936179000,4.854178955078125,-2.012369394302368,-8.370165824890137,-4.696927070617676
1766402563966208300,4.884208251953125,-2.0220887660980225,-8.366700172424316,-4.698925018310547
1766402563976217900,4.8942177734375,-2.0211305618286133,-8.36623477935791,-4.700158596038818
1766402563986227700,4.904227783203125,-2.0134854316711426,-8.36520767211914,-4.705272674560547
1766402563996237600,4.914237548828125,-2.0067965984344482,-8.365283966064453,-4.707993507385254
1766402564006247200,4.9242470703125,-1.9998137950897217,-8.365460395812988,-4.710648059844971
1766402564016287500,4.93428759765625,-1.9923884868621826,-8.366236686706543,-4.712420463562012
1766402564026266600,4.9442666015625,-1.9893653392791748,-8.364996910095215,-4.7158918380737305
1766402564036307000,4.954306884765625,-1.9850410223007202,-8.3632173538208,-4.720869064331055
1766402564066366700,4.98436669921875,-1.9769576787948608,-8.36201000213623,-4.726400852203369
1766402564076376600,4.99437646484375,-1.9700945615768433,-8.363116264343262,-4.727302551269531
1766402564086386400,5.004386474609375,-1.9616488218307495,-8.364667892456055,-4.728073596954346
1766402564096426800,5.0144267578125,-1.9506621360778809,-8.366233825683594,-4.72984504699707
1766402564106466800,5.024466796875,-1.9390764236450195,-8.367798805236816,-4.7318434715271
1766402564116476700,5.0344765625,-1.929548978805542,-8.370793342590332,-4.730437278747559
1766402564126486500,5.044486572265625,-1.9210766553878784,-8.373701095581055,-4.728743553161621
1766402564136496000,5.05449609375,-1.912749171257019,-8.376150131225586,-4.727782726287842
1766402564146506000,5.064506103515625,-1.9117602109909058,-8.3765230178833,-4.727518081665039
1766402564166556200,5.08455615234375,-1.903377652168274,-8.374602317810059,-4.734298229217529
1766402564186606000,5.104606201171875,-1.8925448656082153,-8.368861198425293,-4.748776912689209
1766402564196646400,5.114646484375,-1.889169692993164,-8.36677074432373,-4.75379753112793
1766402564206717200,5.12471728515625,-1.8822193145751953,-8.36504077911377,-4.759596347808838
1766402564216696300,5.1346962890625,-1.8723727464675903,-8.362456321716309,-4.768012523651123
1766402564226767400,5.144767333984375,-1.8651905059814453,-8.363103866577148,-4.769690036773682
1766402564236838100,5.154838134765625,-1.8525421619415283,-8.362903594970703,-4.774967670440674
1766402564246847700,5.16484765625,-1.846150517463684,-8.364185333251953,-4.775201320648193
1766402564256918500,5.17491845703125,-1.8381975889205933,-8.363757133483887,-4.779016971588135
1766402564266928400,5.184928466796875,-1.8324872255325317,-8.3615140914917,-4.785130023956299
1766402564276938200,5.194938232421875,-1.8259865045547485,-8.360705375671387,-4.789026260375977
1766402564286947800,5.20494775390625,-1.8218321800231934,-8.359602928161621,-4.79253625869751
1766402564297018600,5.2150185546875,-1.8203223943710327,-8.357341766357422,-4.797051429748535
1766402564307028500,5.225028564453125,-1.8204212188720703,-8.356642723083496,-4.798226356506348
1766402564317038300,5.235038330078125,-1.8191131353378296,-8.357112884521484,-4.797903537750244
1766402564327017500,5.245017578125,-1.8183032274246216,-8.358384132385254,-4.795996189117432
1766402564337057800,5.255057861328125,-1.8146886825561523,-8.361797332763672,-4.791409969329834
1766402564347067600,5.265067626953125,-1.8099379539489746,-8.36422348022461,-4.788974285125732
1766402564357077200,5.2750771484375,-1.8004683256149292,-8.368054389953613,-4.785854816436768
1766402564387106600,5.3051064453125,-1.7928979396820068,-8.371219635009766,-4.783159255981445
1766402564397147000,5.31514697265625,-1.7946442365646362,-8.370499610900879,-4.783764839172363
1766402564407187200,5.325187255859375,-1.7983064651489258,-8.369881629943848,-4.783467769622803
1766402564417227500,5.3352275390625,-1.8011022806167603,-8.369341850280762,-4.783361434936523
1766402564427237000,5.345237060546875,-1.801543951034546,-8.370621681213379,-4.780957221984863
1766402564437247000,5.3552470703125,-1.8005162477493286,-8.372591972351074,-4.777892589569092
1766402564447256800,5.3652568359375,-1.7994143962860107,-8.375213623046875,-4.773711204528809
1766402564457266400,5.375266357421875,-1.7962596416473389,-8.376849174499512,-4.772027492523193
1766402564467276300,5.3852763671875,-1.7921295166015625,-8.379738807678223,-4.7685041427612305
1766402564487265300,5.405265380859375,-1.789844036102295,-8.38508415222168,-4.759963035583496
1766402564497336000,5.415336181640625,-1.790355920791626,-8.387858390808105,-4.754881858825684
1766402564507346000,5.425345947265625,-1.7926024198532104,-8.386889457702637,-4.755743026733398
1766402564517355500,5.43535546875,-1.7953391075134277,-8.389357566833496,-4.750352382659912
1766402564527365400,5.445365478515625,-1.796656847000122,-8.390512466430664,-4.747808933258057
1766402564537405700,5.45540576171875,-1.802444577217102,-8.391698837280273,-4.743524551391602
1766402564547415600,5.46541552734375,-1.8040441274642944,-8.394816398620605,-4.737395286560059
1766402564597464300,5.51546435546875,-1.7978886365890503,-8.399359703063965,-4.7316789627075195
1766402564607474000,5.525473876953125,-1.7985893487930298,-8.399462699890137,-4.7312235832214355
1766402564617514200,5.53551416015625,-1.7973990440368652,-8.400001525878906,-4.730721473693848
1766402564627524000,5.545524169921875,-1.7991999387741089,-8.39936351776123,-4.731173038482666
1766402564637534000,5.555533935546875,-1.8012062311172485,-8.399477005004883,-4.730204105377197
1766402564647604700,5.565604736328125,-1.80221688747406,-8.400092124938965,-4.728731632232666
1766402564657644800,5.575644775390625,-1.8016358613967896,-8.399896621704102,-4.729296684265137
1766402564667654700,5.585654541015625,-1.8008953332901,-8.400248527526855,-4.7289533615112305
1766402564677695000,5.595695068359375,-1.798926591873169,-8.401021957397461,-4.728330612182617
1766402564707724300,5.625724365234375,-1.7951405048370361,-8.405167579650879,-4.722399711608887
1766402564717734100,5.635734130859375,-1.7916423082351685,-8.405558586120605,-4.723028659820557
1766402564727713300,5.64571337890625,-1.7885390520095825,-8.406530380249023,-4.722476959228516
1766402564737753600,5.655753662109375,-1.784661054611206,-8.408638000488281,-4.720189094543457
1766402564747763500,5.665763427734375,-1.7858866453170776,-8.410650253295898,-4.716139316558838
1766402564757773000,5.67577294921875,-1.7884812355041504,-8.410798072814941,-4.714890956878662
1766402564767783000,5.685782958984375,-1.7900272607803345,-8.411670684814453,-4.7127509117126465
1766402564777792500,5.69579248046875,-1.7917054891586304,-8.4114408493042,-4.712524890899658
1766402564817892600,5.735892578125,-1.7957285642623901,-8.415534019470215,-4.703676223754883
1766402564838003700,5.756003662109375,-1.7956452369689941,-8.418333053588867,-4.698694705963135
1766402564848044000,5.7660439453125,-1.7954076528549194,-8.420062065124512,-4.695688724517822
1766402564858084400,5.77608447265625,-1.7929285764694214,-8.421205520629883,-4.694578647613525
1766402564868094200,5.78609423828125,-1.7888190746307373,-8.4219970703125,-4.694730758666992
1766402564878103800,5.796103759765625,-1.786929965019226,-8.423079490661621,-4.693506717681885
1766402564888144100,5.80614404296875,-1.7779595851898193,-8.424269676208496,-4.6947760581970215
1766402564918204000,5.836203857421875,-1.7312737703323364,-8.434124946594238,-4.694532871246338
1766402564928183300,5.846183349609375,-1.706332802772522,-8.439408302307129,-4.694169521331787
1766402564938223600,5.8562236328125,-1.6973210573196411,-8.441383361816406,-4.69388484954834
1766402564948264000,5.866263916015625,-1.662245512008667,-8.449971199035645,-4.690981864929199
1766402564958334700,5.876334716796875,-1.637119174003601,-8.455533981323242,-4.689797878265381
1766402564968313900,5.88631396484375,-1.6015666723251343,-8.463711738586426,-4.687319755554199
1766402564988364000,5.906364013671875,-1.5762659311294556,-8.469508171081543,-4.6854248046875
1766402565008414000,5.9264140625,-1.5131572484970093,-8.477145195007324,-4.692416191101074
1766402565018454300,5.936454345703125,-1.497825264930725,-8.478316307067871,-4.695218563079834
1766402565028464000,5.946464111328125,-1.4568613767623901,-8.480496406555176,-4.70416259765625
1766402565048544500,5.96654443359375,-1.4289602041244507,-8.484063148498535,-4.706289768218994
1766402565058554400,5.976554443359375,-1.4149606227874756,-8.48403549194336,-4.710564136505127
1766402565068625200,5.986625244140625,-1.3951681852340698,-8.487895011901855,-4.709514141082764
1766402565078665500,5.99666552734375,-1.3580117225646973,-8.491859436035156,-4.713229656219482
1766402565088675000,6.006675048828125,-1.3134464025497437,-8.498136520385742,-4.714544296264648
1766402565118735000,6.036735107421875,-1.1173903942108154,-8.525186538696289,-4.716250419616699
1766402565128744700,6.04674462890625,-1.0357388257980347,-8.538766860961914,-4.710318088531494
1766402565138785000,6.056784912109375,-0.9881080985069275,-8.545615196228027,-4.708130836486816
1766402565148764400,6.066764404296875,-0.8876873850822449,-8.559549331665039,-4.702821731567383
1766402565158774000,6.07677392578125,-0.7949766516685486,-8.57075023651123,-4.6990065574646
1766402565168784000,6.086783935546875,-0.7194718718528748,-8.579154014587402,-4.695836067199707
1766402565178793700,6.096793701171875,-0.6635388135910034,-8.584351539611816,-4.694572925567627
1766402565188803300,6.10680322265625,-0.6262906789779663,-8.586230278015137,-4.696254730224609
1766402565208853500,6.126853515625,-0.5411934852600098,-8.583868026733398,-4.711124897003174
1766402565218863000,6.136863037109375,-0.5203404426574707,-8.58316421508789,-4.714757442474365
1766402565228873000,6.146873046875,-0.45915430784225464,-8.582452774047852,-4.722404956817627
1766402565238882800,6.1568828125,-0.4393264353275299,-8.582000732421875,-4.725109100341797
1766402565248892400,6.166892333984375,-0.4001139998435974,-8.579975128173828,-4.732264518737793
1766402565258902300,6.17690234375,-0.35208356380462646,-8.576437950134277,-4.742485523223877
1766402565268912000,6.186912109375,-0.309660404920578,-8.575496673583984,-4.747140407562256
1766402565278952200,6.1969521484375,-0.2756592035293579,-8.574263572692871,-4.751463413238525
1766402565288962000,6.206962158203125,-0.2469533383846283,-8.573036193847656,-4.755255222320557
1766402565309012200,6.22701220703125,-0.2115800529718399,-8.571309089660645,-4.760072708129883
1766402565319021800,6.237021728515625,-0.2041635662317276,-8.569961547851562,-4.762824058532715
1766402565329062100,6.247062255859375,-0.20108693838119507,-8.56900405883789,-4.764676094055176
1766402565339072000,6.257072021484375,-0.19546638429164886,-8.566840171813965,-4.768799781799316
1766402565349081600,6.26708154296875,-0.17608685791492462,-8.56622314453125,-4.770660400390625
1766402565359091500,6.277091552734375,-0.16835904121398926,-8.566612243652344,-4.77023983001709
1766402565369101300,6.287101318359375,-0.16705715656280518,-8.568255424499512,-4.767335891723633
1766402565379111000,6.29711083984375,-0.16920842230319977,-8.57042407989502,-4.763356685638428
1766402565389120800,6.307120849609375,-0.17478345334529877,-8.570494651794434,-4.763031005859375
1766402565429251300,6.347251220703125,-0.08014116436243057,-8.572464942932129,-4.762016773223877
1766402565439261200,6.35726123046875,-0.05129895731806755,-8.572113990783691,-4.763050556182861
1766402565449270800,6.367270751953125,0.001002162811346352,-8.571982383728027,-4.763559341430664
1766402565459280600,6.37728076171875,0.10431414097547531,-8.565195083618164,-4.774613857269287
1766402565469290500,6.38729052734375,0.19126863777637482,-8.556259155273438,-4.787927627563477
1766402565479300000,6.397300048828125,0.24728922545909882,-8.550363540649414,-4.79588508605957
1766402565489310000,6.40731005859375,0.3012639880180359,-8.54375171661377,-4.8045735359191895
1766402565499319800,6.41731982421875,0.34207412600517273,-8.535301208496094,-4.8168487548828125
1766402565519339300,6.43733935546875,0.36632177233695984,-8.526220321655273,-4.831127643585205
1766402565529349000,6.44734912109375,0.36304691433906555,-8.524548530578613,-4.834322452545166
1766402565539389200,6.45738916015625,0.35363882780075073,-8.524628639221191,-4.834879398345947
1766402565549399000,6.46739892578125,0.33596259355545044,-8.52680778503418,-4.832297325134277
1766402565559409000,6.477408935546875,0.30490341782569885,-8.530887603759766,-4.827150344848633
1766402565569449200,6.48744921875,0.256740003824234,-8.537124633789062,-4.8189167976379395
1766402565579458800,6.497458740234375,0.19955986738204956,-8.54573917388916,-4.806341171264648
1766402565589468700,6.50746875,0.13250944018363953,-8.556877136230469,-4.788809776306152
1766402565599478500,6.517478515625,0.05191080644726753,-8.568687438964844,-4.7692060470581055
1766402565619498000,6.537498046875,-0.10453596711158752,-8.599286079406738,-4.7129340171813965
1766402565629507800,6.5475078125,-0.14593389630317688,-8.606451034545898,-4.698735237121582
1766402565639517400,6.557517333984375,-0.20309612154960632,-8.61699390411377,-4.677238941192627
1766402565649527300,6.56752734375,-0.24453520774841309,-8.62458610534668,-4.661235809326172
1766402565659537000,6.577536865234375,-0.27737662196159363,-8.630594253540039,-4.64825963973999
1766402565669546800,6.587546630859375,-0.31595703959465027,-8.635951042175293,-4.6358323097229
1766402565679556600,6.597556640625,-0.32889777421951294,-8.63616943359375,-4.634524345397949
1766402565689566200,6.607566162109375,-0.36280035972595215,-8.634417533874512,-4.635258674621582
1766402565699576000,6.617576171875,-0.3715590536594391,-8.631917953491211,-4.639218330383301
1766402565709586000,6.6275859375,-0.4145090878009796,-8.622570991516113,-4.6529412269592285
1766402565739645700,6.657645751953125,-0.5247548818588257,-8.589479446411133,-4.702749252319336
1766402565759695600,6.677695556640625,-0.5731174945831299,-8.569167137145996,-4.734060287475586
1766402565769705500,6.68770556640625,-0.6162270903587341,-8.554461479187012,-4.755191326141357
1766402565779745800,6.697745849609375,-0.6212063431739807,-8.54830551147461,-4.765603065490723
1766402565789755400,6.70775537109375,-0.6569262146949768,-8.532456398010254,-4.789157390594482
1766402565799795700,6.717795654296875,-0.6646908521652222,-8.52588176727295,-4.799781322479248
1766402565809805600,6.7278056640625,-0.6946379542350769,-8.514352798461914,-4.815981388092041
1766402565819815400,6.7378154296875,-0.7309620380401611,-8.501639366149902,-4.833032608032227
1766402565859884800,6.777884765625,-0.9212808012962341,-8.445595741271973,-4.898322105407715
1766402565869894700,6.787894775390625,-0.9680929780006409,-8.43127155303955,-4.913943290710449
1766402565879904500,6.797904541015625,-1.0144824981689453,-8.418205261230469,-4.926969051361084
1766402565889914000,6.8079140625,-1.0627473592758179,-8.406063079833984,-4.937517166137695
1766402565899954400,6.817954345703125,-1.111481785774231,-8.397261619567871,-4.941762447357178
1766402565909964300,6.82796435546875,-1.1607791185379028,-8.38936710357666,-4.9438395500183105
1766402565919974100,6.83797412109375,-1.2116833925247192,-8.372156143188477,-4.96076774597168
1766402565950064400,6.868064453125,-1.3097643852233887,-8.341992378234863,-4.986593246459961
1766402565970114300,6.8881142578125,-1.3713418245315552,-8.325736045837402,-4.997194766998291
1766402565990164500,6.90816455078125,-1.450612187385559,-8.301286697387695,-5.015454292297363
1766402566000174300,6.91817431640625,-1.5011731386184692,-8.286301612854004,-5.025345325469971
1766402566010245000,6.9282451171875,-1.5169920921325684,-8.283154487609863,-5.025781154632568
1766402566020254700,6.938254638671875,-1.5546600818634033,-8.272607803344727,-5.031641006469727
1766402566030264600,6.9482646484375,-1.5657457113265991,-8.269911766052246,-5.0326337814331055
1766402566060324400,6.978324462890625,-1.6136341094970703,-8.245060920715332,-5.0582170486450195
1766402566070334200,6.988334228515625,-1.6447088718414307,-8.2328462600708,-5.068094253540039
1766402566080374500,6.99837451171875,-1.667314052581787,-8.221638679504395,-5.078890800476074
1766402566090414600,7.00841455078125,-1.6905936002731323,-8.20913314819336,-5.091407775878906
1766402566100424400,7.018424560546875,-1.709816813468933,-8.195292472839355,-5.107260704040527
1766402566110434300,7.028434326171875,-1.7173789739608765,-8.1853666305542,-5.120626926422119
1766402566120474600,7.038474609375,-1.743628978729248,-8.169360160827637,-5.137287616729736
1766402566130484200,7.048484130859375,-1.770561933517456,-8.15080738067627,-5.157503128051758
1766402566150504000,7.06850390625,-1.8266583681106567,-8.1163330078125,-5.192188262939453
1766402566160574700,7.07857470703125,-1.8684340715408325,-8.091058731079102,-5.216717720031738
1766402566170553900,7.088553955078125,-1.883270263671875,-8.081233978271484,-5.226597309112549
1766402566180563700,7.098563720703125,-1.9281084537506104,-8.055224418640137,-5.250352382659912
1766402566190573300,7.1085732421875,-1.9570646286010742,-8.037555694580078,-5.266685485839844
1766402566200583200,7.118583251953125,-1.9850445985794067,-8.020417213439941,-5.282320976257324
1766402566210593000,7.128593017578125,-2.012340545654297,-8.004681587219238,-5.295844554901123
1766402566220602600,7.1386025390625,-2.0257084369659424,-7.997003078460693,-5.302341938018799
1766402566230612500,7.148612548828125,-2.0612754821777344,-7.975069999694824,-5.321630954742432
1766402566260641800,7.178641845703125,-2.1246511936187744,-7.945437908172607,-5.340999126434326
1766402566270651400,7.1886513671875,-2.1342334747314453,-7.943506717681885,-5.340053558349609
1766402566280661200,7.1986611328125,-2.1499826908111572,-7.938052654266357,-5.341842174530029
1766402566290671000,7.208671142578125,-2.172180414199829,-7.929309844970703,-5.34584903717041
1766402566300711400,7.21871142578125,-2.188718795776367,-7.924975872039795,-5.345525741577148
1766402566310721000,7.228720947265625,-2.2057905197143555,-7.920526027679443,-5.3451080322265625
1766402566320731000,7.23873095703125,-2.218514919281006,-7.916156768798828,-5.346312046051025
1766402566330771200,7.248771240234375,-2.229501247406006,-7.913557529449463,-5.345591068267822
1766402566340780800,7.25878076171875,-2.2374768257141113,-7.912230968475342,-5.344225883483887
1766402566370810000,7.28881005859375,-2.266218662261963,-7.905013561248779,-5.342790126800537
1766402566380820000,7.298820068359375,-2.284925699234009,-7.899825572967529,-5.342494964599609
1766402566390829800,7.308829833984375,-2.2922403812408447,-7.897085666656494,-5.343413352966309
1766402566400839400,7.31883935546875,-2.31252121925354,-7.8914008140563965,-5.343075752258301
1766402566410849300,7.328849365234375,-2.324270486831665,-7.888338088989258,-5.3424973487854
1766402566420889600,7.3388896484375,-2.3288750648498535,-7.886777400970459,-5.34279727935791
1766402566430899200,7.348899169921875,-2.3409926891326904,-7.8847174644470215,-5.340539455413818
1766402566440970200,7.35897021484375,-2.3487212657928467,-7.883582592010498,-5.3388237953186035
1766402566491110400,7.4091103515625,-2.3576626777648926,-7.8831682205200195,-5.3354926109313965
1766402566501120300,7.419120361328125,-2.358534574508667,-7.880748748779297,-5.338682651519775
1766402566511130000,7.429130126953125,-2.3612654209136963,-7.878223419189453,-5.341200828552246
1766402566521139700,7.4391396484375,-2.364839792251587,-7.874774932861328,-5.344702243804932
1766402566531149600,7.449149658203125,-2.3673055171966553,-7.872677803039551,-5.346704006195068
1766402566541159400,7.459159423828125,-2.3686580657958984,-7.866765022277832,-5.354796409606934
1766402566581228800,7.499228759765625,-2.3804776668548584,-7.8543524742126465,-5.367762088775635
1766402566591238700,7.50923876953125,-2.3855953216552734,-7.853296279907227,-5.36703634262085
1766402566601248500,7.51924853515625,-2.3926339149475098,-7.853134632110596,-5.364141464233398
1766402566611258000,7.529258056640625,-2.3994767665863037,-7.853597164154053,-5.360401153564453
1766402566621268000,7.53926806640625,-2.4035263061523438,-7.856534957885742,-5.354281902313232
1766402566631277800,7.54927783203125,-2.4061877727508545,-7.859004020690918,-5.349459648132324
1766402566641287400,7.559287353515625,-2.407114028930664,-7.862276554107666,-5.3442301750183105
1766402566651297300,7.56929736328125,-2.4095563888549805,-7.862945556640625,-5.342145919799805
1766402566671347200,7.58934716796875,-2.420611619949341,-7.8596673011779785,-5.341972351074219
1766402566681357000,7.599357177734375,-2.4269795417785645,-7.857980251312256,-5.34156608581543
1766402566711416800,7.629416748046875,-2.445103883743286,-7.847604751586914,-5.348546028137207
1766402566721426700,7.6394267578125,-2.4543023109436035,-7.840531349182129,-5.354705333709717
1766402566731436500,7.6494365234375,-2.457630157470703,-7.838473796844482,-5.356191635131836
1766402566741446100,7.659446044921875,-2.4647979736328125,-7.834482669830322,-5.358738899230957
1766402566751456000,7.6694560546875,-2.4722542762756348,-7.829296588897705,-5.362879753112793
1766402566761465600,7.679465576171875,-2.4822704792022705,-7.822931289672852,-5.3675360679626465
1766402566821585400,7.73958544921875,-2.5149524211883545,-7.801673889160156,-5.383243083953857
1766402566831595000,7.749594970703125,-2.5171079635620117,-7.800394058227539,-5.384090900421143
1766402566841635300,7.75963525390625,-2.5180842876434326,-7.799468040466309,-5.384974479675293
1766402566851706000,7.7697060546875,-2.5197441577911377,-7.798297882080078,-5.38589334487915
1766402566861746400,7.779746337890625,-2.520387649536133,-7.799067974090576,-5.384476661682129
1766402566881766000,7.799765869140625,-2.5234532356262207,-7.800511360168457,-5.380947113037109
1766402566901816000,7.819816162109375,-2.5254762172698975,-7.80240535736084,-5.377254962921143
1766402566911826000,7.829825927734375,-2.5243499279022217,-7.801564693450928,-5.379003047943115
1766402566921835500,7.83983544921875,-2.5212950706481934,-7.8040452003479,-5.376836776733398
1766402566931875800,7.849875732421875,-2.5196034908294678,-7.805581569671631,-5.375396251678467
1766402566941885700,7.8598857421875,-2.5166263580322266,-7.80759334564209,-5.373870849609375
1766402566951864800,7.86986474609375,-2.5135374069213867,-7.8097310066223145,-5.3722124099731445
1766402566961905200,7.8799052734375,-2.5153353214263916,-7.81052827835083,-5.3702073097229
1766402566971884500,7.889884521484375,-2.5179014205932617,-7.810631275177002,-5.368856430053711
1766402566991904000,7.909904052734375,-2.531787157058716,-7.805858612060547,-5.36926794052124
1766402567021933300,7.939933349609375,-2.548121213912964,-7.800355911254883,-5.369534492492676
1766402567031943000,7.94994287109375,-2.5501327514648438,-7.799850940704346,-5.369314193725586
1766402567041952800,7.959952880859375,-2.5502142906188965,-7.800233840942383,-5.3687214851379395
1766402567051993000,7.9699931640625,-2.5497374534606934,-7.799279689788818,-5.370330810546875
1766402567062003000,7.9800029296875,-2.549161911010742,-7.795819282531738,-5.37562894821167
1766402567072012500,7.990012451171875,-2.5481226444244385,-7.794845104217529,-5.3775315284729
1766402567082022400,8.0000224609375,-2.5480101108551025,-7.794546127319336,-5.378021717071533
1766402567102103000,8.02010302734375,-2.552103042602539,-7.793663501739502,-5.377357006072998
1766402567112112600,8.030112548828125,-2.5516817569732666,-7.794750213623047,-5.375982761383057
1766402567122122500,8.04012255859375,-2.5509188175201416,-7.795513153076172,-5.375235557556152
1766402567132132400,8.05013232421875,-2.5487678050994873,-7.797226905822754,-5.373773574829102
1766402567142203100,8.060203125,-2.5464799404144287,-7.799488544464111,-5.371576309204102
1766402567152182300,8.070182373046874,-2.5435800552368164,-7.803835391998291,-5.3666300773620605
1766402567162222600,8.08022265625,-2.540921688079834,-7.8092193603515625,-5.360052585601807
1766402567172232400,8.090232421875,-2.5403292179107666,-7.81297492980957,-5.354859352111816
1766402567182242000,8.100241943359375,-2.5400428771972656,-7.821429252624512,-5.342647075653076
1766402567192252000,8.110251953125,-2.541416645050049,-7.8299689292907715,-5.329461574554443
1766402567222250800,8.140250732421874,-2.5557875633239746,-7.850760459899902,-5.291874885559082
1766402567232260400,8.15026025390625,-2.563742160797119,-7.859074592590332,-5.275660991668701
1766402567242270200,8.160270263671874,-2.5717267990112305,-7.866182327270508,-5.2611589431762695
1766402567252341000,8.170341064453124,-2.577916383743286,-7.878044605255127,-5.240336894989014
1766402567262381300,8.18038134765625,-2.578150510787964,-7.880914211273193,-5.23590612411499
1766402567272391000,8.190390869140625,-2.5779130458831787,-7.890310764312744,-5.221852779388428
1766402567282400800,8.20040087890625,-2.576251745223999,-7.900688648223877,-5.206965446472168
1766402567292441000,8.210441162109374,-2.5746009349823,-7.912436008453369,-5.189908504486084
1766402567312491000,8.230490966796875,-2.574986696243286,-7.937173366546631,-5.151812553405762
1766402567322500900,8.2405009765625,-2.573998212814331,-7.955742835998535,-5.123584747314453
1766402567332510700,8.2505107421875,-2.574422597885132,-7.963217258453369,-5.111744403839111
1766402567342520300,8.260520263671875,-2.5761516094207764,-7.975435256958008,-5.091783046722412
1766402567352530200,8.2705302734375,-2.575948476791382,-7.986772060394287,-5.074084758758545
1766402567362540000,8.2805400390625,-2.5745182037353516,-8.000308990478516,-5.0534443855285645
1766402567372549600,8.290549560546875,-2.572826623916626,-8.00590705871582,-5.045432090759277
1766402567382620400,8.300620361328125,-2.571058750152588,-8.015179634094238,-5.031593322753906
1766402567392599800,8.310599853515624,-2.567810297012329,-8.025392532348633,-5.0169525146484375
1766402567402609400,8.320609375,-2.56256103515625,-8.03699779510498,-5.001030445098877
1766402567432638700,8.350638671875,-2.5353775024414062,-8.084653854370117,-4.937673568725586
1766402567442648600,8.360648681640624,-2.5198662281036377,-8.104936599731445,-4.912295341491699
1766402567452658400,8.370658447265624,-2.506239891052246,-8.125475883483887,-4.885260581970215
1766402567462668000,8.38066796875,-2.484738826751709,-8.154603958129883,-4.847569465637207
1766402567472678000,8.390677978515624,-2.4770684242248535,-8.164690971374512,-4.834493637084961
1766402567482687700,8.400687744140624,-2.465576171875,-8.1798095703125,-4.8147759437561035
1766402567492697300,8.410697265625,-2.448181390762329,-8.202394485473633,-4.78513765335083
1766402567502737700,8.420737548828125,-2.442302703857422,-8.209440231323242,-4.776045322418213
1766402567512747500,8.43074755859375,-2.4221413135528564,-8.233720779418945,-4.744420051574707
1766402567542807300,8.460807373046874,-2.385768413543701,-8.274157524108887,-4.692208766937256
1766402567552817200,8.470817138671874,-2.3570566177368164,-8.299497604370117,-4.661861896514893
1766402567572836600,8.490836669921874,-2.3298802375793457,-8.325295448303223,-4.629412651062012
1766402567582877000,8.500876953125,-2.305043935775757,-8.3439359664917,-4.608243942260742
1766402567592886500,8.510886474609375,-2.259456157684326,-8.37435245513916,-4.575536251068115
1766402567602896400,8.520896484375,-2.2260916233062744,-8.395445823669434,-4.553175926208496
1766402567622915800,8.540915771484375,-2.1567625999450684,-8.437703132629395,-4.508206844329834
1766402567632956200,8.5509560546875,-2.119040012359619,-8.459562301635742,-4.4850687980651855
1766402567642966000,8.560966064453124,-2.1013810634613037,-8.470083236694336,-4.473510265350342
1766402567652975600,8.5709755859375,-2.059774160385132,-8.492311477661133,-4.450658321380615
1766402567662985500,8.5809853515625,-2.0134615898132324,-8.51465892791748,-4.429100036621094
1766402567672995300,8.590995361328124,-1.929990291595459,-8.55003547668457,-4.397998332977295
1766402567683005000,8.6010048828125,-1.8705123662948608,-8.573080062866211,-4.378796577453613
1766402567693014800,8.611014892578124,-1.8067671060562134,-8.596291542053223,-4.360015392303467
1766402567703024600,8.621024658203124,-1.7378801107406616,-8.619269371032715,-4.342626094818115
1766402567713034200,8.6310341796875,-1.6612813472747803,-8.642812728881836,-4.325777053833008
1766402567743094000,8.661093994140625,-1.3747186660766602,-8.727538108825684,-4.255661487579346
1766402567753104000,8.671103759765625,-1.3200751543045044,-8.744361877441406,-4.238387107849121
1766402567763144200,8.681144287109374,-1.2018934488296509,-8.786322593688965,-4.1864495277404785
1766402567773184500,8.6911845703125,-1.0744184255599976,-8.83698844909668,-4.113837242126465
1766402567783194000,8.701194091796875,-0.8729630708694458,-8.927099227905273,-3.9642410278320312
1766402567793173500,8.711173583984374,-0.7348009943962097,-8.988387107849121,-3.8521876335144043
1766402567803183400,8.721183349609374,-0.6636438965797424,-9.017582893371582,-3.79647159576416
1766402567813223400,8.731223388671875,-0.5164738893508911,-9.073028564453125,-3.6856210231781006
1766402567823263700,8.741263671875,-0.2876836657524109,-9.150666236877441,-3.514669895172119
1766402567843314000,8.76131396484375,-0.055196091532707214,-9.215156555175781,-3.353834867477417
1766402567853323500,8.771323486328125,0.10165659338235855,-9.251469612121582,-3.251211166381836
1766402567863333400,8.78133349609375,0.3668333888053894,-9.295293807983398,-3.103762149810791
1766402567873343200,8.79134326171875,0.5824527144432068,-9.297795295715332,-3.0630311965942383
1766402567883352800,8.801352783203125,0.7105138301849365,-9.262179374694824,-3.142866611480713
1766402567893362700,8.81136279296875,0.9799209237098694,-9.250308990478516,-3.1051440238952637
1766402567903372500,8.82137255859375,1.268922209739685,-9.225146293640137,-3.0752108097076416
1766402567913382100,8.831382080078125,1.5588760375976562,-9.169075012207031,-3.109398126602173
1766402567923422500,8.84142236328125,1.9657223224639893,-9.039246559143066,-3.2555136680603027
1766402567943472600,8.86147265625,2.3295700550079346,-8.883005142211914,-3.4403088092803955
1766402567953482200,8.871482177734375,2.5643749237060547,-8.786908149719238,-3.519179344177246
1766402567963492000,8.8814921875,2.804682970046997,-8.67275333404541,-3.6176626682281494
1766402567973532400,8.891532470703124,3.0488808155059814,-8.538145065307617,-3.7382893562316895
1766402567983572700,8.90157275390625,3.3949978351593018,-8.311250686645508,-3.9455678462982178
1766402567993552000,8.9115517578125,3.5019140243530273,-8.231256484985352,-4.019130706787109
1766402568003561700,8.921561767578124,3.696251153945923,-8.068355560302734,-4.172501564025879
1766402568013602000,8.93160205078125,3.866213083267212,-7.903250694274902,-4.331445693969727
1766402568023611600,8.941611572265625,4.072265148162842,-7.657939434051514,-4.576351642608643
1766402568033652000,8.95165185546875,4.132589340209961,-7.576837539672852,-4.6565680503845215
1766402568053702100,8.9717021484375,4.317610740661621,-7.267875671386719,-4.970574378967285
1766402568063742200,8.9817421875,4.380967140197754,-7.153598308563232,-5.079720497131348
1766402568073782500,8.991782470703125,4.427279472351074,-7.0445709228515625,-5.190722942352295
1766402568083792400,9.00179248046875,4.4610443115234375,-6.921579360961914,-5.325526237487793
1766402568093802200,9.01180224609375,4.481771469116211,-6.8063530921936035,-5.455058574676514
1766402568103842300,9.02184228515625,4.486721515655518,-6.709817409515381,-5.569387435913086
1766402568113821700,9.03182177734375,4.476661682128906,-6.644692897796631,-5.654904365539551
1766402568123862000,9.041862060546874,4.429920196533203,-6.6747212409973145,-5.656350135803223
1766402568133871600,9.05187158203125,4.364968299865723,-6.715202808380127,-5.658930778503418
1766402568153860900,9.07186083984375,4.068852424621582,-6.947856426239014,-5.598403453826904
1766402568163931600,9.081931640625,3.9548702239990234,-7.0779242515563965,-5.51655387878418
1766402568173910800,9.091910888671874,3.7275590896606445,-7.346104621887207,-5.320756912231445
1766402568183920600,9.101920654296874,3.618586778640747,-7.417603969573975,-5.296733379364014
1766402568193991400,9.111991455078124,3.540006637573242,-7.466085433959961,-5.281696796417236
1766402568204001000,9.1220009765625,3.4848058223724365,-7.505455017089844,-5.262570381164551
1766402568214071800,9.13207177734375,3.463472604751587,-7.560528755187988,-5.197417736053467
1766402568224081700,9.14208154296875,3.4733214378356934,-7.553075313568115,-5.201683044433594
1766402568234091500,9.152091552734374,3.5892221927642822,-7.466654300689697,-5.24756383895874
1766402568264151300,9.1821513671875,3.934391498565674,-7.217597484588623,-5.34763765335083
1766402568274161200,9.1921611328125,3.95341420173645,-7.201911926269531,-5.354751110076904
1766402568294241500,9.212241455078125,3.9125969409942627,-7.236222267150879,-5.338450908660889
1766402568304251400,9.22225146484375,3.8798587322235107,-7.269889831542969,-5.316556453704834
1766402568314291700,9.232291748046874,3.8801841735839844,-7.282801628112793,-5.298619270324707
1766402568324301300,9.24230126953125,3.9343183040618896,-7.251521587371826,-5.301600933074951
1766402568344321000,9.262321044921874,4.161276340484619,-7.078010559082031,-5.362456321716309
1766402568354330600,9.27233056640625,4.198037624359131,-7.046437740325928,-5.375369548797607
1766402568364340500,9.282340576171874,4.264540672302246,-6.989078044891357,-5.397857666015625
1766402568374350300,9.292350341796874,4.308990955352783,-6.945209503173828,-5.419137477874756
1766402568384360000,9.30235986328125,4.326234817504883,-6.92249059677124,-5.434444427490234
1766402568394369800,9.312369873046874,4.315423011779785,-6.924249172210693,-5.440797805786133
1766402568404379600,9.322379638671874,4.274660587310791,-6.95156192779541,-5.43814754486084
1766402568414389200,9.33238916015625,4.20569372177124,-7.008263111114502,-5.4191131591796875
1766402568424399000,9.342399169921874,4.1191487312316895,-7.08734130859375,-5.382620334625244
1766402568434409000,9.352408935546874,4.007855415344238,-7.198779582977295,-5.318369388580322
1766402568464468700,9.38246875,3.9488167762756348,-7.3033576011657715,-5.219021797180176
1766402568474478300,9.392478271484375,3.9700870513916016,-7.320948123931885,-5.17808198928833
1766402568484518700,9.4025185546875,3.9869534969329834,-7.336395263671875,-5.143141746520996
1766402568494559000,9.41255908203125,3.9780335426330566,-7.343526840209961,-5.139866828918457
1766402568504568800,9.42256884765625,3.923675775527954,-7.383903503417969,-5.123779773712158
1766402568514578400,9.432578369140625,3.825270652770996,-7.469883441925049,-5.073314666748047
1766402568524588300,9.44258837890625,3.7046592235565186,-7.565657138824463,-5.020630359649658
1766402568534567400,9.4525673828125,3.58882999420166,-7.656689643859863,-4.96646785736084
1766402568544607700,9.462607666015625,3.503019094467163,-7.723418712615967,-4.924232482910156
1766402568584799500,9.502799560546874,3.6365129947662354,-7.65761137008667,-4.930228233337402
1766402568594778600,9.512778564453125,3.639401912689209,-7.648760795593262,-4.941823959350586
1766402568604788500,9.52278857421875,3.6055386066436768,-7.657413959503174,-4.953232765197754
1766402568614828800,9.532828857421874,3.5877115726470947,-7.661731719970703,-4.9594950675964355
1766402568634848300,9.55284814453125,3.5296854972839355,-7.656571865081787,-5.008853912353516
1766402568644888600,9.562888671875,3.549605131149292,-7.623139381408691,-5.045637607574463
1766402568654898400,9.5728984375,3.5785739421844482,-7.5799455642700195,-5.090051651000977
1766402568684958200,9.602958251953124,3.5459413528442383,-7.566396236419678,-5.132867336273193
1766402568694998500,9.61299853515625,3.4830269813537598,-7.5897345542907715,-5.141482830047607
1766402568705008000,9.623008056640625,3.4679479598999023,-7.566580295562744,-5.18561315536499
1766402568715018000,9.63301806640625,3.4986634254455566,-7.491857528686523,-5.272742748260498
1766402568725027800,9.64302783203125,3.540825366973877,-7.4255218505859375,-5.3380303382873535
1766402568735068000,9.65306787109375,3.610755205154419,-7.339743137359619,-5.409343242645264
1766402568745077800,9.663077880859374,3.718693733215332,-7.2320661544799805,-5.480776786804199
1766402568755087600,9.673087646484374,3.870069742202759,-7.10515832901001,-5.541632175445557
1766402568765066800,9.683066650390625,3.9791388511657715,-7.016027450561523,-5.577830791473389
1766402568795157200,9.7131572265625,4.266524791717529,-6.765182971954346,-5.674456596374512
1766402568805166800,9.723166748046875,4.297778129577637,-6.731574535369873,-5.690814971923828
1766402568815207200,9.733207275390624,4.300240993499756,-6.714502334594727,-5.709094524383545
1766402568825217000,9.743217041015624,4.223968029022217,-6.747486591339111,-5.7271223068237305
1766402568835226600,9.7532265625,4.149064540863037,-6.77544641494751,-5.748824119567871
1766402568845236500,9.763236572265624,4.044787406921387,-6.804922580718994,-5.788188934326172
1766402568855276800,9.77327685546875,3.9520041942596436,-6.830117702484131,-5.822505474090576
1766402568865347600,9.78334765625,3.9073407649993896,-6.841348171234131,-5.839437961578369
1766402568905386500,9.823386474609375,3.6461737155914307,-6.755581378936768,-6.102288246154785
1766402568915396400,9.833396240234375,3.6149508953094482,-6.761473655700684,-6.114328861236572
1766402568925436700,9.843436767578124,3.562481164932251,-6.648649215698242,-6.266944408416748
1766402568935477000,9.85347705078125,3.5387213230133057,-6.610538005828857,-6.320491790771484
1766402568945486600,9.863486572265625,3.4817516803741455,-6.522434234619141,-6.442488193511963
1766402568955496400,9.873496337890625,3.3867852687835693,-6.3930768966674805,-6.620319366455078
1766402568965506300,9.88350634765625,3.3532044887542725,-6.351589202880859,-6.677104949951172
1766402568975546600,9.893546630859374,3.22074818611145,-6.2384819984436035,-6.846787929534912
1766402569015646700,9.933646728515624,2.8604226112365723,-6.016445159912109,-7.196579933166504
1766402569025687000,9.94368701171875,2.6604552268981934,-5.947079181671143,-7.329709529876709
1766402569035696600,9.953696533203125,2.494126796722412,-5.914149284362793,-7.414348125457764
1766402569045706500,9.96370654296875,2.3053340911865234,-5.887228012084961,-7.496424198150635
1766402569055716000,9.973716064453125,2.0998268127441406,-5.862638473510742,-7.575657844543457
1766402569065726000,9.983725830078125,2.010767936706543,-5.859055042266846,-7.602545738220215
1766402569075735800,9.99373583984375,1.6848055124282837,-5.832796573638916,-7.70131778717041
1766402569085776100,10.003776123046874,1.5837465524673462,-5.826940059661865,-7.72715425491333
1766402569095785700,10.01378564453125,1.3788114786148071,-5.806358814239502,-7.781740188598633
1766402569135855400,10.05385546875,0.9856933355331421,-5.517706871032715,-8.046969413757324
1766402569145865200,10.063865234375,0.8891829252243042,-5.4292802810668945,-8.118046760559082
1766402569155905500,10.073905517578124,0.8477414846420288,-5.381701469421387,-8.154080390930176
1766402569165915100,10.0839150390625,0.7144710421562195,-5.302944183349609,-8.218195915222168
1766402569175955500,10.09395556640625,0.4874570667743683,-5.17397928237915,-8.316412925720215
1766402569185965300,10.10396533203125,0.3300672471523285,-5.082153797149658,-8.380522727966309
1766402569195975000,10.113974853515625,0.1741945445537567,-4.981235027313232,-8.445551872253418
1766402569216025000,10.134025146484374,-0.03278437256813049,-4.825438976287842,-8.537239074707031
1766402569226065400,10.1440654296875,-0.1611199527978897,-4.714705944061279,-8.597441673278809
1766402569236075000,10.154074951171875,-0.3273886740207672,-4.542184352874756,-8.685145378112793
1766402569246084900,10.1640849609375,-0.37581193447113037,-4.486751079559326,-8.711957931518555
1766402569256094700,10.1740947265625,-0.48531684279441833,-4.3101983070373535,-8.795286178588867
1766402569266104300,10.184104248046875,-0.5201888084411621,-4.252191543579102,-8.821488380432129
1766402569276114200,10.1941142578125,-0.6013298034667969,-4.081045627593994,-8.896845817565918
1766402569286124000,10.2041240234375,-0.6454986333847046,-3.967111587524414,-8.945152282714844
1766402569296133600,10.214133544921875,-0.6656845211982727,-3.907883644104004,-8.969710350036621
1766402569306143500,10.2241435546875,-0.6949629187583923,-3.7308027744293213,-9.042593955993652
1766402569346213000,10.264213134765624,-0.8154720664024353,-3.25838303565979,-9.21348762512207
1766402569356222700,10.27422265625,-0.8379676938056946,-3.203953504562378,-9.23054027557373
1766402569366202000,10.2842021484375,-0.8749199509620667,-3.109227180480957,-9.259461402893066
1766402569376242400,10.294242431640624,-0.9304723739624023,-3.0022895336151123,-9.289288520812988
1766402569386282500,10.304282470703125,-0.9870687127113342,-2.9508707523345947,-9.299918174743652
1766402569396322800,10.31432275390625,-1.0604647397994995,-2.8877980709075928,-9.311630249023438
1766402569406332700,10.324332763671874,-1.1348966360092163,-2.7934272289276123,-9.331623077392578
1766402569436423000,10.3544228515625,-1.2986171245574951,-2.50925350189209,-9.390828132629395
1766402569446402300,10.36440234375,-1.3886417150497437,-2.4072418212890625,-9.404640197753906
1766402569456442600,10.374442626953124,-1.4292805194854736,-2.3778979778289795,-9.406017303466797
1766402569466421800,10.384421875,-1.5506179332733154,-2.3377068042755127,-9.396867752075195
1766402569476431600,10.394431640625,-1.6373580694198608,-2.305959701538086,-9.389997482299805
1766402569486441200,10.404441162109375,-1.7074387073516846,-2.275744915008545,-9.384883880615234
1766402569496481500,10.4144814453125,-1.7883471250534058,-2.2570641040802,-9.374320983886719
1766402569506521900,10.42452197265625,-1.8790842294692993,-2.247175931930542,-9.35893440246582
1766402569556570600,10.474570556640625,-2.3198258876800537,-2.187072515487671,-9.273917198181152
1766402569566641400,10.484641357421875,-2.370185375213623,-2.1677863597869873,-9.265707015991211
1766402569576651300,10.4946513671875,-2.402317762374878,-2.158489465713501,-9.259601593017578
1766402569586691600,10.504691650390624,-2.4217395782470703,-2.165470600128174,-9.252910614013672
1766402569596701400,10.514701416015624,-2.429163694381714,-2.174268960952759,-9.248897552490234
1766402569606772200,10.524772216796874,-2.4496757984161377,-2.229915142059326,-9.23022174835205
1766402569616751400,10.53475146484375,-2.456556797027588,-2.2510719299316406,-9.22325325012207
1766402569656851500,10.5748515625,-2.4798686504364014,-2.4483489990234375,-9.166584014892578
1766402569666891800,10.584891845703124,-2.4736621379852295,-2.478755474090576,-9.16008472442627
1766402569676901600,10.594901611328124,-2.4652023315429688,-2.4950568675994873,-9.157940864562988
1766402569686941700,10.604941650390625,-2.4627106189727783,-2.4960227012634277,-9.158347129821777
1766402569696951600,10.61495166015625,-2.4556665420532227,-2.498924970626831,-9.159446716308594
1766402569706961400,10.62496142578125,-2.4414169788360596,-2.5424206256866455,-9.151283264160156
1766402569716971000,10.634970947265625,-2.374133825302124,-2.780959129333496,-9.099459648132324
1766402569726980900,10.64498095703125,-2.3505420684814453,-2.866072416305542,-9.079151153564453
1766402569736990700,10.65499072265625,-2.3272862434387207,-2.941868543624878,-9.060879707336426
1766402569777090800,10.6950908203125,-2.13832950592041,-3.342869997024536,-8.967897415161133
1766402569787100400,10.705100341796875,-2.0990188121795654,-3.3939731121063232,-8.957983016967773
1766402569797110300,10.7151103515625,-2.007848024368286,-3.5061187744140625,-8.935664176940918
1766402569807150600,10.725150634765624,-1.908402681350708,-3.6267449855804443,-8.909272193908691
1766402569817191000,10.73519091796875,-1.7957226037979126,-3.7484700679779053,-8.882269859313965
1766402569827200500,10.745200439453125,-1.6609458923339844,-3.8783791065216064,-8.85267448425293
1766402569847220200,10.76522021484375,-1.355873942375183,-4.139500617980957,-8.78615665435791
1766402569857229800,10.775229736328125,-1.1455845832824707,-4.275463104248047,-8.750910758972168
1766402569867270100,10.785270263671874,-0.9032412171363831,-4.408503532409668,-8.713188171386719
1766402569877280000,10.795280029296874,-0.6397832036018372,-4.537320137023926,-8.670283317565918
1766402569887320300,10.8053203125,-0.35575348138809204,-4.656649112701416,-8.62319278717041
1766402569897330000,10.815329833984375,0.09380582720041275,-4.822137832641602,-8.538652420043945
1766402569907339800,10.82533984375,0.24871639907360077,-4.871474266052246,-8.507482528686523
1766402569917349600,10.835349609375,0.5652794241905212,-4.958008289337158,-8.442096710205078
1766402569927420400,10.84542041015625,0.8817083239555359,-5.04426908493042,-8.36351203918457
1766402569937430000,10.855429931640625,1.3406620025634766,-5.189128398895264,-8.212549209594727
1766402569957449700,10.87544970703125,1.9409915208816528,-5.414838790893555,-7.942448139190674
1766402569967459300,10.885459228515625,2.0859084129333496,-5.479517459869385,-7.860933303833008
1766402569977469200,10.89546923828125,2.352123975753784,-5.632853031158447,-7.675210952758789
1766402569987478800,10.905478759765625,2.601137161254883,-5.813122749328613,-7.457350254058838
1766402569997488600,10.915488525390625,2.8407742977142334,-6.0134196281433105,-7.206883430480957
1766402570007529000,10.925529052734374,3.0589492321014404,-6.243984699249268,-6.915626049041748
1766402570017538800,10.935538818359374,3.258068323135376,-6.4829487800598145,-6.597481727600098
1766402570027548400,10.94554833984375,3.3795487880706787,-6.8030219078063965,-6.202253341674805
1766402570037558300,10.955558349609374,3.5479884147644043,-7.0605082511901855,-5.807872772216797
1766402570057608200,10.975608154296875,3.9150805473327637,-7.664222717285156,-4.701301097869873
1766402570077658400,10.995658447265624,4.104202747344971,-7.976348876953125,-3.962798833847046
1766402570087668200,11.005668212890624,4.257002353668213,-8.133280754089355,-3.449357509613037
1766402570097677800,11.015677734375,4.433424472808838,-8.2440767288208,-2.9240965843200684
1766402570107718100,11.02571826171875,4.616920471191406,-8.316566467285156,-2.3851962089538574
1766402570117789000,11.035788818359375,4.766561508178711,-8.371724128723145,-1.8342630863189697
1766402570127798800,11.045798828125,4.850881099700928,-8.42789077758789,-1.2688548564910889
1766402570137808400,11.055808349609375,4.866388320922852,-8.485809326171875,-0.6925888657569885
1766402570177939200,11.095939208984374,4.376208305358887,-8.549581527709961,1.9808660745620728
1766402570187948800,11.10594873046875,4.272593975067139,-8.530189514160156,2.2696259021759033
1766402570197989000,11.115989013671875,4.023940563201904,-8.477521896362305,2.847790002822876
1766402570208029400,11.126029541015624,3.7553184032440186,-8.393121719360352,3.409322500228882
1766402570218039300,11.136039306640624,3.4945452213287354,-8.274199485778809,3.9365196228027344
1766402570228049000,11.146048828125,3.2491040229797363,-8.121644020080566,4.433127403259277
1766402570238089200,11.156089111328125,3.024399995803833,-7.944880485534668,4.88899564743042
1766402570248099000,11.16609912109375,2.8541643619537354,-7.769933223724365,5.258542537689209
1766402570298178300,11.21617822265625,2.162750005722046,-6.54843807220459,6.97214937210083
1766402570308188200,11.226188232421874,2.103363275527954,-6.312242031097412,7.204295635223389
1766402570338248000,11.256248046875,2.0396621227264404,-5.7561259269714355,7.673147678375244
1766402570348257800,11.2662578125,2.053971290588379,-5.554232120513916,7.816784381866455
1766402570358267400,11.276267333984375,2.0881149768829346,-5.367761611938477,7.937083721160889
1766402570368277200,11.28627734375,2.1379082202911377,-5.1913533210754395,8.040495872497559
1766402570378287000,11.296287109375,2.206141948699951,-5.022821426391602,8.12862777709961
1766402570398337000,11.3163369140625,2.380897283554077,-4.718570232391357,8.260557174682617
1766402570408347000,11.326346923828124,2.4685938358306885,-4.583626747131348,8.31064510345459
1766402570418387200,11.33638720703125,2.5921647548675537,-4.400422096252441,8.371820449829102
1766402570428396800,11.346396728515625,2.6317150592803955,-4.34234619140625,8.389785766601562
1766402570438406700,11.35640673828125,2.74895977973938,-4.173856258392334,8.437566757202148
1766402570448416500,11.36641650390625,2.8259246349334717,-4.0656561851501465,8.464926719665527
1766402570458395600,11.376395751953124,2.8633453845977783,-4.01314115524292,8.477401733398438
1766402570468405500,11.386405517578124,2.954336643218994,-3.8851025104522705,8.505776405334473
1766402570478415000,11.3964150390625,2.996804714202881,-3.822150945663452,8.519432067871094
1766402570518484700,11.436484619140625,3.1127982139587402,-3.7021000385284424,8.53084659576416
1766402570528525000,11.446525146484374,3.1462159156799316,-3.6842143535614014,8.52632999420166
1766402570538535000,11.456534912109374,3.17122483253479,-3.6725666522979736,8.522089004516602
1766402570548575000,11.466574951171875,3.2178311347961426,-3.6590051651000977,8.510442733764648
1766402570558584800,11.476584716796875,3.2751007080078125,-3.6533162593841553,8.491019248962402
1766402570568625200,11.486625244140624,3.3298966884613037,-3.652556896209717,8.470005989074707
1766402570578635000,11.496635009765624,3.3887627124786377,-3.645343065261841,8.449742317199707
1766402570628744700,11.54674462890625,3.8265182971954346,-3.4058611392974854,8.362313270568848
1766402570638754600,11.556754638671874,3.850668430328369,-3.419107437133789,8.345805168151855
1766402570648764400,11.566764404296874,3.875978708267212,-3.4389023780822754,8.32593059539795
1766402570658804500,11.576804443359375,3.890892267227173,-3.443563222885132,8.31704330444336
1766402570668844800,11.5868447265625,3.8907108306884766,-3.454983949661255,8.31239128112793
1766402570678854700,11.596854736328124,3.885939836502075,-3.4695968627929688,8.3085355758667
1766402570708884000,11.626884033203124,3.7773146629333496,-3.616309881210327,8.296058654785156
1766402570718893800,11.636893798828124,3.7402796745300293,-3.6865930557250977,8.281891822814941
1766402570728934000,11.646933837890625,3.7311317920684814,-3.721917152404785,8.270210266113281
1766402570738913300,11.656913330078124,3.7188024520874023,-3.7265143394470215,8.27369213104248
1766402570748953600,11.66695361328125,3.715383768081665,-3.71590256690979,8.279999732971191
1766402570758963200,11.676963134765625,3.7019970417022705,-3.7244601249694824,8.282149314880371
1766402570768973000,11.68697314453125,3.697810411453247,-3.7350363731384277,8.279256820678711
1766402570778983000,11.69698291015625,3.6967666149139404,-3.741563081741333,8.276775360107422
1766402570788992500,11.706992431640625,3.697378635406494,-3.752870798110962,8.271380424499512
1766402570839072000,11.757072021484374,3.7306950092315674,-3.808309316635132,8.23098373413086
1766402570849112300,11.7671123046875,3.7457542419433594,-3.8274893760681152,8.215232849121094
1766402570859122000,11.777121826171875,3.7582695484161377,-3.8434581756591797,8.202051162719727
1766402570869131800,11.7871318359375,3.7832915782928467,-3.887810230255127,8.16957950592041
1766402570879141400,11.797141357421875,3.799048900604248,-3.926373243331909,8.143783569335938
1766402570889151200,11.807151123046875,3.8165793418884277,-3.9573819637298584,8.120545387268066
1766402570899191600,11.817191650390624,3.843660593032837,-3.9738569259643555,8.099699974060059
1766402570929190400,11.8471904296875,3.8868515491485596,-4.018693923950195,8.056851387023926
1766402570949209900,11.8672099609375,3.865420341491699,-4.056784152984619,8.04806900024414
1766402570959219700,11.8772197265625,3.854938507080078,-4.078089237213135,8.042327880859375
1766402570969229300,11.887229248046875,3.8547959327697754,-4.089781761169434,8.036455154418945
1766402570979208700,11.897208740234374,3.867576837539673,-4.073200702667236,8.038736343383789
1766402570989218300,11.90721826171875,3.887079954147339,-4.038566589355469,8.046799659729004
1766402570999228200,11.917228271484374,3.8926494121551514,-4.01296854019165,8.056905746459961
1766402571009238000,11.927238037109374,3.899475574493408,-3.986177444458008,8.066898345947266
1766402571049307600,11.9673076171875,3.9482903480529785,-4.022729873657227,8.02490234375
1766402571059347700,11.97734765625,3.9847545623779297,-4.011521339416504,8.012479782104492
1766402571069388000,11.987387939453125,4.018240451812744,-3.977693796157837,8.01262092590332
1766402571079398000,11.99739794921875,4.04584264755249,-3.9461116790771484,8.0143461227417
1766402571089407700,12.00740771484375,4.06160306930542,-3.9340696334838867,8.01229476928711
1766402571099417300,12.017417236328125,4.080419540405273,-3.925968885421753,8.006705284118652
1766402571109427200,12.02742724609375,4.098266124725342,-3.9221346378326416,7.999464988708496
1766402571119436800,12.037436767578125,4.110166072845459,-3.9219226837158203,7.993461608886719
1766402571159476000,12.07747607421875,4.133502006530762,-3.876241683959961,8.003705024719238
1766402571169485800,12.08748583984375,4.141184329986572,-3.8558263778686523,8.009592056274414
1766402571179526100,12.097526123046874,4.148226261138916,-3.8364269733428955,8.015262603759766
1766402571189535700,12.10753564453125,4.146956443786621,-3.825667142868042,8.0210599899292
1766402571199576000,12.117576171875,4.144178867340088,-3.8246963024139404,8.02295970916748
1766402571209616400,12.127616455078124,4.104194164276123,-3.859313488006592,8.026935577392578
1766402571219626200,12.137626220703124,4.086883544921875,-3.874819040298462,8.028297424316406
1766402571229635800,12.1476357421875,4.0405378341674805,-3.9192490577697754,8.030189514160156
1766402571249686000,12.16768603515625,3.9236032962799072,-4.031160354614258,8.03277587890625
1766402571259726300,12.177726318359374,3.8160181045532227,-4.132940292358398,8.032880783081055
1766402571269736000,12.18773583984375,3.7339394092559814,-4.211551189422607,8.030624389648438
1766402571279745800,12.197745849609374,3.6894116401672363,-4.252887725830078,8.029420852661133
1766402571289816600,12.207816650390624,3.5993306636810303,-4.336969375610352,8.025328636169434
1766402571299826400,12.217826416015624,3.4990222454071045,-4.432027816772461,8.017752647399902
1766402571309897200,12.227897216796874,3.3426425457000732,-4.587050914764404,7.997255802154541
1766402571319937300,12.237937255859375,3.2825522422790527,-4.634191036224365,7.994968891143799
1766402571329977600,12.2479775390625,3.1254639625549316,-4.776827335357666,7.973943710327148
1766402571380087600,12.298087646484374,2.5822529792785645,-5.221959114074707,7.888822078704834
1766402571390097400,12.308097412109374,2.506704092025757,-5.331182479858398,7.8399810791015625
1766402571400107000,12.31810693359375,2.441296339035034,-5.432291030883789,7.7910637855529785
1766402571410177800,12.328177734375,2.3681814670562744,-5.558323383331299,7.724451541900635
1766402571420187600,12.338187744140624,2.334282875061035,-5.625894546508789,7.685754299163818
1766402571430197500,12.348197509765624,2.310271978378296,-5.680737018585205,7.652598857879639
1766402571440207000,12.35820703125,2.2950868606567383,-5.717616081237793,7.629669189453125
1766402571490317000,12.408317138671874,2.4063079357147217,-5.644206523895264,7.650033950805664
1766402571500296200,12.418296142578125,2.437162399291992,-5.61481237411499,7.661887168884277
1766402571510306000,12.42830615234375,2.5303845405578613,-5.494402885437012,7.718749523162842
1766402571520316000,12.43831591796875,2.580824375152588,-5.413426399230957,7.759160041809082
1766402571530325500,12.448325439453125,2.609123706817627,-5.381121635437012,7.772156715393066
1766402571540305000,12.458304931640624,2.666051149368286,-5.296375751495361,7.810952186584473
1766402571550345200,12.46834521484375,2.712456226348877,-5.202509880065918,7.8579182624816895
1766402571570395100,12.48839501953125,2.78757905960083,-5.039209365844727,7.937643051147461
1766402571580405000,12.498405029296874,2.8274197578430176,-4.9385576248168945,7.986660003662109
1766402571590445300,12.5084453125,2.844432830810547,-4.907081127166748,8.000009536743164
1766402571600455000,12.518454833984375,2.89575457572937,-4.831298351287842,8.02767562866211
1766402571610495200,12.5284951171875,2.93847393989563,-4.790951728820801,8.03632640838623
1766402571620505000,12.538505126953124,2.9894535541534424,-4.757079601287842,8.037646293640137
1766402571630484200,12.548484130859375,3.045139789581299,-4.729516506195068,8.033005714416504
1766402571640494000,12.558494140625,3.0742220878601074,-4.717141628265381,8.029203414916992
1766402571650534400,12.568534423828124,3.1287574768066406,-4.696438789367676,8.020270347595215
1766402571680624600,12.598624755859374,3.2808728218078613,-4.683186054229736,7.967059135437012
1766402571690665000,12.6086650390625,3.3165175914764404,-4.690531253814697,7.947956562042236
1766402571700674800,12.6186748046875,3.3395068645477295,-4.689929485321045,7.938681125640869
1766402571710715000,12.62871484375,3.385453462600708,-4.698986530303955,7.913824558258057
1766402571720724700,12.638724853515624,3.412292242050171,-4.703556537628174,7.899570465087891
1766402571730734600,12.648734619140624,3.427624464035034,-4.712142467498779,7.887807369232178
1766402571740775000,12.65877490234375,3.4321467876434326,-4.722850322723389,7.87943172454834
1766402571750784500,12.668784423828125,3.427893877029419,-4.722988605499268,7.881198883056641
1766402571780783400,12.698783447265624,3.3057432174682617,-4.811992168426514,7.879542350769043
1766402571790793200,12.708793212890624,3.2904958724975586,-4.822951316833496,7.879223823547363
1766402571800802800,12.718802734375,3.2949957847595215,-4.821929931640625,7.877969264984131
1766402571810812700,12.728812744140624,3.306436061859131,-4.828682899475098,7.869033336639404
1766402571820822500,12.738822509765624,3.331768751144409,-4.8340229988098145,7.855058193206787
1766402571830862600,12.748862548828125,3.3651022911071777,-4.830157279968262,7.843218803405762
1766402571840872400,12.75887255859375,3.3916473388671875,-4.829690456390381,7.832063674926758
1766402571850882300,12.76888232421875,3.418689727783203,-4.821098804473877,7.825596809387207
1766402571890921200,12.808921142578125,3.536147356033325,-4.8465681076049805,7.757373809814453
1766402571900931000,12.81893115234375,3.5869996547698975,-4.857478141784668,7.727142333984375
1766402571910941000,12.82894091796875,3.632737636566162,-4.868685245513916,7.69866943359375
1766402571920981000,12.83898095703125,3.661243438720703,-4.875472068786621,7.680850982666016
1766402571930990800,12.848990966796874,3.6778976917266846,-4.87776517868042,7.6714324951171875
1766402571941000700,12.859000732421874,3.691531181335449,-4.8782148361206055,7.664594650268555
1766402571951010300,12.86901025390625,3.707577705383301,-4.875568389892578,7.658530235290527
1766402571981039600,12.89903955078125,3.7458157539367676,-4.888986110687256,7.631322860717773
1766402572031119000,12.949119140625,3.7658185958862305,-5.018075466156006,7.537103652954102
1766402572041128700,12.959128662109375,3.7600035667419434,-5.065685272216797,7.508103370666504
1766402572051169000,12.9691689453125,3.750917434692383,-5.119327068328857,7.476195335388184
1766402572061179000,12.979178955078124,3.7462618350982666,-5.1473894119262695,7.459242343902588
1766402572091208200,13.009208251953124,3.692150592803955,-5.36829948425293,7.329376697540283
1766402572101217800,13.0192177734375,3.6702423095703125,-5.459634304046631,7.272696495056152
1766402572111227600,13.0292275390625,3.635697603225708,-5.617305755615234,7.169238090515137
1766402572121207000,13.03920703125,3.624236583709717,-5.673523426055908,7.130669116973877
1766402572131247000,13.0492470703125,3.5993382930755615,-5.798117637634277,7.042513370513916
1766402572141257000,13.059257080078124,3.5727615356445312,-5.935070037841797,6.9412336349487305
1766402572151266800,13.069266845703124,3.5294694900512695,-6.155028343200684,6.769701957702637
1766402572161276400,13.0792763671875,3.50378680229187,-6.309764862060547,6.6393327713012695
1766402572171286300,13.089286376953124,3.492013692855835,-6.389969348907471,6.5684494972229
1766402572201315600,13.119315673828124,3.411536455154419,-6.9601149559021,6.007380485534668
1766402572211325400,13.129325439453124,3.392507791519165,-7.047657489776611,5.915388107299805
1766402572221335000,13.1393349609375,3.340548276901245,-7.232219219207764,5.71892786026001
1766402572231345000,13.149344970703124,3.2730889320373535,-7.502656936645508,5.400686740875244
1766402572241354800,13.159354736328124,3.220794200897217,-7.699498176574707,5.149233818054199
1766402572251394800,13.169394775390625,3.165529489517212,-7.828708648681641,4.986092567443848
1766402572261404700,13.17940478515625,3.139294147491455,-7.995175361633301,4.732061862945557
1766402572271445000,13.189445068359374,3.123670816421509,-8.151748657226562,4.467891693115234
1766402572291464400,13.20946435546875,3.1745963096618652,-8.415759086608887,3.9073448181152344
1766402572301474300,13.219474365234374,3.1980183124542236,-8.452203750610352,3.8083205223083496
1766402572311484200,13.229484130859374,3.2471566200256348,-8.544034004211426,3.5532875061035156
1766402572321493800,13.23949365234375,3.2880868911743164,-8.634726524353027,3.2863950729370117
1766402572331503600,13.249503662109374,3.311643362045288,-8.721087455749512,3.0242443084716797
1766402572341513200,13.25951318359375,3.318345785140991,-8.799915313720703,2.7785720825195312
1766402572351523000,13.269523193359374,3.3167643547058105,-8.868770599365234,2.5523273944854736
1766402572361533000,13.279532958984374,3.3306336402893066,-8.922025680541992,2.339816093444824
1766402572371573200,13.2895732421875,3.4255290031433105,-8.964836120605469,2.0168962478637695
1766402572381552400,13.299552490234374,3.4731662273406982,-8.964715003967285,1.9342639446258545
1766402572411642600,13.329642578125,3.829648971557617,-8.931735038757324,1.3146463632583618
1766402572421652500,13.339652587890624,3.846290349960327,-8.937397956848145,1.224479079246521
1766402572431692800,13.34969287109375,3.8241240978240967,-8.96854305267334,1.0543782711029053
1766402572441702700,13.35970263671875,3.75010347366333,-9.017176628112793,0.893109142780304
1766402572451712300,13.369712158203125,3.6364595890045166,-9.07703685760498,0.7442996501922607
1766402572461722000,13.37972216796875,3.498723268508911,-9.141685485839844,0.5990946292877197
1766402572471731700,13.389731689453125,3.3437423706054688,-9.207651138305664,0.45712578296661377
1766402572481741600,13.399741455078125,3.1779351234436035,-9.271818161010742,0.3232666254043579
1766402572491751400,13.40975146484375,3.011037826538086,-9.330968856811523,0.19252602756023407
1766402572501730600,13.41973046875,2.8483548164367676,-9.383687973022461,0.06072524935007095
1766402572531821000,13.449821044921874,2.3930611610412598,-9.504837989807129,-0.3189345896244049
1766402572541830700,13.45983056640625,2.2863731384277344,-9.526485443115234,-0.4347219467163086
1766402572551871000,13.46987109375,2.221796989440918,-9.5357027053833,-0.5517078638076782
1766402572561850400,13.479850341796874,2.1981592178344727,-9.530353546142578,-0.7147449254989624
1766402572571890400,13.489890380859375,2.215393304824829,-9.518320083618164,-0.8148674964904785
1766402572581930800,13.4999306640625,2.2333321571350098,-9.509727478027344,-0.8647128939628601
1766402572591940600,13.509940673828124,2.271448850631714,-9.492769241333008,-0.9477654099464417
1766402572601950500,13.519950439453124,2.3146421909332275,-9.474883079528809,-1.0195237398147583
1766402572631979500,13.5499794921875,2.4633350372314453,-9.415665626525879,-1.2031726837158203
1766402572642019800,13.560019775390625,2.517838954925537,-9.392589569091797,-1.2689138650894165
1766402572652060200,13.57006005859375,2.5697126388549805,-9.365825653076172,-1.3595072031021118
1766402572662039600,13.58003955078125,2.59320330619812,-9.353644371032715,-1.3982259035110474
1766402572672079600,13.59007958984375,2.610591173171997,-9.340055465698242,-1.4555357694625854
1766402572682089500,13.60008935546875,2.627420663833618,-9.326336860656738,-1.5121108293533325
1766402572692129800,13.6101298828125,2.6664772033691406,-9.303598403930664,-1.582200527191162
1766402572702170000,13.620170166015624,2.6965463161468506,-9.284350395202637,-1.6431281566619873
1766402572712179700,13.6301796875,2.7280220985412598,-9.264827728271484,-1.7003620862960815
1766402572722189600,13.640189453125,2.748682737350464,-9.24359130859375,-1.7807759046554565
1766402572732199400,13.650199462890624,2.7608773708343506,-9.229208946228027,-1.8356547355651855
1766402572742209000,13.660208984375,2.7658233642578125,-9.222650527954102,-1.861000418663025
1766402572752219000,13.670218994140624,2.7636640071868896,-9.212972640991211,-1.9114576578140259
1766402572762228700,13.680228759765624,2.7667129039764404,-9.201279640197754,-1.9626919031143188
1766402572772238300,13.69023828125,2.77833890914917,-9.186613082885742,-2.0142948627471924
1766402572782248200,13.700248291015624,2.817518711090088,-9.156818389892578,-2.093956232070923
1766402572792288500,13.71028857421875,2.8590049743652344,-9.1318359375,-2.1461691856384277
1766402572802298400,13.72029833984375,2.908599853515625,-9.104060173034668,-2.1969306468963623
1766402572812308000,13.730307861328125,2.963287591934204,-9.07524585723877,-2.242604970932007
1766402572852347100,13.77034716796875,3.2138571739196777,-8.960938453674316,-2.354379892349243
1766402572862387500,13.780387451171874,3.2385430335998535,-8.95046329498291,-2.3603899478912354
1766402572872397000,13.79039697265625,3.281893730163574,-8.934233665466309,-2.361997365951538
1766402572882437400,13.800437255859375,3.3294641971588135,-8.919332504272461,-2.3517134189605713
1766402572892477700,13.810477783203124,3.3309173583984375,-8.920061111450195,-2.346888780593872
1766402572902487600,13.820487548828124,3.3338019847869873,-8.923665046691895,-2.3290271759033203
1766402572912527600,13.830527587890625,3.3323018550872803,-8.930585861206055,-2.304518938064575
1766402572942618000,13.8606181640625,3.3214313983917236,-8.96140193939209,-2.198129653930664
1766402572952627700,13.870627685546875,3.3282203674316406,-8.967854499816895,-2.1612377166748047
1766402572962637600,13.880637451171875,3.3313539028167725,-8.975785255432129,-2.123147964477539
1766402572972647400,13.8906474609375,3.3256218433380127,-8.987741470336914,-2.081139087677002
1766402572982657000,13.900656982421875,3.302919387817383,-9.002579689025879,-2.052969217300415
1766402572992667000,13.9106669921875,3.2957472801208496,-9.01484203338623,-2.0102431774139404
1766402573002707200,13.920707275390624,3.292695999145508,-9.024864196777344,-1.9698675870895386
1766402573012717000,13.930717041015624,3.2967116832733154,-9.0316162109375,-1.9318355321884155
1766402573032736500,13.950736572265624,3.302868366241455,-9.0403470993042,-1.8797813653945923
1766402573042746400,13.960746337890624,3.286125421524048,-9.047966003417969,-1.8724491596221924
1766402573052786400,13.970786376953125,3.2861990928649902,-9.052640914916992,-1.849595308303833
1766402573062796300,13.98079638671875,3.286280870437622,-9.057902336120605,-1.8234965801239014
1766402573072806100,13.99080615234375,3.279578685760498,-9.066062927246094,-1.794782042503357
1766402573082815700,14.000815673828125,3.25626802444458,-9.079022407531738,-1.771573781967163
1766402573092825600,14.01082568359375,3.2199618816375732,-9.095531463623047,-1.7531521320343018
1766402573102835500,14.02083544921875,3.1747844219207764,-9.114189147949219,-1.7385939359664917
1766402573112845000,14.030844970703125,3.1240389347076416,-9.133177757263184,-1.73085355758667
1766402573122885400,14.040885498046874,3.0793745517730713,-9.14807415008545,-1.7322230339050293
1766402573152945200,14.070945068359375,2.985569715499878,-9.170183181762695,-1.7789040803909302
1766402573163016000,14.081015869140625,2.977966070175171,-9.17004108428955,-1.7923274040222168
1766402573172964900,14.09096484375,2.9742729663848877,-9.166335105895996,-1.8172417879104614
1766402573182974500,14.100974365234375,2.981835126876831,-9.157767295837402,-1.847790241241455
1766402573192984300,14.110984375,2.9962949752807617,-9.1465482711792,-1.87969970703125
1766402573202994000,14.120993896484375,3.010572910308838,-9.136006355285645,-1.9079371690750122
1766402573213034200,14.1310341796875,3.0274155139923096,-9.12051773071289,-1.954816460609436
1766402573223044000,14.141044189453124,3.036323308944702,-9.116257667541504,-1.9608688354492188
1766402573233084400,14.15108447265625,3.046541929244995,-9.104775428771973,-1.9980148077011108
1766402573243094000,14.161093994140625,3.057584762573242,-9.092551231384277,-2.036435127258301
1766402573273184500,14.1911845703125,3.1150951385498047,-9.048521041870117,-2.142625331878662
1766402573293234400,14.211234375,3.15584659576416,-9.01845932006836,-2.208714723587036
1766402573303305200,14.22130517578125,3.1764883995056152,-9.004435539245605,-2.2361690998077393
1766402573313345500,14.231345458984375,3.2054286003112793,-8.984626770019531,-2.274226188659668
1766402573323325000,14.241324951171874,3.2236359119415283,-8.978348731994629,-2.273289203643799
1766402573333334500,14.25133447265625,3.243555784225464,-8.966646194458008,-2.2910666465759277
1766402573363363800,14.28136376953125,3.3007471561431885,-8.924339294433594,-2.3731069564819336
1766402573373373700,14.291373779296874,3.309654712677002,-8.919561386108398,-2.3786587715148926
1766402573393362700,14.31136279296875,3.3280162811279297,-8.895148277282715,-2.443568468093872
1766402573423422500,14.34142236328125,3.368931770324707,-8.855030059814453,-2.5316240787506104
1766402573433493200,14.3514931640625,3.40043306350708,-8.837713241577148,-2.549952507019043
1766402573443442000,14.36144189453125,3.425614595413208,-8.827528953552246,-2.551530361175537
1766402573473502000,14.391501953125,3.485067367553711,-8.804621696472168,-2.550163745880127
1766402573483481000,14.401481201171874,3.4987876415252686,-8.800932884216309,-2.5440988540649414
1766402573493521400,14.411521484375,3.5084173679351807,-8.803571701049805,-2.5216095447540283
1766402573503561700,14.421561767578124,3.513305187225342,-8.807059288024902,-2.5025599002838135
1766402573513571300,14.4315712890625,3.5185353755950928,-8.808418273925781,-2.4903948307037354
1766402573523550700,14.44155078125,3.5305798053741455,-8.80634593963623,-2.4806618690490723
1766402573533591000,14.451591064453124,3.550966501235962,-8.800797462463379,-2.471229314804077
1766402573543661800,14.461661865234374,3.597689628601074,-8.786853790283203,-2.4532055854797363
1766402573573752000,14.491751953125,3.7276225090026855,-8.746659278869629,-2.4023261070251465
1766402573583762000,14.501761962890624,3.778757333755493,-8.730382919311523,-2.3815550804138184
1766402573593802200,14.51180224609375,3.82747745513916,-8.715192794799805,-2.3592820167541504
1766402573603811800,14.521811767578125,3.8681445121765137,-8.703755378723145,-2.335059404373169
1766402573613821700,14.53182177734375,3.8977279663085938,-8.697396278381348,-2.3094210624694824
1766402573623831600,14.54183154296875,3.9164445400238037,-8.696252822875977,-2.2818963527679443
1766402573633871600,14.55187158203125,3.928253173828125,-8.698138236999512,-2.2542426586151123
1766402573643881500,14.561881591796874,3.9379801750183105,-8.700839042663574,-2.226682662963867
1766402573693991400,14.611991455078124,3.9758591651916504,-8.707742691040039,-2.130289077758789
1766402573704001000,14.6220009765625,3.9807016849517822,-8.712194442749023,-2.1028785705566406
1766402573714011000,14.632010986328124,3.986252546310425,-8.716185569763184,-2.0756452083587646
1766402573723990000,14.641989990234375,3.986029624938965,-8.716751098632812,-2.073698043823242
1766402573734030300,14.6520302734375,3.983941078186035,-8.719882011413574,-2.064523220062256
1766402573744040200,14.662040283203124,3.982656955718994,-8.722162246704102,-2.0573556423187256
1766402573754050000,14.672050048828124,3.9838271141052246,-8.721928596496582,-2.056086540222168
1766402573784140300,14.702140380859374,4.016921043395996,-8.720367431640625,-1.9974759817123413
1766402573794150100,14.712150146484374,4.032369136810303,-8.718571662902832,-1.974053144454956
1766402573804129300,14.72212939453125,4.047302722930908,-8.715168952941895,-1.9584585428237915
1766402573814169600,14.732169677734374,4.066661834716797,-8.718997955322266,-1.9004520177841187
1766402573824179500,14.742179443359374,4.073607444763184,-8.72551155090332,-1.8551387786865234
1766402573834219500,14.752219482421875,4.076448917388916,-8.729621887207031,-1.8293904066085815
1766402573844290300,14.762290283203125,4.076878547668457,-8.74651050567627,-1.7458534240722656
1766402573854300200,14.772300048828125,4.077021598815918,-8.7527437210083,-1.713991641998291
1766402573884329500,14.80232958984375,4.085962772369385,-8.793374061584473,-1.4669204950332642
1766402573904349000,14.822348876953125,4.1305460929870605,-8.820737838745117,-1.141734004020691
1766402573914358800,14.83235888671875,4.152787208557129,-8.830307006835938,-0.9749018549919128
1766402573924368600,14.84236865234375,4.172062873840332,-8.840068817138672,-0.7858002781867981
1766402573934378200,14.852378173828125,4.184754371643066,-8.850439071655273,-0.572669267654419
1766402573944388000,14.86238818359375,4.189815521240234,-8.859949111938477,-0.34224605560302734
1766402573954398000,14.87239794921875,4.183408737182617,-8.869013786315918,-0.10042963176965714
1766402573984457700,14.902457763671874,4.118294715881348,-8.861283302307129,0.8293015360832214
1766402574024496600,14.94249658203125,4.11100435256958,-8.711750030517578,1.8372435569763184
1766402574034506500,14.952506591796874,4.095545768737793,-8.651277542114258,2.133612871170044
1766402574044516400,14.962516357421874,4.079904556274414,-8.621296882629395,2.2799134254455566
1766402574054556400,14.972556396484375,3.9983294010162354,-8.534418106079102,2.7106175422668457
1766402574064566300,14.982566162109375,3.903923273086548,-8.48743724822998,2.9821431636810303
1766402574104636000,15.022635986328124,3.503523349761963,-8.282339096069336,3.9113399982452393
1766402574114645800,15.032645751953124,3.3719308376312256,-8.145837783813477,4.294858932495117
1766402574124655400,15.0426552734375,3.282977819442749,-8.052278518676758,4.533571720123291
1766402574134665200,15.052665283203124,3.193060874938965,-7.952849388122559,4.767277717590332
1766402574144675000,15.062675048828124,3.108405351638794,-7.845625877380371,4.995433807373047
1766402574154684700,15.0726845703125,3.0362496376037598,-7.732626914978027,5.211340427398682
1766402574164694500,15.082694580078124,3.0348315238952637,-7.734095573425293,5.209985256195068
1766402574204733400,15.1227333984375,2.8940320014953613,-7.155239105224609,6.049588203430176
1766402574214743300,15.132743408203124,2.93074893951416,-7.0134992599487305,6.196123123168945
1766402574224753200,15.142753173828124,3.0078673362731934,-6.808839797973633,6.38457727432251
1766402574234762800,15.1527626953125,3.034797191619873,-6.742657661437988,6.441812992095947
1766402574244772600,15.162772705078124,3.112161159515381,-6.568515777587891,6.583271026611328
1766402574254873900,15.172873779296875,3.1381051540374756,-6.514315128326416,6.624680519104004
1766402574264944600,15.182944580078125,3.1840267181396484,-6.420975208282471,6.693538665771484
1766402574274954500,15.19295458984375,3.2227818965911865,-6.3412885665893555,6.750712871551514
1766402574315054600,15.2330546875,3.3594069480895996,-6.119588375091553,6.887338161468506
1766402574335104500,15.2531044921875,3.404987096786499,-6.052156925201416,6.924439907073975
1766402574345084000,15.263083984375,3.407473564147949,-6.042591571807861,6.93156623840332
1766402574355124200,15.273124267578124,3.407843589782715,-6.040538311004639,6.933173656463623
1766402574365133800,15.2831337890625,3.404061794281006,-6.041881561279297,6.933861255645752
1766402574375143700,15.293143798828124,3.393557548522949,-6.0514817237854,6.930636882781982
1766402574415213300,15.33321337890625,3.472517490386963,-6.019009113311768,6.919793605804443
1766402574425223200,15.34322314453125,3.4957435131073,-6.010926246643066,6.915122985839844
1766402574435232800,15.353232666015625,3.508073091506958,-6.011240005493164,6.908604145050049
1766402574445242600,15.36324267578125,3.5232584476470947,-6.013908386230469,6.89854621887207
1766402574455252200,15.373252197265625,3.546788215637207,-6.008235931396484,6.891429424285889
1766402574465262000,15.383261962890625,3.5697500705718994,-6.00337028503418,6.88380765914917
1766402574475272000,15.39327197265625,3.585437059402466,-5.99906063079834,6.879412651062012
1766402574485281500,15.403281494140625,3.6019318103790283,-5.996098518371582,6.87337589263916
1766402574515402500,15.433402587890624,3.6624627113342285,-5.996836185455322,6.840666770935059
1766402574525412400,15.443412353515624,3.688481569290161,-5.99424409866333,6.828947067260742
1766402574535422000,15.453421875,3.7273964881896973,-5.981002330780029,6.819421768188477
1766402574545431800,15.463431884765624,3.778776168823242,-5.949521541595459,6.818683624267578
1766402574565451300,15.483451171875,3.9055471420288086,-5.865499019622803,6.820045471191406
1766402574575522000,15.49352197265625,3.9278712272644043,-5.857853889465332,6.813791275024414
1766402574585532000,15.503531982421874,3.9406614303588867,-5.859853267669678,6.804683208465576
1766402574635641900,15.553641845703124,4.038748741149902,-5.838459491729736,6.765449523925781
1766402574645651500,15.5636513671875,4.058037281036377,-5.839346885681152,6.7531304359436035
1766402574655661300,15.573661376953124,4.0662922859191895,-5.840942859649658,6.7467803955078125
1766402574665610000,15.58360986328125,4.07388162612915,-5.848609447479248,6.735550403594971
1766402574675619800,15.593619873046874,4.074515342712402,-5.871549129486084,6.715178489685059
1766402574685629400,15.60362939453125,4.071113109588623,-5.891822814941406,6.699466228485107
1766402574725638100,15.64363818359375,4.014978408813477,-5.992931365966797,6.643426418304443
1766402574735647700,15.653647705078125,3.992265224456787,-6.0286946296691895,6.624729633331299
1766402574745657600,15.66365771484375,3.9655611515045166,-6.057323455810547,6.6146464347839355
1766402574755667500,15.67366748046875,3.9238827228546143,-6.093503952026367,6.606266021728516
1766402574765677000,15.683677001953125,3.860300064086914,-6.147948741912842,6.593270301818848
1766402574775687000,15.69368701171875,3.810300588607788,-6.200860977172852,6.5727715492248535
1766402574785696800,15.70369677734375,3.769925355911255,-6.248594284057617,6.550811767578125
1766402574795706400,15.713706298828125,3.745126724243164,-6.284815788269043,6.530353546142578
1766402574835745500,15.75374560546875,3.7652392387390137,-6.34321928024292,6.461959362030029
1766402574845755400,15.76375537109375,3.8019280433654785,-6.3436198234558105,6.440049648284912
1766402574855795500,15.77379541015625,3.864408493041992,-6.329760551452637,6.4164533615112305
1766402574865805300,15.783805419921874,4.025026321411133,-6.266571044921875,6.379627704620361
1766402574885824800,15.80382470703125,4.2549896240234375,-6.150151252746582,6.3435869216918945
1766402574895865000,15.813864990234375,4.50700569152832,-6.007296562194824,6.306321620941162
1766402574905844500,15.823844482421874,4.680750370025635,-5.890369415283203,6.290034770965576
1766402574925894400,15.843894287109375,5.011469841003418,-5.6153106689453125,6.286799430847168
1766402574945944600,15.863944580078124,5.142228126525879,-5.512681007385254,6.272019386291504
1766402574955984600,15.873984619140625,5.160939693450928,-5.517378807067871,6.252490520477295
1766402574965964000,15.883964111328124,5.15720796585083,-5.55163049697876,6.225189685821533
1766402574975974000,15.893973876953124,5.134995460510254,-5.594981670379639,6.204707145690918
1766402574985983500,15.9039833984375,5.154866695404053,-5.608811378479004,6.175675392150879
