time,seconds_elapsed,z,y,x
1766400136992654600,-1.580345458984375,9.926360130310059,-0.9672574996948242,-0.7015010714530945
1766400137012674000,-1.560325927734375,9.854534149169922,-0.8595184087753296,-0.6392518281936646
1766400137022684000,-1.550316162109375,9.818621635437012,-1.0079588890075684,-0.6488286852836609
1766400137032724200,-1.54027587890625,9.737217903137207,-0.933738648891449,-0.5650315880775452
1766400137042734000,-1.530265869140625,9.718064308166504,-0.9313444495201111,-0.5434837937355042
1766400137052804900,-1.520195068359375,9.794678688049316,-0.7637503147125244,-0.5195417404174805
1766400137062814500,-1.510185546875,9.907206535339355,-0.8236053586006165,-0.47644615173339844
1766400137072824300,-1.50017578125,9.931148529052734,-0.9576807022094727,-0.4644751250743866
1766400137082834200,-1.490165771484375,9.885659217834473,-0.8643068075180054,-0.5961562395095825
1766400137122995200,-1.4500048828125,9.950302124023438,-1.0965443849563599,-0.5003881454467773
1766400137133035500,-1.439964599609375,9.99339771270752,-1.0630255937576294,-0.5315127968788147
1766400137143045400,-1.42995458984375,10.055646896362305,-0.993593692779541,-0.5578489899635315
1766400137153055000,-1.419945068359375,9.955090522766113,-0.9552865028381348,-0.5482721924781799
1766400137163064800,-1.40993505859375,9.971850395202637,-0.9720458984375,-0.4812345504760742
1766400137173105200,-1.399894775390625,9.947908401489258,-1.0606313943862915,-0.47884035110473633
1766400137183114800,-1.38988525390625,9.880870819091797,-0.9409212470054626,-0.524330198764801
1766400137193185500,-1.379814453125,9.86650562286377,-0.8858546018600464,-0.4692635238170624
1766400137213266200,-1.35973388671875,9.883264541625977,-0.8355764150619507,-0.5722141861915588
1766400137223276000,-1.349723876953125,9.871294021606445,-1.0127472877502441,-0.42616790533065796
1766400137243295500,-1.32970458984375,9.861717224121094,-1.1324573755264282,-0.6320692300796509
1766400137253335800,-1.319664306640625,9.938331604003906,-0.9217676520347595,-0.6224924325942993
1766400137263345700,-1.309654296875,9.974244117736816,-1.015141487121582,-0.6607996821403503
1766400137273355300,-1.299644775390625,9.971850395202637,-1.094150185585022,-0.667982280254364
1766400137283365000,-1.289634765625,9.911994934082031,-1.0055646896362305,-0.5722141861915588
1766400137293375000,-1.279625,9.952696800231934,-0.9193734526634216,-0.5482721924781799
1766400137303384600,-1.269615478515625,9.840168952941895,-0.7996633648872375,-0.5482721924781799
1766400137363473700,-1.2095263671875,9.945513725280762,-1.0031704902648926,-0.6440402865409851
1766400137373483500,-1.1995166015625,9.938331604003906,-1.0462661981582642,-0.608127236366272
1766400137383493400,-1.189506591796875,9.926360130310059,-0.8236053586006165,-0.5267243981361389
1766400137393503000,-1.1794970703125,9.921571731567383,-0.912190854549408,-0.42616790533065796
1766400137403512800,-1.169487060546875,9.84495735168457,-1.161187767982483,-0.6177040338516235
1766400137423593500,-1.149406494140625,10.002974510192871,-1.0773907899856567,-0.5722141861915588
1766400137433603000,-1.13939697265625,9.967061996459961,-1.0534487962722778,-0.5746083855628967
1766400137443613000,-1.129386962890625,9.897629737854004,-1.0223240852355957,-0.5315127968788147
1766400137453653200,-1.1193466796875,9.825803756713867,-1.1516109704971313,-0.5770025849342346
1766400137463662800,-1.109337158203125,9.761159896850586,-1.0319008827209473,-0.4812345504760742
1766400137473672700,-1.099327392578125,9.837775230407715,-1.0223240852355957,-0.4836287498474121
1766400137483713000,-1.089286865234375,9.72285270690918,-0.9911994934082031,-0.5099649429321289
1766400137493753300,-1.07924658203125,9.765948295593262,-0.9050082564353943,-0.5578489899635315
1766400137503763000,-1.069237060546875,9.832986831665039,-1.0271124839782715,-0.6871358752250671
1766400137533823000,-1.039177001953125,9.787496566772461,-1.2689268589019775,-0.7350199222564697
1766400137553812000,-1.01918798828125,9.914389610290527,-0.9552865028381348,-0.5985504388809204
1766400137573862000,-0.99913818359375,9.806650161743164,-1.1037269830703735,-0.45250412821769714
1766400137583871700,-0.989128173828125,9.892841339111328,-1.1516109704971313,-0.4118026793003082
1766400137593912000,-0.979087890625,9.8784761428833,-1.0606313943862915,-0.5386953949928284
1766400137603952000,-0.9690478515625,9.9000244140625,-1.0414776802062988,-0.6368576288223267
1766400137613992400,-0.959007568359375,10.000580787658691,-1.094150185585022,-0.5530605912208557
1766400137633981400,-0.9390185546875,9.947908401489258,-1.1683704853057861,-0.608127236366272
1766400137654062000,-0.91893798828125,10.014945983886719,-1.0462661981582642,-0.47884035110473633
1766400137664102400,-0.908897705078125,10.014945983886719,-1.0462661981582642,-0.47884035110473633
1766400137674112300,-0.8988876953125,10.031704902648926,-1.0414776802062988,-0.42377370595932007
1766400137684121900,-0.888878173828125,10.005369186401367,-0.9193734526634216,-0.35434186458587646
1766400137694162200,-0.878837890625,9.967061996459961,-1.0007762908935547,-0.5554547905921936
1766400137704172000,-0.868827880859375,9.988609313964844,-1.139639973640442,-0.47644615173339844
1766400137714181600,-0.858818359375,9.93593692779541,-1.1300631761550903,-0.5363011956214905
1766400137724222000,-0.848778076171875,9.909601211547852,-1.1516109704971313,-0.5530605912208557
1766400137744241700,-0.82875830078125,9.885659217834473,-0.9983820915222168,-0.5554547905921936
1766400137754251300,-0.818748779296875,9.888052940368652,-1.1180921792984009,-0.5434837937355042
1766400137764291600,-0.80870849609375,9.923966407775879,-1.194706678390503,-0.5674257874488831
1766400137774301400,-0.798698486328125,9.897629737854004,-1.0965443849563599,-0.4596867263317108
1766400137784311000,-0.78868896484375,9.892841339111328,-1.1444283723831177,-0.4644751250743866
1766400137794321000,-0.77867919921875,9.801861763000488,-0.9313444495201111,-0.4692635238170624
1766400137804361200,-0.768638671875,9.787496566772461,-1.2306196689605713,-0.5363011956214905
1766400137814401500,-0.758598388671875,9.799467086791992,-1.2473790645599365,-0.5434837937355042
1766400137834421000,-0.7385791015625,9.794678688049316,-1.1875240802764893,-0.545877993106842
1766400137854501600,-0.718498291015625,9.86889934539795,-1.0103530883789062,-0.48602294921875
1766400137864511200,-0.70848876953125,9.801861763000488,-1.1300631761550903,-0.5386953949928284
1766400137874490600,-0.69850927734375,9.763554573059082,-1.2066776752471924,-0.6560112833976746
1766400137884531000,-0.688468994140625,9.758766174316406,-1.1540051698684692,-0.586579442024231
1766400137894571300,-0.6784287109375,9.739612579345703,-1.1779472827911377,-0.5386953949928284
1766400137904580900,-0.668419189453125,9.746794700622559,-1.0965443849563599,-0.524330198764801
1766400137914560300,-0.658439697265625,9.77791976928711,-1.2665326595306396,-0.4405331015586853
1766400137924600300,-0.648399658203125,9.8784761428833,-1.1683704853057861,-0.5626373887062073
1766400137934610200,-0.638389892578125,9.921571731567383,-1.1827356815338135,-0.5027823448181152
1766400137944620000,-0.6283798828125,9.95748519897461,-1.113303780555725,-0.4405331015586853
1766400137964639500,-0.608360595703125,9.964667320251465,-1.0319008827209473,-0.38067805767059326
1766400137974649300,-0.5983505859375,9.832986831665039,-1.2689268589019775,-0.5171475410461426
1766400137984689700,-0.588310302734375,9.799467086791992,-1.0989385843276978,-0.6392518281936646
1766400137994699300,-0.57830078125,9.751583099365234,-1.1300631761550903,-0.6392518281936646
1766400138004709000,-0.568290771484375,9.730035781860352,-1.0606313943862915,-0.5937620401382446
1766400138014718700,-0.55828125,9.691728591918945,-0.9481038451194763,-0.5027823448181152
1766400138024728600,-0.548271484375,9.591172218322754,-0.8978256583213806,-0.45489832758903503
1766400138034738400,-0.538261474609375,9.404424667358398,-0.7038952708244324,-0.44532153010368347
1766400138054758000,-0.5182421875,8.96389102935791,-0.730231523513794,-0.6057330369949341
1766400138064767700,-0.508232177734375,8.705317497253418,-0.7254431247711182,-0.6823474764823914
1766400138074808000,-0.49819189453125,8.470685958862305,-0.6440402865409851,-0.8379706144332886
1766400138084848000,-0.48815185546875,8.159439086914062,-0.5793967843055725,-0.6536170840263367
1766400138094888400,-0.478111572265625,7.778761386871338,-0.19153612852096558,-0.5770025849342346
1766400138104867800,-0.468132080078125,7.15387487411499,0.0454898327589035,-0.4692635238170624
1766400138114877400,-0.45812255859375,6.98628044128418,0.17717093229293823,-0.849941611289978
1766400138124917800,-0.448082275390625,6.840234279632568,0.05267243832349777,-0.5434837937355042
1766400138134927600,-0.438072265625,5.372588634490967,-0.26336219906806946,-0.9074024558067322
1766400138154947000,-0.418052978515625,6.62236213684082,-1.4221558570861816,0.9217676520347595
1766400138164987400,-0.4080126953125,6.588842868804932,-2.8562827110290527,-1.0007762908935547
1766400138174997200,-0.398002685546875,7.007828235626221,-3.268085241317749,-1.2066776752471924
1766400138195077600,-0.37792236328125,7.850587368011475,-3.3686418533325195,0.31124621629714966
1766400138205087500,-0.36791259765625,8.31985092163086,-3.584120035171509,-0.09816227108240128
1766400138215097300,-0.357902587890625,8.688557624816895,-3.4332852363586426,-0.4141969084739685
1766400138225107000,-0.34789306640625,8.796297073364258,-3.268085241317749,-0.28969839215278625
1766400138235116800,-0.33788330078125,8.746018409729004,-2.942473888397217,-0.13407529890537262
1766400138335336400,-0.23766357421875,6.349422931671143,-5.540182590484619,-2.0039467811584473
1766400138345346300,-0.22765380859375,6.325480937957764,-4.299986362457275,-1.3407529592514038
1766400138355386600,-0.21761328125,6.054935932159424,-3.2848446369171143,-1.2330138683319092
1766400138375467300,-0.19753271484375,5.635950565338135,-4.5609540939331055,-1.6112977266311646
1766400138385446400,-0.1875537109375,5.446808815002441,-5.66228723526001,-2.190694570541382
1766400138420572200,-0.152427734375,6.7061591148376465,-7.931990146636963,-3.4739866256713867
1766400138430551300,-0.14244873046875,6.8162922859191895,-7.850587368011475,-4.175487995147705
1766400138440591600,-0.132408447265625,7.173028469085693,-8.281543731689453,-3.952826976776123
1766400138450571000,-0.122428955078125,6.952761650085449,-8.927978515625,-3.8331170082092285
1766400138460580600,-0.11241943359375,6.528987884521484,-8.355764389038086,-4.266467571258545
1766400138490671000,-0.082328857421875,6.615179061889648,-7.716512203216553,-4.747702121734619
1766400138500711200,-0.072288818359375,6.45476770401001,-6.897695064544678,-4.874594688415527
1766400138520731000,-0.05226904296875,6.332663536071777,-7.5968017578125,-5.0900726318359375
1766400138570901800,-0.00209814453125,5.647922039031982,-10.460267066955566,-6.787561893463135
1766400138600961500,0.02796142578125,5.65031623840332,-7.024587631225586,-6.234501361846924
1766400138610971400,0.037971435546875,5.609614372253418,-6.418854713439941,-6.3949127197265625
1766400138621011500,0.048011474609375,5.56173038482666,-6.3063273429870605,-6.629544734954834
1766400138631021300,0.058021240234375,5.525817394256592,-7.1251444816589355,-6.919242858886719
1766400138691202000,0.1182021484375,4.98472785949707,-5.801150798797607,-7.19936466217041
1766400138721292300,0.148292236328125,4.02465295791626,-4.49870491027832,-7.232883453369141
1766400138761453600,0.18845361328125,3.028665065765381,-2.9688100814819336,-7.5201873779296875
1766400138821603600,0.248603515625,1.314416766166687,-4.0964789390563965,-9.239224433898926
1766400138831674400,0.25867431640625,0.912190854549408,-3.6128504276275635,-9.655815124511719
1766400138901865000,0.328864990234375,-1.434126853942871,-5.233725070953369,-9.938331604003906
1766400138931924700,0.3589248046875,-0.9768342971801758,-3.8546648025512695,-9.332598686218262
1766400138982004000,0.40900390625,0.2537853717803955,-2.477998733520508,-9.399636268615723
1766400138992074800,0.41907470703125,0.7589619159698486,-1.9057846069335938,-9.488221168518066
1766400139002084600,0.429084716796875,0.9074024558067322,-1.7573440074920654,-9.734824180603027
1766400139012094200,0.43909423828125,0.9576807022094727,-1.7932571172714233,-9.883264541625977
1766400139022134500,0.449134521484375,0.8068459630012512,-1.7142484188079834,-9.732429504394531
1766400139032114000,0.459114013671875,0.6009446382522583,-1.7118542194366455,-9.62947940826416
1766400139042123500,0.46912353515625,0.3016694188117981,-1.3096283674240112,-9.29189682006836
1766400139052133400,0.47913330078125,0.028730420395731926,-0.8379706144332886,-9.210494041442871
1766400139072183600,0.49918359375,-0.4405331015586853,-0.6440402865409851,-9.074024200439453
1766400139112283600,0.53928369140625,-1.7741034030914307,-0.4572925269603729,-9.485827445983887
1766400139122323700,0.54932373046875,-2.1308395862579346,-0.31364041566848755,-9.342175483703613
1766400139132333600,0.55933349609375,-2.43011474609375,-0.22026655077934265,-9.26795482635498
1766400139142374000,0.569373779296875,-2.4612393379211426,-0.23702596127986908,-9.327810287475586
1766400139152475100,0.57947509765625,-2.3750481605529785,-0.10773907601833344,-9.368511199951172
1766400139162454500,0.58945458984375,-2.1499931812286377,-0.12928688526153564,-9.466673851013184
1766400139172464000,0.599464111328125,-2.006340980529785,-0.08858546614646912,-9.627084732055664
1766400139182474000,0.609473876953125,-1.9105730056762695,0.2298433631658554,-9.737217903137207
1766400139192483800,0.61948388671875,-1.8770540952682495,0.569819986820221,-9.643844604492188
1766400139202493400,0.629493408203125,-1.9369091987609863,0.7493851184844971,-9.713275909423828
1766400139212503300,0.63950341796875,-2.205059766769409,0.5746083855628967,-9.651026725769043
1766400139222513200,0.64951318359375,-2.3942017555236816,0.2777273952960968,-9.823410034179688
1766400139232492300,0.6594921875,-2.564189910888672,0.031124621629714966,-9.93354320526123
1766400139242532600,0.66953271484375,-2.6839001178741455,-0.07422025501728058,-10.180145263671875
1766400139262582500,0.68958251953125,-2.7293899059295654,0.4836287498474121,-10.47702693939209
1766400139272592400,0.69959228515625,-3.069366693496704,0.4908113479614258,-10.54645824432373
1766400139282663200,0.7096630859375,-3.4404678344726562,-0.0454898327589035,-10.565611839294434
1766400139292673000,0.719673095703125,-3.6966474056243896,-0.667982280254364,-10.69489860534668
1766400139302713300,0.72971337890625,-3.840299606323242,-0.5889736413955688,-10.781089782714844
1766400139312692500,0.7396923828125,-3.780444383621216,-0.0694318488240242,-10.673351287841797
1766400139322732800,0.74973291015625,-3.6798880100250244,0.3519476354122162,-10.589553833007812
1766400139332742700,0.75974267578125,-3.581725835800171,0.42856210470199585,-10.522516250610352
1766400139342782700,0.76978271484375,-3.670311212539673,0.35673606395721436,-10.680533409118652
1766400139352792600,0.77979248046875,-3.84269380569458,0.24420857429504395,-10.699687004089355
1766400139372812000,0.79981201171875,-4.113238334655762,-0.19632454216480255,-10.781089782714844
1766400139382822000,0.80982177734375,-4.197035789489746,-0.019153613597154617,-10.852916717529297
1766400139392831700,0.819831787109375,-4.244919776916504,0.12928688526153564,-10.639832496643066
1766400139402841300,0.82984130859375,-4.213795185089111,0.30885201692581177,-10.505757331848145
1766400139412851200,0.839851318359375,-4.129997730255127,0.33997663855552673,-10.675745010375977
1766400139422861000,0.849861083984375,-4.376600742340088,0.29209262132644653,-10.690110206604004
1766400139432840200,0.859840087890625,-4.491522312164307,-0.3064578175544739,-10.697293281555176
1766400139442880500,0.869880615234375,-4.441244125366211,-0.43095630407333374,-10.682928085327148
1766400139452951300,0.879951416015625,-4.2975921630859375,-0.2585737705230713,-10.589553833007812
1766400139472940300,0.899940185546875,-4.039018154144287,0.19632454216480255,-10.24239444732666
1766400139482980600,0.909980712890625,-4.086902141571045,0.1867477297782898,-10.268731117248535
1766400139493021000,0.92002099609375,-4.23773717880249,-0.06464344263076782,-10.390835762023926
1766400139503030500,0.930030517578125,-4.357447147369385,-0.12210428714752197,-10.38604736328125
1766400139513010000,0.940010009765625,-4.338293552398682,-0.12449848651885986,-10.244789123535156
1766400139523080700,0.950080810546875,-4.323928356170654,-0.05027823522686958,-10.122684478759766
1766400139533090300,0.96009033203125,-4.323928356170654,-0.05027823522686958,-10.122684478759766
1766400139553110000,0.980110107421875,-4.20421838760376,-0.10295066982507706,-10.165780067443848
1766400139573190400,1.0001904296875,-4.1874589920043945,-0.17477671802043915,-10.113107681274414
1766400139583230700,1.010230712890625,-4.23773717880249,-0.2537853717803955,-10.11550235748291
1766400139593240600,1.020240478515625,-4.3191399574279785,-0.1149216815829277,-9.986215591430664
1766400139603250400,1.03025048828125,-4.364629745483398,-0.26336219906806946,-9.873687744140625
1766400139613260000,1.040260009765625,-4.41969633102417,-0.3902548849582672,-9.749189376831055
1766400139623270000,1.050269775390625,-4.3191399574279785,-0.608127236366272,-9.66299819946289
1766400139633279700,1.06027978515625,-4.213795185089111,-0.44532153010368347,-9.576807022094727
1766400139643319800,1.07031982421875,-4.10366153717041,-0.18914192914962769,-9.641449928283691
1766400139653329700,1.08032958984375,-3.8977603912353516,-0.13168109953403473,-9.744400978088379
1766400139673349000,1.10034912109375,-3.3854012489318848,-0.7182605266571045,-9.974244117736816
1766400139683389400,1.110389404296875,-3.380612850189209,-1.2282254695892334,-10.26394271850586
1766400139693399300,1.1203994140625,-3.380612850189209,-2.1045033931732178,-10.606313705444336
1766400139703470000,1.130469970703125,-3.2154128551483154,-2.389413356781006,-11.018115997314453
1766400139713480000,1.14047998046875,-2.9257144927978516,-2.403778553009033,-11.231200218200684
1766400139723550700,1.15055078125,-2.7437551021575928,-2.1164743900299072,-11.446678161621094
1766400139733591000,1.160591064453125,-2.7509377002716064,-2.0398597717285156,-11.60708999633789
1766400139743600600,1.1706005859375,-2.875436305999756,-2.2409727573394775,-11.652579307556152
1766400139753610500,1.180610595703125,-3.050212860107422,-2.693476915359497,-11.398794174194336
1766400139773660400,1.200660400390625,-2.4133553504943848,-3.552995204925537,-11.149797439575195
1766400139783731200,1.210731201171875,-1.9800047874450684,-3.907337188720703,-11.255142211914062
1766400139793710600,1.220710693359375,-1.534683346748352,-4.084507942199707,-11.348516464233398
1766400139803781400,1.230781494140625,-1.173158884048462,-3.7493197917938232,-11.24795913696289
1766400139813821700,1.24082177734375,-0.8140285611152649,-3.1028854846954346,-11.432312965393066
1766400139823862000,1.250862060546875,-0.6392518281936646,-2.853888511657715,-11.638214111328125
1766400139833841200,1.260841064453125,-0.7110779285430908,-3.708618402481079,-11.882423400878906
1766400139843881500,1.270881591796875,-0.933738648891449,-4.326322555541992,-11.88002872467041
1766400139853891300,1.280891357421875,-0.9720458984375,-4.218583583831787,-11.616666793823242
1766400139883920400,1.31092041015625,-1.4939818382263184,-3.840299606323242,-11.310209274291992
1766400139903940000,1.330940185546875,-1.7166426181793213,-4.1874589920043945,-11.561599731445312
1766400139913949700,1.34094970703125,-1.644816517829895,-3.708618402481079,-11.552022933959961
1766400139923959600,1.35095947265625,-1.4772224426269531,-3.3734302520751953,-11.441889762878418
1766400139933969400,1.360969482421875,-1.3048399686813354,-3.49314022064209,-11.487380027770996
1766400139944009700,1.371009765625,-1.161187767982483,-3.5889084339141846,-11.590330123901367
1766400139953988900,1.38098876953125,-1.1468225717544556,-3.5625722408294678,-11.767500877380371
1766400139964029200,1.391029296875,-0.8451532125473022,-3.5913026332855225,-11.8441162109375
1766400140004098800,1.431098876953125,-1.1324573755264282,-4.129997730255127,-12.009315490722656
1766400140014108400,1.4411083984375,-1.2018892765045166,-4.19224739074707,-12.160150527954102
1766400140024118300,1.4511181640625,-1.3096283674240112,-3.9025487899780273,-11.951854705810547
1766400140034128100,1.461128173828125,-1.1300631761550903,-3.339911460876465,-11.657367706298828
1766400140044168200,1.471168212890625,-0.7948749661445618,-3.2632968425750732,-11.341333389282227
1766400140054178000,1.481177978515625,-0.6272808313369751,-3.44765043258667,-10.936713218688965
1766400140064218400,1.49121826171875,-0.5482721924781799,-3.134010076522827,-10.84094524383545
1766400140074258700,1.5012587890625,-0.6775590777397156,-2.4899697303771973,-10.704475402832031
1766400140094278100,1.521278076171875,-1.7908629179000854,-1.577778935432434,-10.366893768310547
1766400140124429600,1.5514296875,-2.762908697128296,-3.3734302520751953,-9.837775230407715
1766400140134408700,1.56140869140625,-2.387019157409668,-3.8738183975219727,-9.859322547912598
1766400140144418600,1.57141845703125,-2.169146776199341,-4.383783340454102,-9.835380554199219
1766400140154428400,1.581428466796875,-2.10210919380188,-5.7556610107421875,-9.876082420349121
1766400140164468500,1.591468505859375,-2.470816135406494,-6.9240312576293945,-9.433155059814453
1766400140174478300,1.601478271484375,-2.5258827209472656,-6.572083473205566,-8.760383605957031
1766400140184549000,1.611549072265625,-2.3942017555236816,-5.940014362335205,-8.092401504516602
1766400140224618800,1.65161865234375,-2.650381326675415,-5.779603004455566,-7.297526836395264
1766400140234628600,1.661628662109375,-3.557783842086792,-6.598419666290283,-6.782773494720459
1766400140244638200,1.67163818359375,-3.5673606395721436,-6.897695064544678,-6.605602264404297
1766400140254648000,1.68164794921875,-0.24899697303771973,-6.325480937957764,-7.522581577301025
1766400140264688400,1.6916884765625,0.14365209639072418,-7.328651428222656,-8.355764389038086
1766400140274667500,1.70166748046875,0.14365209639072418,-7.328651428222656,-8.355764389038086
1766400140284707800,1.711707763671875,-2.1930887699127197,-7.793126583099365,-6.445190906524658
1766400140304788500,1.73178857421875,-1.1204863786697388,-6.9695210456848145,-5.2672438621521
1766400140334848300,1.76184814453125,-0.6655880808830261,-4.244919776916504,-5.315127849578857
1766400140344888600,1.771888671875,-1.3623007535934448,-2.209848165512085,-4.850652694702148
1766400140354929000,1.781928955078125,-2.978386878967285,-3.936067581176758,-4.242525577545166
1766400140364969200,1.79196923828125,-2.5761611461639404,-5.916072368621826,-4.388571739196777
1766400140374978800,1.801978759765625,-2.3702597618103027,-7.568071365356445,-4.288015365600586
1766400140384988700,1.81198876953125,-2.2194249629974365,-7.352593421936035,-4.393360137939453
1766400140394998300,1.821998291015625,-2.736572504043579,-5.521028995513916,-4.558559894561768
1766400140435129000,1.862129150390625,-4.639962673187256,-8.039729118347168,-3.093308687210083
1766400140445138700,1.872138671875,-5.015852451324463,-8.238448143005371,-2.33913516998291
1766400140455148500,1.8821484375,-3.9217023849487305,-5.808333396911621,-2.477998733520508
1766400140465188900,1.89218896484375,-3.6559460163116455,-3.0861260890960693,-2.4229321479797363
1766400140475198500,1.902198486328125,-3.533841609954834,-3.268085241317749,-1.403002142906189
1766400140485238800,1.91223876953125,-1.721431016921997,-6.57926607131958,-1.4867992401123047
1766400140495218200,1.92221826171875,-0.8475474119186401,-7.857769966125488,-1.7118542194366455
1766400140525369600,1.95236962890625,-2.7437551021575928,-7.740454196929932,0.45250412821769714
1766400140535409700,1.96240966796875,-2.829946517944336,-8.53293514251709,-0.5147533416748047
1766400140545419500,1.97241943359375,-2.9951462745666504,-9.287108421325684,-0.8523358106613159
1766400140555429400,1.982429443359375,-3.270479440689087,-10.105925559997559,-0.3423708379268646
1766400140565500200,1.992500244140625,-3.6942532062530518,-10.867281913757324,-0.004788403399288654
1766400140575509800,2.002509765625,-3.469198226928711,-10.828974723815918,-0.5626373887062073
1766400140585550000,2.012550048828125,-3.6966474056243896,-9.9000244140625,-0.5267243981361389
1766400140625680600,2.0526806640625,-3.840299606323242,-9.32541561126709,-0.5961562395095825
1766400140635690500,2.0626904296875,-3.3016040325164795,-9.99339771270752,-0.9624691009521484
1766400140645730800,2.072730712890625,-3.1004912853240967,-8.904036521911621,-0.6991068720817566
1766400140655740700,2.08274072265625,-3.5913026332855225,-8.38449478149414,-0.5147533416748047
1766400140665750300,2.092750244140625,-4.0294413566589355,-8.422801971435547,-0.5386953949928284
1766400140675790600,2.10279052734375,-4.489128112792969,-8.200140953063965,-0.42616790533065796
1766400140685861400,2.112861328125,-4.857835292816162,-8.214506149291992,-0.33279404044151306
1766400140695871200,2.122871337890625,-4.917690277099609,-8.707711219787598,-0.2537853717803955
1766400140705880800,2.132880859375,-4.793191909790039,-8.904036521911621,-0.4213795065879822
1766400140725900500,2.152900634765625,-4.158728122711182,-7.723694801330566,-0.2513911724090576
1766400140755990800,2.18299072265625,-4.551377296447754,-6.84981107711792,0.06703764945268631
1766400140766031000,2.193031005859375,-4.546588897705078,-6.658275127410889,0.040701430290937424
1766400140776041000,2.203041015625,-4.3861775398254395,-6.57926607131958,0.2753331959247589
1766400140786081300,2.213081298828125,-4.2760443687438965,-6.493074893951416,0.4213795065879822
1766400140796121300,2.223121337890625,-4.252102375030518,-6.763619899749756,0.4596867263317108
1766400140806161700,2.23316162109375,-3.9839515686035156,-7.12035608291626,0.47165772318840027
1766400140836252200,2.263252197265625,-4.216189384460449,-8.38449478149414,0.4644751250743866
1766400140846323000,2.273322998046875,-4.67827033996582,-8.394071578979492,0.43335050344467163
1766400140856332500,2.28333251953125,-4.93923807144165,-8.389283180236816,0.608127236366272
1766400140866372900,2.293372802734375,-4.8602294921875,-8.188169479370117,0.689530074596405
1766400140876413200,2.3034130859375,-4.627991676330566,-7.960720539093018,0.6799532771110535
1766400140886453500,2.31345361328125,-4.481945514678955,-7.972691535949707,0.6847416758537292
1766400140896432600,2.3234326171875,-4.594472885131836,-8.236053466796875,0.667982280254364
1766400140906473000,2.333472900390625,-4.529829502105713,-8.169015884399414,0.6368576288223267
1766400140916482800,2.34348291015625,-4.364629745483398,-7.706935405731201,0.6751648783683777
1766400140926492400,2.353492431640625,-4.522646903991699,-7.702147006988525,0.8858546018600464
1766400140946542600,2.37354248046875,-4.529829502105713,-7.7883381843566895,1.1276689767837524
1766400140956552400,2.383552490234375,-4.599261283874512,-8.183381080627441,1.2545616626739502
1766400140966592500,2.393592529296875,-4.412513732910156,-8.099584579467773,1.3431471586227417
1766400140976602400,2.403602294921875,-4.280832767486572,-8.453926086425781,1.3215993642807007
1766400140986612200,2.4136123046875,-4.201824188232422,-8.793902397155762,1.338358759880066
1766400140996621800,2.423621826171875,-4.240131378173828,-8.710105895996094,1.2832920551300049
1766400141006662100,2.433662109375,-4.220977783203125,-8.669404029846191,1.2976573705673218
1766400141016672000,2.443672119140625,-4.271255970001221,-8.638279914855957,1.2330138683319092
1766400141056772000,2.483772216796875,-4.153939723968506,-8.312667846679688,1.3742717504501343
1766400141066812400,2.4938125,-4.371812343597412,-8.662221908569336,1.3646949529647827
1766400141076791600,2.50379150390625,-4.311957359313965,-9.188945770263672,1.4987702369689941
1766400141086801400,2.513801513671875,-4.2975921630859375,-9.289502143859863,1.6184803247451782
1766400141096841700,2.523841796875,-4.086902141571045,-9.418789863586426,1.2521674633026123
1766400141106882000,2.533882080078125,-4.410119533538818,-9.188945770263672,1.1444283723831177
1766400141116891600,2.5438916015625,-4.434061527252197,-8.827422142028809,0.9768342971801758
1766400141126932000,2.553931884765625,-4.436455726623535,-8.705317497253418,1.1971008777618408
1766400141177042000,2.6040419921875,-3.354276657104492,-9.042900085449219,1.5394717454910278
1766400141187082200,2.614082275390625,-3.8738183975219727,-8.956708908081055,1.4293384552001953
1766400141197061400,2.624061279296875,-4.402936935424805,-8.920795440673828,1.403002142906189
1766400141207132200,2.634132080078125,-4.520252704620361,-8.688557624816895,1.6065093278884888
1766400141217142000,2.64414208984375,-4.522646903991699,-8.29830265045166,1.7262194156646729
1766400141227151600,2.654151611328125,-4.666299343109131,-8.556877136230469,1.6208745241165161
1766400141237161500,2.664161376953125,-4.46518611907959,-8.877699851989746,1.455674648284912
1766400141257211600,2.684211669921875,-3.0789434909820557,-9.38048267364502,1.3407529592514038
1766400141267221200,2.69422119140625,-2.6360161304473877,-9.05247688293457,0.8403648138046265
1766400141277231000,2.704231201171875,-2.6647465229034424,-8.999804496765137,0.7829039692878723
1766400141287302000,2.714302001953125,-2.9903578758239746,-8.980650901794434,0.6967126727104187
1766400141297311700,2.724311767578125,-3.35667085647583,-9.186552047729492,0.48602294921875
1766400141307351800,2.734351806640625,-3.8091750144958496,-9.569623947143555,0.4692635238170624
1766400141317392100,2.74439208984375,-3.9671921730041504,-9.476250648498535,0.5841852426528931
1766400141327432400,2.754432373046875,-4.479551315307617,-9.672574996948242,0.7972691655158997
1766400141337442300,2.7644423828125,-5.324704647064209,-10.11789608001709,0.912190854549408
1766400141367532500,2.794532470703125,-5.892130374908447,-9.117119789123535,1.2258312702178955
1766400141377572900,2.80457275390625,-5.324704647064209,-8.858546257019043,1.2737152576446533
1766400141387582700,2.814582763671875,-4.290409564971924,-8.53532886505127,1.0845733880996704
1766400141397622800,2.824622802734375,-3.450044631958008,-7.773972988128662,0.9768342971801758
1766400141407632600,2.834632568359375,-2.8993782997131348,-7.745242595672607,1.015141487121582
1766400141417642500,2.844642578125,-2.96162748336792,-8.169015884399414,1.0295066833496094
1766400141427682800,2.854682861328125,-3.023876667022705,-8.446743965148926,0.9169792532920837
1766400141437723000,2.864722900390625,-3.0837318897247314,-8.56884765625,0.8810662031173706
1766400141447732700,2.874732666015625,-3.246537446975708,-9.033323287963867,0.8236053586006165
1766400141477853700,2.904853759765625,-3.136404275894165,-8.927978515625,0.5123591423034668
1766400141487863300,2.91486328125,-3.0813376903533936,-8.710105895996094,0.5793967843055725
1766400141497903600,2.924903564453125,-3.3231520652770996,-9.138668060302734,0.6607996821403503
1766400141507944000,2.93494384765625,-3.5434184074401855,-9.32302188873291,0.6392518281936646
1766400141517953800,2.944953857421875,-3.5410242080688477,-9.191340446472168,0.5195417404174805
1766400141527963400,2.95496337890625,-3.44765043258667,-9.514557838439941,0.4668693244457245
1766400141537973200,2.96497314453125,-3.4380736351013184,-9.545681953430176,0.35913026332855225
1766400141548013600,2.975013671875,-3.5434184074401855,-9.337387084960938,0.31364041566848755
1766400141558054000,2.985053955078125,-3.529053211212158,-9.282320022583008,0.3974374830722809
1766400141588113700,3.01511376953125,-3.706224203109741,-9.083600997924805,0.5674257874488831
1766400141598123300,3.025123291015625,-3.4739866256713867,-8.746018409729004,0.6775590777397156
1766400141608133000,3.035133056640625,-3.4380736351013184,-8.62630844116211,0.689530074596405
1766400141618143000,3.04514306640625,-3.6367924213409424,-8.954314231872559,0.7852981686592102
1766400141628152600,3.055152587890625,-3.4811692237854004,-8.995016098022461,0.727837324142456
1766400141638162400,3.065162353515625,-3.4596214294433594,-8.858546257019043,0.7469909191131592
1766400141648202800,3.07520263671875,-3.4308910369873047,-8.939949035644531,0.7781155705451965
1766400141658212600,3.085212646484375,-3.423708438873291,-8.999804496765137,0.7326257228851318
1766400141668222200,3.09522216796875,-3.313575267791748,-9.026140213012695,0.7709329724311829
1766400141678232000,3.105232177734375,-3.3925838470458984,-9.009381294250488,0.6536170840263367
1766400141688302800,3.115302734375,-3.466804027557373,-8.966285705566406,0.7493851184844971
1766400141698312700,3.125312744140625,-3.4524388313293457,-8.825027465820312,0.8212111592292786
1766400141708322300,3.135322265625,-3.4404678344726562,-8.71728801727295,0.7709329724311829
1766400141718332200,3.145332275390625,-3.466804027557373,-8.880094528198242,0.9074024558067322
1766400141728342000,3.155342041015625,-3.514688014984131,-8.98543930053711,0.8403648138046265
1766400141738351600,3.1653515625,-3.6391866207122803,-8.920795440673828,0.8355764150619507
1766400141748361500,3.175361572265625,-3.6966474056243896,-8.901641845703125,0.8619126081466675
1766400141758371000,3.18537109375,-3.737348794937134,-9.030928611755371,0.828393816947937
1766400141768381000,3.195380859375,-3.7852327823638916,-8.904036521911621,0.8571242094039917
1766400141798410200,3.22541015625,-3.5865142345428467,-9.090784072875977,0.6512228846549988
1766400141808420000,3.235420166015625,-3.5865142345428467,-9.090784072875977,0.6512228846549988
1766400141818429700,3.2454296875,-3.383007049560547,-9.01895809173584,0.5578489899635315
1766400141828470000,3.255469970703125,-3.4811692237854004,-9.0859956741333,0.6392518281936646
1766400141838449400,3.265449462890625,-3.464409828186035,-8.954314231872559,0.6200982332229614
1766400141848489500,3.275489501953125,-3.4763808250427246,-8.96389102935791,0.6057330369949341
1766400141858499300,3.285499267578125,-3.488351821899414,-9.074024200439453,0.7398083209991455
1766400141868539600,3.29553955078125,-3.28963303565979,-9.141061782836914,0.6177040338516235
1766400141888589800,3.31558984375,-3.2082302570343018,-9.299078941345215,0.7469909191131592
1766400141898599400,3.325599365234375,-3.155557870864868,-9.263166427612305,0.6727706789970398
1766400141908609300,3.335609375,-3.136404275894165,-9.026140213012695,0.7158663272857666
1766400141918649600,3.345649658203125,-3.203441858291626,-9.20091724395752,0.7924807667732239
1766400141928690000,3.35568994140625,-3.265691041946411,-9.361329078674316,0.7541735172271729
1766400141938699500,3.365699462890625,-3.157952070236206,-9.32541561126709,0.6177040338516235
1766400141948739800,3.37573974609375,-3.0813376903533936,-9.272743225097656,0.7230489253997803
1766400141958749700,3.385749755859375,-3.0861260890960693,-9.354146003723145,0.6775590777397156
1766400141968759300,3.39575927734375,-3.0166940689086914,-9.555258750915527,0.6320692300796509
1766400141988779000,3.415779052734375,-2.87064790725708,-9.150638580322266,0.6512228846549988
1766400141998788600,3.42578857421875,-2.918531894683838,-9.29189682006836,0.7230489253997803
1766400142008798500,3.435798583984375,-2.8993782997131348,-9.265560150146484,0.7350199222564697
1766400142018777600,3.445777587890625,-2.935291290283203,-9.23443603515625,0.6584054827690125
1766400142028787500,3.455787353515625,-2.9903578758239746,-9.387664794921875,0.7254431247711182
1766400142038797300,3.46579736328125,-3.064578056335449,-9.610325813293457,0.7350199222564697
1766400142048837400,3.47583740234375,-2.9903578758239746,-9.569623947143555,0.7493851184844971
1766400142058877700,3.485877685546875,-2.851494312286377,-9.780313491821289,0.8451532125473022
1766400142068887600,3.495887451171875,-2.7054479122161865,-9.761159896850586,0.7637503147125244
1766400142078897400,3.5058974609375,-2.4181437492370605,-9.576807022094727,0.706289529800415
1766400142098916900,3.525916748046875,-2.4827871322631836,-9.497797966003418,0.849941611289978
1766400142118966800,3.545966796875,-2.5067291259765625,-9.354146003723145,0.8475474119186401
1766400142139017000,3.566016845703125,-2.5043349266052246,-9.543288230895996,0.9097966551780701
1766400142149026800,3.57602685546875,-2.3247697353363037,-9.583989143371582,0.8212111592292786
1766400142159067000,3.58606689453125,-2.1140801906585693,-9.603142738342285,0.8882488012313843
1766400142169076700,3.59607666015625,-2.0374655723571777,-9.370905876159668,0.8475474119186401
1766400142179086600,3.606086669921875,-1.9297266006469727,-9.042900085449219,0.9002198576927185
1766400142189096200,3.61609619140625,-1.8698714971542358,-9.184157371520996,0.9217676520347595
1766400142199106000,3.62610595703125,-1.8842366933822632,-9.246406555175781,0.9840168952941895
1766400142209146400,3.636146484375,-1.7908629179000854,-9.30386734008789,0.9217676520347595
1766400142219186700,3.646186767578125,-1.821987509727478,-9.095572471618652,0.950498104095459
1766400142229227000,3.65622705078125,-1.3455413579940796,-9.23682975769043,0.8690952062606812
1766400142239236600,3.666236572265625,-1.1994950771331787,-9.342175483703613,0.828393816947937
1766400142249246500,3.67624658203125,-1.1755530834197998,-9.59835433959961,0.9002198576927185
1766400142259256300,3.68625634765625,-1.1755530834197998,-9.895236015319824,0.7948749661445618
1766400142269296400,3.69629638671875,-1.3503297567367554,-9.832986831665039,0.8738836050033569
1766400142279306200,3.70630615234375,-1.2042834758758545,-9.557653427124023,0.8379706144332886
1766400142289316000,3.716316162109375,-0.9768342971801758,-9.560047149658203,1.0654197931289673
1766400142309335600,3.73633544921875,-0.5626373887062073,-9.871294021606445,0.8355764150619507
1766400142319406300,3.74640625,-0.43095630407333374,-9.59835433959961,0.730231523513794
1766400142329416200,3.756416259765625,-0.15801730751991272,-9.57441234588623,0.7637503147125244
1766400142339425800,3.76642578125,-0.272938996553421,-9.581595420837402,0.8690952062606812
1766400142349466000,3.776466064453125,-0.31364041566848755,-10.144232749938965,0.8667010068893433
1766400142359476000,3.78647607421875,-0.4165911078453064,-10.529699325561523,0.8403648138046265
1766400142369485600,3.796485595703125,-0.4596867263317108,-10.445901870727539,0.8475474119186401
1766400142379495400,3.806495361328125,-0.545877993106842,-9.871294021606445,0.8523358106613159
1766400142389535700,3.81653564453125,-0.6943184733390808,-9.32302188873291,0.9217676520347595
1766400142399545600,3.826545654296875,-0.8834604024887085,-9.502586364746094,0.9552865028381348
1766400142459665200,3.8866650390625,-1.7956513166427612,-9.251194953918457,1.1492167711257935
1766400142469705500,3.89670556640625,-1.9057846069335938,-9.454702377319336,1.1468225717544556
1766400142479745800,3.906745849609375,-2.030282974243164,-9.677363395690918,1.1204863786697388
1766400142489786000,3.9167861328125,-2.099714994430542,-9.619902610778809,0.993593692779541
1766400142499795700,3.926795654296875,-2.207453966140747,-9.490615844726562,1.0055646896362305
1766400142529855500,3.95685546875,-2.561795711517334,-9.794678688049316,0.8978256583213806
1766400142539865300,3.966865234375,-2.561795711517334,-9.794678688049316,0.8978256583213806
1766400142549875200,3.976875244140625,-2.6862943172454834,-9.643844604492188,0.8427590131759644
1766400142559884800,3.986884765625,-2.655169725418091,-9.569623947143555,0.8140285611152649
1766400142569894700,3.996894775390625,-2.7461493015289307,-9.59835433959961,0.9528923034667969
1766400142579935000,4.00693505859375,-2.7724854946136475,-9.634267807006836,0.9289502501487732
1766400142590005800,4.017005859375,-2.959233283996582,-9.730035781860352,1.0031704902648926
1766400142600015400,4.027015380859375,-3.0358476638793945,-9.864110946655273,1.0749965906143188
1766400142650125300,4.077125244140625,-3.021482467651367,-9.543288230895996,1.015141487121582
1766400142660135200,4.08713525390625,-2.875436305999756,-9.27034854888916,1.0414776802062988
1766400142670144800,4.097144775390625,-2.7293899059295654,-9.030928611755371,0.993593692779541
1766400142680185000,4.10718505859375,-2.765302896499634,-9.050082206726074,1.094150185585022
1766400142690195000,4.11719482421875,-2.8443117141723633,-9.282320022583008,1.0462661981582642
1766400142700204800,4.127204833984375,-2.7916390895843506,-9.20091724395752,1.0319008827209473
1766400142710244900,4.137244873046875,-2.784456491470337,-9.078812599182129,1.0223240852355957
1766400142730264600,4.1572646484375,-2.782062292098999,-9.038111686706543,1.0821791887283325
1766400142740274200,4.167274169921875,-2.693476915359497,-9.071630477905273,1.139639973640442
1766400142750314500,4.177314453125,-2.5737667083740234,-9.150638580322266,1.0247182846069336
1766400142760324400,4.187324462890625,-2.389413356781006,-9.20091724395752,0.9768342971801758
1766400142770334200,4.197334228515625,-2.161964178085327,-9.165003776550293,1.0223240852355957
1766400142780343800,4.20734375,-2.030282974243164,-9.097966194152832,0.9792284965515137
1766400142790353700,4.217353759765625,-2.075772762298584,-9.126696586608887,0.9528923034667969
1766400142800455000,4.227454833984375,-2.1356279850006104,-9.172186851501465,0.9169792532920837
1766400142810464800,4.23746484375,-2.1978771686553955,-9.277531623840332,0.9911994934082031
1766400142840494000,4.267494140625,-2.3558945655822754,-9.366117477416992,1.070208191871643
1766400142850564900,4.27756494140625,-2.250549554824829,-9.385271072387695,1.1300631761550903
1766400142860574500,4.287574462890625,-2.1763293743133545,-9.399636268615723,1.072602391242981
1766400142870645200,4.297645263671875,-2.0901381969451904,-9.421183586120605,1.1180921792984009
1766400142880655000,4.307655029296875,-2.0805611610412598,-9.533711433410645,1.0438719987869263
1766400142890726000,4.317725830078125,-2.1284453868865967,-9.66299819946289,1.015141487121582
1766400142900735700,4.32773583984375,-2.0829553604125977,-9.48343276977539,1.0247182846069336
1766400142920755200,4.347755126953125,-2.212242364883423,-9.6989107131958,1.070208191871643
1766400142950845400,4.377845458984375,-2.140416383743286,-9.617507934570312,0.993593692779541
1766400142960885800,4.3878857421875,-2.0925323963165283,-9.672574996948242,1.0630255937576294
1766400142970956500,4.39795654296875,-2.027888774871826,-9.622296333312988,1.0606313943862915
1766400142980936000,4.40793603515625,-1.9776105880737305,-9.567230224609375,1.1061211824417114
1766400142990976300,4.417976318359375,-2.0183119773864746,-9.469067573547363,1.2210428714752197
1766400143001047000,4.428047119140625,-1.965639591217041,-9.459490776062012,1.216254472732544
1766400143011056600,4.438056640625,-1.9752163887023926,-9.433155059814453,1.2042834758758545
1766400143021066500,4.44806640625,-2.0925323963165283,-9.466673851013184,1.2521674633026123
1766400143051095800,4.478095703125,-2.126051187515259,-9.536105155944824,1.2521674633026123
1766400143061136100,4.48813623046875,-2.054224967956543,-9.593565940856934,1.237802267074585
1766400143071145700,4.498145751953125,-2.056619167327881,-9.466673851013184,1.1635819673538208
1766400143081155600,4.508155517578125,-2.0374655723571777,-9.526528358459473,1.1348515748977661
1766400143091196000,4.51819580078125,-2.0829553604125977,-9.691728591918945,1.0582371950149536
1766400143101205800,4.528205810546875,-2.229001760482788,-9.643844604492188,1.2186486721038818
1766400143111245800,4.538245849609375,-2.1787235736846924,-9.603142738342285,1.2042834758758545
1766400143121255700,4.548255615234375,-2.2194249629974365,-9.641449928283691,1.2497732639312744
1766400143131296000,4.5582958984375,-2.293645143508911,-9.68694019317627,1.3024457693099976
1766400143151315500,4.5783154296875,-2.231395959854126,-9.75397777557373,1.2665326595306396
1766400143161325300,4.5883251953125,-2.1356279850006104,-9.718064308166504,1.1683704853057861
1766400143171335200,4.598335205078125,-2.051830768585205,-9.588777542114258,1.2066776752471924
1766400143181375200,4.608375244140625,-2.0015525817871094,-9.560047149658203,1.2186486721038818
1766400143191385000,4.618385009765625,-2.126051187515259,-9.552865028381348,1.2018892765045166
1766400143201395000,4.62839501953125,-2.1380221843719482,-9.59596061706543,1.1803414821624756
1766400143211404500,4.638404541015625,-2.140416383743286,-9.53849983215332,1.3646949529647827
1766400143221414400,4.648414306640625,-1.9704279899597168,-9.526528358459473,1.381454348564148
1766400143231454700,4.658454833984375,-1.9560627937316895,-9.579200744628906,1.2545616626739502
1766400143241464600,4.668464599609375,-1.9488801956176758,-9.586383819580078,1.1635819673538208
1766400143251474200,4.67847412109375,-1.8914192914962769,-9.512163162231445,1.137245774269104
1766400143261484000,4.688484130859375,-1.7980455160140991,-9.114726066589355,1.1492167711257935
1766400143271463200,4.698463134765625,-1.6903064250946045,-9.100360870361328,1.2306196689605713
1766400143281503500,4.70850341796875,-1.558625340461731,-9.354146003723145,1.235408067703247
1766400143291543800,4.718543701171875,-1.558625340461731,-9.354146003723145,1.235408067703247
1766400143301523000,4.72852294921875,-1.436521053314209,-9.339780807495117,1.115697979927063
1766400143311532800,4.73853271484375,-1.4077905416488647,-9.26795482635498,0.9911994934082031
1766400143321634000,4.748634033203125,-1.6304513216018677,-9.390059471130371,1.0127472877502441
1766400143331644000,4.758643798828125,-1.7094600200653076,-9.727641105651855,0.950498104095459
1766400143341653800,4.76865380859375,-1.778891921043396,-9.674968719482422,0.9385270476341248
1766400143351693800,4.77869384765625,-1.8148049116134644,-9.3828763961792,1.036689281463623
1766400143361764900,4.788764892578125,-1.9177556037902832,-9.299078941345215,1.2114660739898682
1766400143371805000,4.798804931640625,-2.0901381969451904,-9.437943458557129,1.1276689767837524
1766400143381814800,4.808814697265625,-2.078166961669922,-9.433155059814453,1.1540051698684692
1766400143391824600,4.81882470703125,-2.2409727573394775,-9.272743225097656,1.1755530834197998
1766400143401834200,4.828834228515625,-2.1045033931732178,-9.519346237182617,1.173158884048462
1766400143411874600,4.83887451171875,-1.9273324012756348,-9.718064308166504,1.1635819673538208
1766400143421884400,4.848884521484375,-1.742978811264038,-9.653421401977539,1.1420341730117798
1766400143431894000,4.85889404296875,-1.5945383310317993,-9.531316757202148,1.0462661981582642
1766400143451913700,4.878913818359375,-1.8339585065841675,-9.761159896850586,1.1300631761550903
1766400143461923300,4.88892333984375,-1.8962076902389526,-9.730035781860352,1.2234370708465576
1766400143471963600,4.898963623046875,-1.9584569931030273,-9.53849983215332,1.3096283674240112
1766400143482034400,4.909034423828125,-1.9728221893310547,-9.459490776062012,1.3431471586227417
1766400143492074800,4.91907470703125,-1.9393033981323242,-9.344569206237793,1.3287819623947144
1766400143502084600,4.929084716796875,-1.8962076902389526,-9.370905876159668,1.3646949529647827
1766400143512094200,4.93909423828125,-1.8602946996688843,-9.363722801208496,1.3527239561080933
1766400143522134500,4.949134521484375,-1.7932571172714233,-9.327810287475586,1.3527239561080933
1766400143532174800,4.9591748046875,-1.7501614093780518,-9.409213066101074,1.2090718746185303
1766400143542184700,4.969184814453125,-1.8746598958969116,-9.409213066101074,1.192312479019165
1766400143562234600,4.989234619140625,-1.9488801956176758,-9.459490776062012,1.2737152576446533
1766400143572244500,4.999244384765625,-1.9273324012756348,-9.516951560974121,1.2018892765045166
1766400143582254300,5.00925439453125,-1.9704279899597168,-9.409213066101074,1.2210428714752197
1766400143592233500,5.0192333984375,-1.9632453918457031,-9.490615844726562,1.2880805730819702
1766400143602273800,5.029273681640625,-2.0422539710998535,-9.514557838439941,1.2737152576446533
1766400143612344600,5.039344482421875,-2.0853497982025146,-9.344569206237793,1.2042834758758545
1766400143622385000,5.049385009765625,-2.0901381969451904,-9.349357604980469,1.316810965538025
1766400143642404400,5.069404296875,-2.078166961669922,-9.703699111938477,1.2258312702178955
1766400143652475100,5.07947509765625,-1.843535304069519,-9.533711433410645,1.2234370708465576
1766400143692605700,5.119605712890625,-1.8387469053268433,-9.737217903137207,1.0797849893569946
1766400143702585000,5.129585205078125,-1.821987509727478,-9.239224433898926,0.993593692779541
1766400143712625400,5.13962548828125,-1.8555063009262085,-9.133879661560059,1.1348515748977661
1766400143722635000,5.149635009765625,-1.9321208000183105,-9.184157371520996,1.1228805780410767
1766400143732675300,5.15967529296875,-1.9536685943603516,-9.244012832641602,1.0079588890075684
1766400143742685200,5.169685302734375,-1.889025092124939,-9.222464561462402,1.1228805780410767
1766400143752695000,5.179695068359375,-1.9129672050476074,-9.17936897277832,1.1851298809051514
1766400143762704600,5.18970458984375,-1.941697597503662,-9.406818389892578,1.1827356815338135
1766400143772745000,5.199744873046875,-1.9943699836730957,-9.703699111938477,1.1875240802764893
1766400143782754800,5.2097548828125,-1.920149803161621,-9.737217903137207,1.1563993692398071
1766400143792825600,5.21982568359375,-1.9273324012756348,-9.502586364746094,1.1492167711257935
1766400143802835200,5.229835205078125,-2.0039467811584473,-9.62947940826416,1.1468225717544556
1766400143812845000,5.239844970703125,-2.013523578643799,-9.543288230895996,1.1851298809051514
1766400143822855000,5.24985498046875,-2.097320795059204,-9.488221168518066,1.1851298809051514
1766400143832864500,5.259864501953125,-2.142810583114624,-9.612719535827637,1.1827356815338135
1766400143842874400,5.269874267578125,-2.2673089504241943,-9.701305389404297,1.173158884048462
1766400143852945200,5.279945068359375,-2.2146365642547607,-9.674968719482422,1.1061211824417114
1766400143862955000,5.289955078125,-2.0805611610412598,-9.564835548400879,1.1228805780410767
1766400143883005000,5.3100048828125,-1.9776105880737305,-9.5624418258667,1.0438719987869263
1766400143903055000,5.33005517578125,-1.886630892753601,-9.550470352172852,1.1204863786697388
1766400143913095400,5.340095458984375,-1.8339585065841675,-9.509769439697266,1.1085153818130493
1766400143923135500,5.350135498046875,-1.8124107122421265,-9.509769439697266,1.1013327836990356
1766400143933175800,5.36017578125,-1.8794482946395874,-9.543288230895996,1.1180921792984009
1766400143943185700,5.370185546875,-1.8914192914962769,-9.528923034667969,1.139639973640442
1766400143953226000,5.38022607421875,-1.9297266006469727,-9.519346237182617,1.115697979927063
1766400143963235600,5.390235595703125,-2.006340980529785,-9.524134635925293,1.091755986213684
1766400143973306400,5.400306396484375,-2.013523578643799,-9.557653427124023,1.0821791887283325
1766400143983316200,5.410316162109375,-2.0614075660705566,-9.50498104095459,1.0462661981582642
1766400144013376000,5.4403759765625,-1.987187385559082,-9.411606788635254,1.170764684677124
1766400144023385900,5.4503857421875,-2.0374655723571777,-9.548076629638672,1.1204863786697388
1766400144033395700,5.460395751953125,-2.078166961669922,-9.44752025604248,1.1779472827911377
1766400144043435800,5.470435791015625,-2.0925323963165283,-9.646238327026367,1.1324573755264282
1766400144053445600,5.480445556640625,-2.1116859912872314,-9.588777542114258,1.1109095811843872
1766400144063486000,5.49048583984375,-2.1116859912872314,-9.588777542114258,1.1109095811843872
1766400144073495800,5.500495849609375,-2.0853497982025146,-9.521739959716797,1.048660397529602
1766400144083505400,5.51050537109375,-2.166752576828003,-9.557653427124023,1.1444283723831177
1766400144123666700,5.550666748046875,-2.0901381969451904,-9.624691009521484,1.0103530883789062
1766400144133676300,5.56067626953125,-2.0901381969451904,-9.524134635925293,0.9720458984375
1766400144143686100,5.57068603515625,-1.9847931861877441,-9.500192642211914,0.9457096457481384
1766400144153696000,5.580696044921875,-1.9033904075622559,-9.370905876159668,0.9576807022094727
1766400144163736000,5.590736083984375,-1.9057846069335938,-9.502586364746094,1.0103530883789062
1766400144173776400,5.6007763671875,-2.075772762298584,-9.564835548400879,1.0055646896362305
1766400144183786200,5.6107861328125,-2.10210919380188,-9.478644371032715,1.1228805780410767
1766400144213907200,5.6409072265625,-2.054224967956543,-9.550470352172852,1.0749965906143188
1766400144223916800,5.650916748046875,-1.98958158493042,-9.576807022094727,1.0271124839782715
1766400144233957000,5.66095703125,-1.9991583824157715,-9.646238327026367,1.039083480834961
1766400144243967000,5.670967041015625,-2.099714994430542,-9.75397777557373,1.0103530883789062
1766400144253976600,5.6809765625,-2.1068975925445557,-9.48343276977539,0.9313444495201111
1766400144263986400,5.690986328125,-2.2194249629974365,-9.344569206237793,0.8451532125473022
1766400144274026800,5.70102685546875,-2.006340980529785,-9.459490776062012,0.9265560507774353
1766400144294046200,5.721046142578125,-1.9728221893310547,-9.63187313079834,0.9002198576927185
1766400144324075500,5.751075439453125,-2.0207061767578125,-9.344569206237793,0.993593692779541
1766400144334115800,5.76111572265625,-2.1092917919158936,-9.363722801208496,1.015141487121582
1766400144344156200,5.77115625,-2.1116859912872314,-9.421183586120605,0.8954314589500427
1766400144354165800,5.781165771484375,-2.1595699787139893,-9.493009567260742,0.9433154463768005
1766400144364175600,5.791175537109375,-2.161964178085327,-9.600749015808105,0.9457096457481384
1766400144374216000,5.8012158203125,-2.2218191623687744,-9.677363395690918,0.8738836050033569
1766400144384225800,5.811225830078125,-2.1954829692840576,-9.696516990661621,0.9074024558067322
1766400144414285600,5.84128564453125,-2.2361843585968018,-9.684545516967773,0.9026140570640564
1766400144424295200,5.851295166015625,-1.9632453918457031,-9.126696586608887,0.7948749661445618
1766400144434335500,5.86133544921875,-2.054224967956543,-9.232041358947754,0.8451532125473022
1766400144444345300,5.871345458984375,-2.1739351749420166,-9.646238327026367,0.8906430602073669
1766400144454355200,5.881355224609375,-2.3032219409942627,-9.646238327026367,0.7757213711738586
1766400144464364800,5.89136474609375,-2.2242133617401123,-9.569623947143555,0.8164227604866028
1766400144474435600,5.901435546875,-2.27209734916687,-9.579200744628906,0.828393816947937
1766400144484445400,5.911445556640625,-2.2026655673980713,-9.610325813293457,0.8068459630012512
1766400144524484400,5.951484375,-1.7070658206939697,-9.275136947631836,1.015141487121582
1766400144534494200,5.961494140625,-1.8698714971542358,-9.30386734008789,0.9552865028381348
1766400144544504000,5.971504150390625,-1.9345149993896484,-9.493009567260742,1.0031704902648926
1766400144554513700,5.981513671875,-1.8962076902389526,-9.543288230895996,0.9289502501487732
1766400144564523500,5.9915234375,-1.8148049116134644,-9.473855972290039,0.9097966551780701
1766400144574563800,6.001563720703125,-1.8124107122421265,-9.452308654785156,1.0055646896362305
1766400144584604200,6.011604248046875,-1.9105730056762695,-9.555258750915527,0.8475474119186401
1766400144594613800,6.02161376953125,-1.9847931861877441,-9.653421401977539,0.8571242094039917
1766400144604623600,6.03162353515625,-1.9919757843017578,-9.646238327026367,0.9074024558067322
1766400144614664000,6.041663818359375,-2.0853497982025146,-9.605537414550781,0.9145850539207458
1766400144624673800,6.051673828125,-2.008735179901123,-9.624691009521484,0.8547300100326538
1766400144634683400,6.061683349609375,-1.9847931861877441,-9.526528358459473,0.7852981686592102
1766400144644693200,6.071693359375,-1.886630892753601,-9.514557838439941,0.828393816947937
1766400144654703000,6.081703125,-2.049436569213867,-9.6989107131958,0.9097966551780701
1766400144664712700,6.091712646484375,-2.1380221843719482,-9.75637149810791,0.9217676520347595
1766400144674722600,6.10172265625,-2.212242364883423,-9.75637149810791,0.9169792532920837
1766400144684732200,6.111732177734375,-2.164358377456665,-9.57201862335205,0.9792284965515137
1766400144694742000,6.121741943359375,-2.183511972427368,-9.648633003234863,1.0582371950149536
1766400144704751900,6.131751953125,-2.099714994430542,-9.636661529541016,1.0007762908935547
1766400144734781200,6.16178125,-2.0829553604125977,-9.66299819946289,0.9600749015808105
1766400144744790800,6.171790771484375,-2.0877439975738525,-9.725247383117676,0.9385270476341248
1766400144754800600,6.181800537109375,-2.008735179901123,-9.66539192199707,0.8571242094039917
1766400144764841000,6.191841064453125,-1.98958158493042,-9.672574996948242,0.8236053586006165
1766400144774850600,6.2018505859375,-2.0685901641845703,-9.521739959716797,0.849941611289978
1766400144784860400,6.2118603515625,-1.9800047874450684,-9.533711433410645,0.9409212470054626
1766400144794870300,6.221870361328125,-1.9800047874450684,-9.533711433410645,0.9409212470054626
1766400144804880000,6.2318798828125,-1.9800047874450684,-9.682151794433594,0.8978256583213806
1766400144814889700,6.2418896484375,-1.8842366933822632,-9.739612579345703,0.8259995579719543
1766400144844919000,6.2719189453125,-1.9488801956176758,-9.730035781860352,0.7948749661445618
1766400144854959400,6.28195947265625,-1.8986018896102905,-9.720458984375,0.7733271718025208
1766400144864969200,6.29196923828125,-1.8100165128707886,-9.701305389404297,0.8164227604866028
1766400144875009300,6.30200927734375,-1.8387469053268433,-9.677363395690918,0.751779317855835
1766400144885049600,6.312049560546875,-1.8171991109848022,-9.521739959716797,0.8667010068893433
1766400144895059500,6.3220595703125,-1.7860745191574097,-9.619902610778809,0.8690952062606812
1766400144905099800,6.332099853515625,-1.8052281141281128,-9.622296333312988,0.8906430602073669
1766400144915109400,6.342109375,-1.766920804977417,-9.493009567260742,0.9457096457481384
1766400144925119200,6.352119140625,-1.8124107122421265,-9.612719535827637,0.8738836050033569
1766400144945199900,6.372199951171875,-1.8124107122421265,-9.30386734008789,0.8619126081466675
1766400144955209500,6.38220947265625,-1.9105730056762695,-9.500192642211914,0.9145850539207458
1766400144965219300,6.39221923828125,-1.821987509727478,-9.593565940856934,0.7469909191131592
1766400144975229200,6.402229248046875,-1.965639591217041,-9.909601211547852,0.6823474764823914
1766400144985238800,6.41223876953125,-1.944091796875,-9.859322547912598,0.8044517636299133
1766400144995279000,6.422279052734375,-1.900996208190918,-9.607931137084961,0.8307880163192749
1766400145005289000,6.4322890625,-1.9847931861877441,-9.454702377319336,0.9145850539207458
1766400145015329300,6.442329345703125,-1.9919757843017578,-9.497797966003418,0.9145850539207458
1766400145025369600,6.45236962890625,-1.9943699836730957,-9.581595420837402,0.8643068075180054
1766400145045450000,6.472449951171875,-1.9919757843017578,-9.579200744628906,0.7709329724311829
1766400145055459800,6.4824599609375,-1.9919757843017578,-9.751583099365234,0.8571242094039917
1766400145065500200,6.492500244140625,-1.9105730056762695,-9.593565940856934,0.8092401623725891
1766400145075540500,6.50254052734375,-1.7310078144073486,-9.258378028869629,0.8667010068893433
1766400145085550000,6.512550048828125,-1.656787633895874,-9.17697525024414,0.9552865028381348
1766400145095590400,6.52259033203125,-1.6424223184585571,-9.299078941345215,0.9481038451194763
1766400145105600300,6.532600341796875,-1.7334020137786865,-9.576807022094727,0.9433154463768005
1766400145115671000,6.542671142578125,-1.7956513166427612,-9.639056205749512,0.9792284965515137
1766400145125650200,6.552650146484375,-1.7836803197860718,-9.691728591918945,1.0007762908935547
1766400145135690500,6.5626904296875,-1.7477672100067139,-9.569623947143555,0.9313444495201111
1766400145155771100,6.582771240234375,-1.8507179021835327,-9.739612579345703,0.9385270476341248
1766400145165780700,6.59278076171875,-1.845929503440857,-9.84495735168457,0.9481038451194763
1766400145175821000,6.602821044921875,-1.9057846069335938,-9.579200744628906,0.8475474119186401
1766400145185831000,6.612830810546875,-1.9536685943603516,-9.509769439697266,0.8834604024887085
1766400145195840800,6.6228408203125,-1.9608511924743652,-9.399636268615723,0.7972691655158997
1766400145205850400,6.632850341796875,-1.9632453918457031,-9.560047149658203,0.7637503147125244
1766400145215921200,6.642921142578125,-1.8507179021835327,-9.813833236694336,0.7493851184844971
1766400145225931000,6.652930908203125,-1.7573440074920654,-9.732429504394531,0.7326257228851318
1766400145235971300,6.662971435546875,-1.6879122257232666,-9.622296333312988,0.7924807667732239
1766400145266031000,6.693031005859375,-1.5969325304031372,-9.706093788146973,0.7038952708244324
1766400145276071400,6.703071533203125,-1.5873557329177856,-9.59835433959961,0.7038952708244324
1766400145286081000,6.7130810546875,-1.659181833267212,-9.694122314453125,0.8236053586006165
1766400145296182500,6.7231826171875,-1.6280571222305298,-10.158597946166992,0.8834604024887085
1766400145306192100,6.733192138671875,-1.53707754611969,-10.20887565612793,0.8355764150619507
1766400145316202000,6.743201904296875,-1.0295066833496094,-9.287108421325684,0.7134721279144287
1766400145326242300,6.7532421875,-0.667982280254364,-8.147468566894531,0.7589619159698486
1766400145336252200,6.763252197265625,-0.8523358106613159,-8.276755332946777,0.9433154463768005
1766400145366312000,6.79331201171875,-1.5203180313110352,-9.765948295593262,0.7493851184844971
1766400145376321500,6.803321533203125,-1.2545616626739502,-9.677363395690918,0.7733271718025208
1766400145386331400,6.813331298828125,-1.3048399686813354,-9.888052940368652,0.8834604024887085
1766400145396371700,6.823371826171875,-1.2282254695892334,-10.201693534851074,0.8427590131759644
1766400145406381600,6.833381591796875,-1.1013327836990356,-10.168174743652344,0.7661445140838623
1766400145416391200,6.84339111328125,-0.8906430602073669,-9.785101890563965,0.7206547260284424
1766400145426401000,6.853401123046875,-0.727837324142456,-9.605537414550781,0.7469909191131592
1766400145436441300,6.86344140625,-0.6344634294509888,-9.481039047241211,0.7589619159698486
1766400145466470700,6.893470703125,-0.768538773059845,-9.78989028930664,0.646434485912323
1766400145476510700,6.9035107421875,-0.7254431247711182,-9.454702377319336,0.7829039692878723
1766400145486520600,6.9135205078125,-0.8571242094039917,-9.591172218322754,0.7924807667732239
1766400145496530400,6.923530517578125,-1.0079588890075684,-9.782708168029785,0.7876923680305481
1766400145506540000,6.9335400390625,-1.0749965906143188,-9.718064308166504,0.751779317855835
1766400145516580400,6.943580322265625,-1.1803414821624756,-9.768342971801758,0.871489405632019
1766400145526651100,6.953651123046875,-1.2473790645599365,-9.84256362915039,0.7565677165985107
1766400145536661000,6.963660888671875,-1.237802267074585,-9.919178009033203,0.7733271718025208
1766400145546670800,6.9736708984375,-1.256955862045288,-10.160991668701172,0.7541735172271729
1766400145576761000,7.003760986328125,-1.039083480834961,-9.93354320526123,0.7661445140838623
1766400145586771000,7.01377099609375,-1.0223240852355957,-9.653421401977539,0.7206547260284424
1766400145596811000,7.02381103515625,-1.1851298809051514,-9.627084732055664,0.7661445140838623
1766400145606820900,7.03382080078125,-1.2497732639312744,-9.864110946655273,0.7781155705451965
1766400145616830700,7.043830810546875,-1.3048399686813354,-9.854534149169922,0.7326257228851318
1766400145626840300,7.05384033203125,-1.314416766166687,-9.732429504394531,0.8044517636299133
1766400145636880600,7.063880615234375,-1.259350061416626,-9.696516990661621,0.8786720037460327
1766400145646890500,7.073890380859375,-1.161187767982483,-9.720458984375,0.9050082564353943
1766400145686929700,7.1139296875,-1.1420341730117798,-9.44752025604248,0.7661445140838623
1766400145697000400,7.12400048828125,-1.139639973640442,-9.411606788635254,0.706289529800415
1766400145707010000,7.134010009765625,-1.1635819673538208,-9.68933391571045,0.6775590777397156
1766400145717020000,7.14402001953125,-1.1013327836990356,-9.684545516967773,0.5937620401382446
1766400145727029800,7.15402978515625,-1.139639973640442,-9.768342971801758,0.6033388376235962
1766400145737039400,7.164039306640625,-0.9959878921508789,-9.703699111938477,0.49799394607543945
1766400145747049200,7.17404931640625,-1.070208191871643,-9.603142738342285,0.5434837937355042
1766400145757058800,7.184058837890625,-1.2473790645599365,-9.667786598205566,0.5722141861915588
1766400145767068700,7.194068603515625,-1.5131354331970215,-9.897629737854004,0.6344634294509888
1766400145797098000,7.224097900390625,-1.623268723487854,-9.84256362915039,0.8547300100326538
1766400145807107800,7.23410791015625,-1.5418659448623657,-9.81143856048584,0.8212111592292786
1766400145817117400,7.244117431640625,-1.5322890281677246,-9.897629737854004,0.8307880163192749
1766400145827127300,7.254127197265625,-1.436521053314209,-9.955090522766113,0.8307880163192749
1766400145837137200,7.26413720703125,-1.2952631711959839,-10.079588890075684,0.8667010068893433
1766400145847146800,7.274146728515625,-0.9816226959228516,-9.856928825378418,0.8595184087753296
1766400145857217500,7.284217529296875,-0.7445967197418213,-9.402029991149902,0.7948749661445618
1766400145887277600,7.314277587890625,-0.6392518281936646,-9.782708168029785,0.7852981686592102
1766400145907297000,7.334297119140625,-0.3208230137825012,-9.636661529541016,0.646434485912323
1766400145917337300,7.34433740234375,-0.090979665517807,-9.600749015808105,0.5530605912208557
1766400145927377700,7.354377685546875,-0.038307227194309235,-9.469067573547363,0.6105214357376099
1766400145937387300,7.36438720703125,0.014365210197865963,-9.610325813293457,0.569819986820221
1766400145947427600,7.374427490234375,0.035913024097681046,-9.59596061706543,0.6488286852836609
1766400145957437400,7.3844375,0.24660277366638184,-9.742006301879883,0.5195417404174805
1766400145977487400,7.4044873046875,0.6368576288223267,-9.579200744628906,0.507570743560791
1766400145987497200,7.414497314453125,0.706289529800415,-9.679757118225098,0.6248866319656372
1766400145997537500,7.42453759765625,0.8667010068893433,-9.703699111938477,0.5578489899635315
1766400146007516700,7.4345166015625,0.9648633003234863,-9.62947940826416,0.6320692300796509
1766400146017526500,7.444526611328125,0.9959878921508789,-9.157821655273438,0.6416460275650024
1766400146027536100,7.4545361328125,1.4915876388549805,-8.643068313598633,0.5003881454467773
1766400146037546000,7.4645458984375,1.4293384552001953,-8.736441612243652,0.2801215946674347
1766400146047525000,7.474525146484375,1.161187767982483,-9.337387084960938,0.2777273952960968
1766400146057535000,7.484534912109375,0.5027823448181152,-10.376470565795898,0.2801215946674347
1766400146067544800,7.494544921875,0.12210428714752197,-10.953473091125488,0.3064578175544739
1766400146087594800,7.5145947265625,-0.1364694982767105,-10.18493366241455,0.6129156351089478
1766400146127694800,7.55469482421875,-0.47405192255973816,-10.156203269958496,0.6033388376235962
1766400146137735200,7.564735107421875,-0.38546648621559143,-9.950302124023438,0.6153098344802856
1766400146147775500,7.574775390625,-0.2322375625371933,-9.988609313964844,0.5602431893348694
1766400146157785300,7.584785400390625,0.023942016065120697,-9.995792388916016,0.5889736413955688
1766400146167795000,7.594794921875,0.26575639843940735,-9.615114212036133,0.6416460275650024
1766400146187814700,7.614814697265625,0.23702596127986908,-9.646238327026367,0.6751648783683777
1766400146207895000,7.63489501953125,-0.13407529890537262,-10.012551307678223,0.689530074596405
1766400146217905000,7.64490478515625,-0.24660277366638184,-9.950302124023438,0.7805097699165344
1766400146227945200,7.6549453125,-0.29209262132644653,-9.859322547912598,0.7445967197418213
1766400146237985500,7.664985595703125,-0.2753331959247589,-9.66299819946289,0.7230489253997803
1766400146247964700,7.674964599609375,-0.35913026332855225,-9.768342971801758,0.7158663272857666
1766400146258005000,7.6850048828125,-0.26096799969673157,-9.840168952941895,0.7230489253997803
1766400146288034300,7.715034423828125,-0.31603461503982544,-9.610325813293457,0.7661445140838623
1766400146298044200,7.725044189453125,-0.35434186458587646,-9.581595420837402,0.689530074596405
1766400146308053800,7.7350537109375,-0.28730419278144836,-9.825803756713867,0.6943184733390808
1766400146318124500,7.74512451171875,-0.3711012601852417,-9.919178009033203,0.7134721279144287
1766400146328104000,7.75510400390625,-0.2992752194404602,-9.873687744140625,0.667982280254364
1766400146338144300,7.765144287109375,-0.3208230137825012,-9.718064308166504,0.5889736413955688
1766400146348153900,7.77515380859375,-0.33279404044151306,-9.78989028930664,0.6153098344802856
1766400146358224600,7.785224609375,-0.363918662071228,-10.002974510192871,0.5578489899635315
1766400146368234500,7.795234375,-0.40222588181495667,-10.17296314239502,0.4836287498474121
1766400146408273400,7.8352734375,-0.2849099934101105,-9.68933391571045,0.5626373887062073
1766400146418313700,7.845313720703125,-0.304063618183136,-9.998186111450195,0.5817909836769104
1766400146428323600,7.855323486328125,-0.2992752194404602,-9.93354320526123,0.6440402865409851
1766400146438333400,7.86533349609375,-0.24181437492370605,-9.691728591918945,0.5746083855628967
1766400146448343000,7.875343017578125,-0.16998831927776337,-9.603142738342285,0.5027823448181152
1766400146458353000,7.885352783203125,-0.3902548849582672,-9.593565940856934,0.5147533416748047
1766400146468362800,7.89536279296875,-0.3711012601852417,-9.677363395690918,0.524330198764801
1766400146478402800,7.90540283203125,-0.4213795065879822,-9.718064308166504,0.5674257874488831
1766400146528512800,7.9555126953125,-0.10773907601833344,-9.782708168029785,0.5339069962501526
1766400146538522600,7.965522705078125,-0.2992752194404602,-9.95748519897461,0.5889736413955688
1766400146548532200,7.9755322265625,-0.3519476354122162,-9.684545516967773,0.4812345504760742
1766400146558542000,7.9855419921875,-0.11013327538967133,-9.667786598205566,0.5434837937355042
1766400146568552000,7.995552001953125,-0.2968810200691223,-9.701305389404297,0.6560112833976746
1766400146578592300,8.00559228515625,-0.35673606395721436,-9.873687744140625,0.5770025849342346
1766400146588632300,8.01563232421875,-0.4884171485900879,-9.976638793945312,0.5674257874488831
1766400146608652000,8.035652099609376,-0.49799394607543945,-9.986215591430664,0.5793967843055725
1766400146618722800,8.045722900390626,-0.4189853072166443,-9.995792388916016,0.6224924325942993
1766400146628732400,8.055732421875,-0.43095630407333374,-9.792284965515137,0.5817909836769104
1766400146638772700,8.065772705078125,-0.3519476354122162,-9.787496566772461,0.5506663918495178
1766400146648782600,8.075782470703125,-0.33279404044151306,-10.000580787658691,0.5746083855628967
1766400146658792400,8.08579248046875,-0.31603461503982544,-9.8784761428833,0.4405331015586853
1766400146668802000,8.095802001953125,-0.24660277366638184,-9.787496566772461,0.5506663918495178
1766400146688821500,8.115821533203125,-0.2753331959247589,-9.96945571899414,0.47405192255973816
1766400146718881500,8.145881591796876,-0.2346317619085312,-9.720458984375,0.6033388376235962
1766400146728891100,8.15589111328125,-0.22266076505184174,-9.72285270690918,0.6727706789970398
1766400146738931500,8.165931396484375,-0.17717093229293823,-9.725247383117676,0.6344634294509888
1766400146748880100,8.175880126953125,-0.2322375625371933,-9.828198432922363,0.5578489899635315
1766400146758920400,8.18592041015625,-0.31603461503982544,-9.782708168029785,0.5602431893348694
1766400146768930300,8.195930419921876,-0.27054479718208313,-9.785101890563965,0.6416460275650024
1766400146778970600,8.205970703125,-0.3734954595565796,-9.81143856048584,0.5506663918495178
1766400146788949800,8.21594970703125,-0.4118026793003082,-9.864110946655273,0.6248866319656372
1766400146798990000,8.225989990234375,-0.4189853072166443,-9.919178009033203,0.5961562395095825
1766400146829080300,8.256080322265625,-0.3232172429561615,-9.923966407775879,0.5913678407669067
1766400146839120600,8.26612060546875,-0.4429273009300232,-9.84256362915039,0.6009446382522583
1766400146849161000,8.276160888671875,-0.44532153010368347,-9.782708168029785,0.5339069962501526
1766400146859170800,8.2861708984375,-0.3998316824436188,-9.890447616577148,0.6057330369949341
1766400146869150000,8.29614990234375,-0.3519476354122162,-9.813833236694336,0.6368576288223267
1766400146879220700,8.306220703125,-0.37828385829925537,-9.765948295593262,0.5793967843055725
1766400146889230600,8.316230712890626,-0.3687070608139038,-9.835380554199219,0.6105214357376099
1766400146909219600,8.336219482421875,-0.35913026332855225,-9.75397777557373,0.5722141861915588
1766400146929300200,8.35630029296875,-0.4141969084739685,-9.725247383117676,0.4405331015586853
1766400146939340500,8.366340576171876,-0.43335050344467163,-9.6989107131958,0.6057330369949341
1766400146949350100,8.37635009765625,-0.4908113479614258,-9.648633003234863,0.5530605912208557
1766400146959360000,8.386360107421876,-0.5051765441894531,-9.727641105651855,0.5506663918495178
1766400146969369600,8.39636962890625,-0.5147533416748047,-9.763554573059082,0.5027823448181152
1766400146979410000,8.406409912109375,-0.5626373887062073,-9.864110946655273,0.5746083855628967
1766400146989419800,8.416419677734375,-0.5554547905921936,-9.909601211547852,0.5746083855628967
1766400146999429600,8.4264296875,-0.47405192255973816,-10.041281700134277,0.47884035110473633
1766400147029489400,8.456489501953126,-0.3687070608139038,-9.655815124511719,0.608127236366272
1766400147049508900,8.4765087890625,-0.4620809257030487,-9.459490776062012,0.6057330369949341
1766400147059518700,8.486518798828126,-0.4357447028160095,-9.639056205749512,0.6607996821403503
1766400147069528300,8.4965283203125,-0.47165772318840027,-9.674968719482422,0.6153098344802856
1766400147079568600,8.506568603515625,-0.40462008118629456,-9.742006301879883,0.5530605912208557
1766400147089578500,8.51657861328125,-0.4836287498474121,-9.816226959228516,0.4644751250743866
1766400147099588400,8.52658837890625,-0.5339069962501526,-9.945513725280762,0.5482721924781799
1766400147139749400,8.566749267578125,-0.5386953949928284,-9.890447616577148,0.5434837937355042
1766400147149759200,8.57675927734375,-0.6488286852836609,-10.022128105163574,0.48602294921875
1766400147159799300,8.58679931640625,-0.6488286852836609,-9.952696800231934,0.5386953949928284
1766400147169809200,8.59680908203125,-0.6703764796257019,-10.022128105163574,0.4668693244457245
1766400147179849500,8.606849365234375,-0.6560112833976746,-9.962273597717285,0.4429273009300232
1766400147189859300,8.616859375,-0.5985504388809204,-9.84495735168457,0.43335050344467163
1766400147199899400,8.6268994140625,-0.6105214357376099,-9.813833236694336,0.3902548849582672
1766400147209909200,8.6369091796875,-0.5841852426528931,-9.95748519897461,0.45010992884635925
1766400147219919000,8.646919189453126,-0.5147533416748047,-9.785101890563965,0.45010992884635925
1766400147229898200,8.656898193359375,-0.5650315880775452,-9.672574996948242,0.4429273009300232
1766400147239969000,8.666968994140625,-0.5506663918495178,-9.706093788146973,0.4812345504760742
1766400147249979000,8.676978759765625,-0.5650315880775452,-9.81143856048584,0.4884171485900879
1766400147259988700,8.68698876953125,-0.6129156351089478,-9.849745750427246,0.4692635238170624
1766400147269998300,8.696998291015625,-0.5841852426528931,-9.691728591918945,0.4141969084739685
1766400147280069000,8.707069091796875,-0.5793967843055725,-9.816226959228516,0.45489832758903503
1766400147290079000,8.717078857421875,-0.569819986820221,-9.861717224121094,0.4812345504760742
1766400147300180200,8.72718017578125,-0.4429273009300232,-9.732429504394531,0.5027823448181152
1766400147310159600,8.73715966796875,-0.5099649429321289,-9.708487510681152,0.4429273009300232
1766400147330240000,8.757239990234375,-0.7350199222564697,-9.952696800231934,0.5482721924781799
1766400147340280300,8.7672802734375,-0.7948749661445618,-9.880870819091797,0.47165772318840027
1766400147350290200,8.777290283203126,-0.7398083209991455,-9.813833236694336,0.5578489899635315
1766400147360330500,8.78733056640625,-0.7206547260284424,-9.725247383117676,0.5913678407669067
1766400147370370800,8.797370849609376,-0.7733271718025208,-9.801861763000488,0.5793967843055725
1766400147380411000,8.807410888671875,-0.790086567401886,-9.93354320526123,0.5171475410461426
1766400147390420700,8.817420654296875,-0.849941611289978,-9.921571731567383,0.5410895943641663
1766400147400522000,8.82752197265625,-0.7876923680305481,-9.883264541625977,0.6200982332229614
1766400147410531800,8.83753173828125,-0.7876923680305481,-9.730035781860352,0.586579442024231
1766400147420572200,8.847572265625,-0.706289529800415,-9.75397777557373,0.6177040338516235
1766400147450601500,8.8776015625,-0.7374141216278076,-9.730035781860352,0.6536170840263367
1766400147460611000,8.887611083984375,-0.8475474119186401,-9.840168952941895,0.6320692300796509
1766400147470621000,8.897620849609375,-0.8307880163192749,-9.880870819091797,0.5937620401382446
1766400147480661200,8.9076611328125,-0.8595184087753296,-9.830592155456543,0.569819986820221
1766400147490671000,8.917671142578126,-0.8259995579719543,-9.792284965515137,0.5913678407669067
1766400147500680700,8.9276806640625,-0.811634361743927,-9.885659217834473,0.5626373887062073
1766400147510690600,8.937690673828126,-0.7924807667732239,-9.725247383117676,0.45489832758903503
1766400147520731000,8.94773095703125,-0.727837324142456,-9.5624418258667,0.4836287498474121
1766400147540780800,8.96778076171875,-0.6703764796257019,-9.674968719482422,0.48602294921875
1766400147550821000,8.977821044921875,-0.6991068720817566,-9.768342971801758,0.4118026793003082
1766400147560831000,8.9878310546875,-0.7589619159698486,-9.72285270690918,0.4165911078453064
1766400147570840600,8.997840576171875,-0.727837324142456,-9.677363395690918,0.4620809257030487
1766400147580881000,9.007880859375,-0.6919242739677429,-9.605537414550781,0.5650315880775452
1766400147590921200,9.017921142578125,-0.7374141216278076,-9.720458984375,0.48602294921875
1766400147600992000,9.027991943359375,-0.7541735172271729,-9.765948295593262,0.5003881454467773
1766400147611001900,9.038001953125,-0.8331822156906128,-9.749189376831055,0.6153098344802856
1766400147621011500,9.048011474609375,-0.8092401623725891,-9.68694019317627,0.6177040338516235
1766400147631051800,9.0580517578125,-0.7733271718025208,-9.68933391571045,0.5506663918495178
1766400147661111600,9.088111572265625,-0.7182605266571045,-9.622296333312988,0.6129156351089478
1766400147671121400,9.098121337890625,-0.7781155705451965,-9.68933391571045,0.5961562395095825
1766400147681161700,9.10816162109375,-0.8690952062606812,-9.856928825378418,0.5434837937355042
1766400147691171600,9.118171630859376,-0.8547300100326538,-9.90241813659668,0.49559974670410156
1766400147701211600,9.128211669921875,-0.7493851184844971,-9.876082420349121,0.4668693244457245
1766400147711221500,9.138221435546875,-0.667982280254364,-9.775525093078613,0.4836287498474121
1766400147721261800,9.14826171875,-0.7326257228851318,-9.782708168029785,0.5267243981361389
1766400147731302100,9.15830224609375,-0.706289529800415,-9.768342971801758,0.5434837937355042
1766400147741311700,9.168311767578125,-0.6272808313369751,-9.684545516967773,0.4812345504760742
1766400147771402200,9.19840234375,-0.6009446382522583,-9.840168952941895,0.608127236366272
1766400147781442600,9.208442626953126,-0.6392518281936646,-9.81143856048584,0.5841852426528931
1766400147791452200,9.2184521484375,-0.6392518281936646,-9.81143856048584,0.5841852426528931
1766400147801523000,9.22852294921875,-0.7110779285430908,-9.909601211547852,0.5530605912208557
1766400147811532800,9.23853271484375,-0.6560112833976746,-9.816226959228516,0.49320554733276367
1766400147821573000,9.248572998046875,-0.6847416758537292,-9.749189376831055,0.6105214357376099
1766400147831583000,9.2585830078125,-0.6320692300796509,-9.701305389404297,0.646434485912323
1766400147841653800,9.26865380859375,-0.6512228846549988,-9.646238327026367,0.5602431893348694
1766400147851663400,9.278663330078125,-0.6512228846549988,-9.72285270690918,0.6177040338516235
1766400147871744000,9.298743896484375,-0.6991068720817566,-9.672574996948242,0.545877993106842
1766400147881784300,9.308784423828126,-0.7015010714530945,-9.641449928283691,0.5219359993934631
1766400147891794000,9.3187939453125,-0.7206547260284424,-9.792284965515137,0.5985504388809204
1766400147901865000,9.328864990234376,-0.7206547260284424,-9.907206535339355,0.45489832758903503
1766400147911905000,9.338905029296875,-0.730231523513794,-10.010157585144043,0.5051765441894531
1766400147921915000,9.348914794921875,-0.7398083209991455,-9.84256362915039,0.5195417404174805
1766400147931955200,9.358955078125,-0.7661445140838623,-9.890447616577148,0.4644751250743866
1766400147941995500,9.36899560546875,-0.7637503147125244,-9.93354320526123,0.507570743560791
1766400147952066300,9.37906640625,-0.751779317855835,-9.880870819091797,0.47165772318840027
1766400147962106600,9.389106689453126,-0.8140285611152649,-9.758766174316406,0.524330198764801
1766400147972116200,9.3991162109375,-0.727837324142456,-9.68933391571045,0.5219359993934631
1766400147982187000,9.40918701171875,-0.6799532771110535,-9.775525093078613,0.5506663918495178
1766400147992196900,9.41919677734375,-0.6751648783683777,-9.684545516967773,0.4812345504760742
1766400148002267600,9.429267578125,-0.6823474764823914,-9.560047149658203,0.5003881454467773
1766400148012308000,9.439307861328125,-0.706289529800415,-9.586383819580078,0.5506663918495178
1766400148022317800,9.44931787109375,-0.7996633648872375,-9.655815124511719,0.5147533416748047
1766400148032358000,9.45935791015625,-0.768538773059845,-9.732429504394531,0.47165772318840027
1766400148042398200,9.469398193359375,-0.8331822156906128,-9.734824180603027,0.3663128614425659
1766400148052438500,9.4794384765625,-0.751779317855835,-9.727641105651855,0.4141969084739685
1766400148072488700,9.49948876953125,-0.6560112833976746,-9.761159896850586,0.3687070608139038
1766400148092538600,9.51953857421875,-0.667982280254364,-9.694122314453125,0.3256114423274994
1766400148122629000,9.549629150390626,-0.7254431247711182,-9.80904483795166,0.5051765441894531
1766400148142679000,9.569678955078125,-0.7781155705451965,-9.66539192199707,0.49799394607543945
1766400148152689000,9.57968896484375,-0.7350199222564697,-9.593565940856934,0.6057330369949341
1766400148162698500,9.589698486328125,-0.7374141216278076,-9.593565940856934,0.5363011956214905
1766400148172708400,9.599708251953125,-0.8379706144332886,-9.794678688049316,0.4620809257030487
1766400148182748700,9.609748779296876,-0.8427590131759644,-9.897629737854004,0.44771572947502136
1766400148192789000,9.6197890625,-0.8403648138046265,-9.892841339111328,0.42377370595932007
1766400148202829300,9.629829345703126,-0.8403648138046265,-9.81143856048584,0.3998316824436188
1766400148212808400,9.639808349609375,-0.9959878921508789,-9.926360130310059,0.3711012601852417
1766400148222848800,9.649848876953126,-1.0247182846069336,-9.6989107131958,0.42856210470199585
1766400148232858400,9.6598583984375,-1.039083480834961,-9.75397777557373,0.47884035110473633
1766400148242898700,9.669898681640625,-0.9792284965515137,-9.96945571899414,0.37828385829925537
1766400148252908500,9.679908447265625,-0.9026140570640564,-9.832986831665039,0.33758243918418884
1766400148262918400,9.68991845703125,-0.811634361743927,-9.90241813659668,0.35673606395721436
1766400148272928000,9.699927978515625,-0.7852981686592102,-9.739612579345703,0.3734954595565796
1766400148282968300,9.70996826171875,-0.8379706144332886,-9.706093788146973,0.38307225704193115
1766400148293008600,9.720008544921875,-0.828393816947937,-9.653421401977539,0.4644751250743866
1766400148303049000,9.730049072265626,-0.9241618514060974,-9.730035781860352,0.47884035110473633
1766400148313058800,9.740058837890626,-0.9792284965515137,-9.835380554199219,0.43335050344467163
1766400148323099000,9.750098876953125,-0.9074024558067322,-9.847352027893066,0.5410895943641663
1766400148333169700,9.760169677734375,-0.8810662031173706,-9.797073364257812,0.5410895943641663
1766400148343179500,9.770179443359375,-0.9002198576927185,-9.806650161743164,0.45489832758903503
1766400148353189400,9.780189453125,-0.8906430602073669,-9.749189376831055,0.5171475410461426
1766400148363199000,9.790198974609375,-0.9720458984375,-9.768342971801758,0.4668693244457245
1766400148413369900,9.840369873046875,-0.8619126081466675,-9.828198432922363,0.45489832758903503
1766400148423410200,9.85041015625,-0.828393816947937,-9.821015357971191,0.4141969084739685
1766400148433420000,9.860419921875,-0.9241618514060974,-9.852140426635742,0.363918662071228
1766400148443460400,9.87046044921875,-0.912190854549408,-9.799467086791992,0.42856210470199585
1766400148453470000,9.880469970703125,-0.912190854549408,-9.706093788146973,0.40940847992897034
1766400148463541000,9.890541015625,-0.9002198576927185,-9.742006301879883,0.45010992884635925
1766400148473550600,9.900550537109375,-0.9409212470054626,-9.730035781860352,0.43335050344467163
1766400148493600800,9.920600830078126,-0.8259995579719543,-9.75397777557373,0.47405192255973816
1766400148523721500,9.950721435546875,-0.9696516990661621,-9.768342971801758,0.42616790533065796
1766400148533731300,9.9607314453125,-0.9409212470054626,-9.782708168029785,0.4429273009300232
1766400148543771600,9.970771728515626,-0.9481038451194763,-9.75397777557373,0.49320554733276367
1766400148553781200,9.98078125,-0.9864110946655273,-9.792284965515137,0.37828385829925537
1766400148563821600,9.990821533203125,-0.9528923034667969,-9.713275909423828,0.40222588181495667
1766400148573831400,10.00083154296875,-0.9241618514060974,-9.768342971801758,0.3902548849582672
1766400148613962000,10.0409619140625,-0.9050082564353943,-9.761159896850586,0.4141969084739685
1766400148624002300,10.051002197265625,-1.0055646896362305,-9.703699111938477,0.42616790533065796
1766400148644052200,10.07105224609375,-0.9768342971801758,-9.739612579345703,0.38067805767059326
1766400148654062000,10.08106201171875,-0.933738648891449,-9.80904483795166,0.3974374830722809
1766400148664072000,10.091072021484376,-1.0007762908935547,-9.6989107131958,0.4381389021873474
1766400148674112300,10.1011123046875,-0.9576807022094727,-9.715670585632324,0.4572925269603729
1766400148704263400,10.131263427734375,-1.0079588890075684,-9.75637149810791,0.49559974670410156
1766400148714303700,10.1413037109375,-1.0582371950149536,-9.770736694335938,0.44771572947502136
1766400148724313600,10.151313720703126,-1.1061211824417114,-9.782708168029785,0.42616790533065796
1766400148734354000,10.16135400390625,-1.0534487962722778,-9.8784761428833,0.4620809257030487
1766400148744363500,10.171363525390625,-1.094150185585022,-9.818621635437012,0.42377370595932007
1766400148754403800,10.18140380859375,-1.1827356815338135,-9.8784761428833,0.42856210470199585
1766400148764444200,10.191444091796875,-1.1013327836990356,-10.019734382629395,0.3711012601852417
1766400148774423600,10.201423583984376,-1.0462661981582642,-9.921571731567383,0.33997663855552673
1766400148784463600,10.211463623046875,-0.9840168952941895,-9.804255485534668,0.3878606855869293
1766400148814493000,10.241492919921875,-0.9792284965515137,-9.818621635437012,0.3878606855869293
1766400148844552700,10.271552734375,-0.9074024558067322,-9.701305389404297,0.45489832758903503
1766400148854593000,10.281593017578125,-0.9241618514060974,-9.713275909423828,0.47405192255973816
1766400148864603000,10.291602783203125,-0.9097966551780701,-9.773131370544434,0.4596867263317108
1766400148874643200,10.301643310546876,-0.9409212470054626,-9.801861763000488,0.5267243981361389
1766400148884683500,10.31168359375,-0.9528923034667969,-9.696516990661621,0.5267243981361389
1766400148914773800,10.341773681640625,-0.9864110946655273,-9.744400978088379,0.4884171485900879
1766400148924783600,10.35178369140625,-0.9600749015808105,-9.713275909423828,0.4668693244457245
1766400148934824000,10.361823974609376,-0.9744400978088379,-9.746794700622559,0.5147533416748047
1766400148944864000,10.371864013671875,-1.0534487962722778,-9.804255485534668,0.5506663918495178
1766400148964914200,10.3919140625,-0.9792284965515137,-9.799467086791992,0.4884171485900879
1766400148974924000,10.401924072265626,-0.9361328482627869,-9.801861763000488,0.42377370595932007
