time,seconds_elapsed,z,y,x
1766400136992654600,-1.580345458984375,-0.00366519158706069,0.0012217304902151227,-0.013439035043120384
1766400137012674000,-1.560325927734375,0.006108652334660292,0,-0.00855211354792118
1766400137022684000,-1.550316162109375,0.0012217304902151227,0.00366519158706069,-0.004886921960860491
1766400137032724200,-1.54027587890625,0,0.00366519158706069,-0.013439035043120384
1766400137042734000,-1.530265869140625,0.0024434609804302454,0.00855211354792118,-0.00855211354792118
1766400137052804900,-1.520195068359375,0,0.009773843921720982,-0.00733038317412138
1766400137062814500,-1.510185546875,0.0012217304902151227,0.009773843921720982,-0.012217304669320583
1766400137072824300,-1.50017578125,0.00366519158706069,0.018325956538319588,-0.015882495790719986
1766400137082834200,-1.490165771484375,-0.0024434609804302454,0.021991148591041565,-0.015882495790719986
1766400137122995200,-1.4500048828125,-0.009773843921720982,0.009773843921720982,-0.024434609338641167
1766400137133035500,-1.439964599609375,0,-0.0012217304902151227,-0.02687807008624077
1766400137143045400,-1.42995458984375,0.0012217304902151227,-0.004886921960860491,-0.010995574295520782
1766400137153055000,-1.419945068359375,-0.004886921960860491,-0.00733038317412138,-0.01466076634824276
1766400137163064800,-1.40993505859375,-0.004886921960860491,-0.015882495790719986,-0.02076941914856434
1766400137173105200,-1.399894775390625,-0.00366519158706069,-0.012217304669320583,-0.01710422709584236
1766400137183114800,-1.38988525390625,-0.01466076634824276,-0.0024434609804302454,-0.018325956538319588
1766400137193185500,-1.379814453125,-0.01466076634824276,-0.0024434609804302454,-0.024434609338641167
1766400137213266200,-1.35973388671875,-0.025656340643763542,0.004886921960860491,-0.019547687843441963
1766400137243295500,-1.32970458984375,-0.010995574295520782,-0.00366519158706069,0.009773843921720982
1766400137253335800,-1.319664306640625,-0.015882495790719986,-0.004886921960860491,0.021991148591041565
1766400137263345700,-1.309654296875,-0.019547687843441963,-0.00366519158706069,0.004886921960860491
1766400137273355300,-1.299644775390625,-0.012217304669320583,0,-0.00855211354792118
1766400137283365000,-1.289634765625,-0.012217304669320583,-0.009773843921720982,0.012217304669320583
1766400137293375000,-1.279625,-0.018325956538319588,-0.013439035043120384,0.012217304669320583
1766400137303384600,-1.269615478515625,-0.019547687843441963,-0.009773843921720982,-0.0012217304902151227
1766400137363473700,-1.2095263671875,0.0012217304902151227,0.013439035043120384,-0.01466076634824276
1766400137373483500,-1.1995166015625,-0.00733038317412138,0.00366519158706069,-0.00733038317412138
1766400137383493400,-1.189506591796875,-0.012217304669320583,-0.006108652334660292,0.00366519158706069
1766400137393503000,-1.1794970703125,-0.010995574295520782,-0.012217304669320583,0.006108652334660292
1766400137403512800,-1.169487060546875,-0.018325956538319588,-0.009773843921720982,-0.02687807008624077
1766400137423593500,-1.149406494140625,-0.006108652334660292,-0.02076941914856434,0.0012217304902151227
1766400137433603000,-1.13939697265625,-0.0024434609804302454,-0.019547687843441963,-0.004886921960860491
1766400137443613000,-1.129386962890625,-0.009773843921720982,-0.019547687843441963,0
1766400137453653200,-1.1193466796875,-0.01710422709584236,-0.02321287989616394,0.00366519158706069
1766400137463662800,-1.109337158203125,-0.010995574295520782,-0.024434609338641167,0.013439035043120384
1766400137473672700,-1.099327392578125,-0.015882495790719986,-0.021991148591041565,0.009773843921720982
1766400137483713000,-1.089286865234375,-0.01710422709584236,-0.01466076634824276,-0.00855211354792118
1766400137493753300,-1.07924658203125,-0.012217304669320583,-0.013439035043120384,-0.02321287989616394
1766400137503763000,-1.069237060546875,-0.015882495790719986,-0.006108652334660292,-0.04642575979232788
1766400137533823000,-1.039177001953125,-0.010995574295520782,0.0024434609804302454,-0.05009094998240471
1766400137553812000,-1.01918798828125,-0.004886921960860491,-0.00733038317412138,0.009773843921720982
1766400137573862000,-0.99913818359375,-0.01466076634824276,0.0012217304902151227,-0.024434609338641167
1766400137583871700,-0.989128173828125,-0.012217304669320583,0.00733038317412138,-0.02932153269648552
1766400137593912000,-0.979087890625,-0.006108652334660292,0.013439035043120384,-0.025656340643763542
1766400137603952000,-0.9690478515625,0,0.015882495790719986,-0.030543262138962746
1766400137613992400,-0.959007568359375,0.006108652334660292,0.006108652334660292,-0.03420845419168472
1766400137644021800,-0.928978271484375,0.0012217304902151227,-0.012217304669320583,-0.028099801391363144
1766400137654062000,-0.91893798828125,-0.0024434609804302454,-0.013439035043120384,-0.012217304669320583
1766400137664102400,-0.908897705078125,-0.00733038317412138,-0.010995574295520782,-0.015882495790719986
1766400137674112300,-0.8988876953125,-0.00733038317412138,-0.010995574295520782,-0.015882495790719986
1766400137684121900,-0.888878173828125,-0.004886921960860491,-0.009773843921720982,-0.018325956538319588
1766400137694162200,-0.878837890625,0.0012217304902151227,-0.00366519158706069,-0.02321287989616394
1766400137704172000,-0.868827880859375,0,0,-0.02321287989616394
1766400137714181600,-0.858818359375,-0.0024434609804302454,0,-0.01466076634824276
1766400137744241700,-0.82875830078125,-0.012217304669320583,-0.012217304669320583,-0.00366519158706069
1766400137754251300,-0.818748779296875,-0.01466076634824276,-0.013439035043120384,-0.00855211354792118
1766400137764291600,-0.80870849609375,-0.019547687843441963,-0.012217304669320583,-0.009773843921720982
1766400137774301400,-0.798698486328125,-0.021991148591041565,-0.018325956538319588,0.0024434609804302454
1766400137784311000,-0.78868896484375,-0.01466076634824276,-0.019547687843441963,0.00733038317412138
1766400137794321000,-0.77867919921875,-0.01466076634824276,-0.013439035043120384,0.0024434609804302454
1766400137804361200,-0.768638671875,-0.015882495790719986,-0.00855211354792118,-0.01466076634824276
1766400137814401500,-0.758598388671875,-0.018325956538319588,0,-0.01466076634824276
1766400137834421000,-0.7385791015625,-0.012217304669320583,-0.0024434609804302454,0.0012217304902151227
1766400137854501600,-0.718498291015625,-0.004886921960860491,0.00366519158706069,-0.01466076634824276
1766400137864511200,-0.70848876953125,-0.012217304669320583,0.010995574295520782,-0.02932153269648552
1766400137874490600,-0.69850927734375,-0.01466076634824276,0.012217304669320583,-0.0354301854968071
1766400137884531000,-0.688468994140625,-0.004886921960860491,0.012217304669320583,-0.025656340643763542
1766400137894571300,-0.6784287109375,0.00366519158706069,0.010995574295520782,-0.028099801391363144
1766400137904580900,-0.668419189453125,-0.004886921960860491,0.01466076634824276,-0.03298672288656235
1766400137914560300,-0.658439697265625,-0.00855211354792118,0.01466076634824276,-0.03420845419168472
1766400137924600300,-0.648399658203125,-0.009773843921720982,0.013439035043120384,-0.0354301854968071
1766400137944620000,-0.6283798828125,-0.025656340643763542,-0.0024434609804302454,-0.012217304669320583
1766400137964639500,-0.608360595703125,-0.024434609338641167,-0.00366519158706069,-0.028099801391363144
1766400137974649300,-0.5983505859375,-0.019547687843441963,0.0024434609804302454,-0.04642575979232788
1766400137984689700,-0.588310302734375,-0.02076941914856434,0.0012217304902151227,-0.045204028487205505
1766400137994699300,-0.57830078125,-0.024434609338641167,-0.010995574295520782,-0.051312681287527084
1766400138004709000,-0.568290771484375,-0.018325956538319588,-0.02687807008624077,-0.06475171446800232
1766400138014718700,-0.55828125,-0.015882495790719986,-0.03787364438176155,-0.07330382615327835
1766400138024728600,-0.548271484375,-0.02076941914856434,-0.042760565876960754,-0.10506882518529892
1766400138054758000,-0.5182421875,-0.01466076634824276,-0.030543262138962746,-0.2626720666885376
1766400138064767700,-0.508232177734375,-0.00366519158706069,-0.02321287989616394,-0.32620203495025635
1766400138074808000,-0.49819189453125,0.02687807008624077,-0.015882495790719986,-0.40072759985923767
1766400138084848000,-0.48815185546875,0.08185594528913498,-0.028099801391363144,-0.513126790523529
1766400138094888400,-0.478111572265625,0.15760323405265808,-0.0354301854968071,-0.6817256212234497
1766400138104867800,-0.468132080078125,0.23457226157188416,-0.025656340643763542,-0.8979719281196594
1766400138114877400,-0.45812255859375,0.3225368559360504,-0.004886921960860491,-1.1325441598892212
1766400138124917800,-0.448082275390625,0.20891591906547546,-0.06108652427792549,-1.4220943450927734
1766400138134927600,-0.438072265625,-0.16371189057826996,-0.18081611394882202,-1.8790215253829956
1766400138154947000,-0.418052978515625,0.7440338730812073,-0.3017674386501312,-1.653001308441162
1766400138164987400,-0.4080126953125,0.6890559792518616,-0.16371189057826996,-1.5063936710357666
1766400138174997200,-0.398002685546875,0.7721336483955383,-0.059864792972803116,-1.4086552858352661
1766400138195077600,-0.37792236328125,0.7220427393913269,-0.06719517707824707,-1.1850786209106445
1766400138205087500,-0.36791259765625,0.7440338730812073,0.006108652334660292,-1.1398745775222778
1766400138215097300,-0.357902587890625,0.7354817390441895,0.06230825558304787,-1.1447614431381226
1766400138225107000,-0.34789306640625,0.7648032903671265,0.08185594528913498,-1.1545352935791016
1766400138335336400,-0.23766357421875,1.5943583250045776,0.5326744914054871,-1.9718730449676514
1766400138345346300,-0.22765380859375,1.7397441864013672,0.5009095072746277,-1.8008307218551636
1766400138355386600,-0.21761328125,1.853365182876587,0.504574716091156,-1.8264870643615723
1766400138375467300,-0.19753271484375,2.0647244453430176,0.6352998614311218,-2.3579399585723877
1766400138385446400,-0.1875537109375,2.141693592071533,0.7379252314567566,-2.4556782245635986
1766400138410531800,-0.16246826171875,2.322509765625,0.8454375267028809,-2.2907447814941406
1766400138430551300,-0.14244873046875,2.320066213607788,0.9334021210670471,-2.3469443321228027
1766400138440591600,-0.132408447265625,2.37626576423645,0.8943067193031311,-2.3066272735595703
1766400138450571000,-0.122428955078125,2.400700330734253,0.8820894360542297,-2.2406537532806396
1766400138490671000,-0.082328857421875,2.3151793479919434,0.978606104850769,-1.7568484544754028
1766400138500711200,-0.072288818359375,2.291966438293457,0.9957103729248047,-1.7788395881652832
1766400138520731000,-0.05226904296875,2.2821924686431885,1.0250319242477417,-1.9511035680770874
1766400138570901800,-0.00209814453125,1.8961256742477417,1.23394775390625,-1.2693779468536377
1766400138600961500,0.02796142578125,1.633453607559204,1.273043155670166,-0.7562511563301086
1766400138610971400,0.037971435546875,1.5638149976730347,1.3255776166915894,-0.8234463334083557
1766400138621011500,0.048011474609375,1.5222761631011963,1.3573426008224487,-0.9126327037811279
1766400138631021300,0.058021240234375,1.4795156717300415,1.3854423761367798,-0.979827880859375
1766400138691202000,0.1182021484375,1.4892895221710205,1.236391305923462,-1.0348057746887207
1766400138721292300,0.148292236328125,1.653001308441162,1.0897835493087769,-1.3548991680145264
1766400138761453600,0.18845361328125,1.987755537033081,0.7819074988365173,-2.39214825630188
1766400138831674400,0.25867431640625,2.506990909576416,0.07208210229873657,-3.7702603340148926
1766400138911874600,0.33887451171875,2.0622811317443848,-0.41661009192466736,-3.258355140686035
1766400138961984500,0.388984619140625,1.018923282623291,0.49235737323760986,-1.8399261236190796
1766400138982004000,0.40900390625,0.7660250067710876,0.93095862865448,-0.27611109614372253
1766400138992074800,0.41907470703125,0.646295428276062,1.1276572942733765,0.15515977144241333
1766400139002084600,0.429084716796875,0.5363397002220154,1.2901474237442017,0.40072759985923767
1766400139012094200,0.43909423828125,0.44837507605552673,1.4123204946517944,0.5766568183898926
1766400139022134500,0.449134521484375,0.384845107793808,1.4929546117782593,0.7574729323387146
1766400139032114000,0.459114013671875,0.35674530267715454,1.5442672967910767,0.9529497623443604
1766400139052133400,0.47913330078125,0.3591887652873993,1.4966198205947876,1.1887437105178833
1766400139072183600,0.49918359375,0.34697145223617554,1.4526375532150269,1.017701506614685
1766400139112283600,0.53928369140625,0.3701843321323395,1.2498302459716797,0.5155702829360962
1766400139122323700,0.54932373046875,0.3799581825733185,1.187522053718567,0.44226643443107605
1766400139132333600,0.55933349609375,0.384845107793808,1.1386528015136719,0.37140607833862305
1766400139142374000,0.569373779296875,0.38606682419776917,1.0873401165008545,0.32009339332580566
1766400139152475100,0.57947509765625,0.37751471996307373,1.0286970138549805,0.3029891550540924
1766400139162454500,0.58945458984375,0.3628539443016052,0.9871582388877869,0.3237585723400116
1766400139172464000,0.599464111328125,0.3323107063770294,0.9566149711608887,0.4092797040939331
1766400139182474000,0.609473876953125,0.31031954288482666,0.9150761365890503,0.4911356568336487
1766400139192483800,0.61948388671875,0.2919935882091522,0.8637634515762329,0.4960225820541382
1766400139202493400,0.629493408203125,0.27488934993743896,0.807563841342926,0.39095374941825867
1766400139212503300,0.63950341796875,0.27000242471694946,0.759916365146637,0.20891591906547546
1766400139222513200,0.64951318359375,0.26022860407829285,0.7244861721992493,0.0403171069920063
1766400139232492300,0.6594921875,0.24678955972194672,0.6951646208763123,-0.042760565876960754
1766400139242532600,0.66953271484375,0.24556782841682434,0.6695083379745483,-0.028099801391363144
1766400139262582500,0.68958251953125,0.251676470041275,0.6035348773002625,-0.03420845419168472
1766400139272592400,0.69959228515625,0.2565633952617645,0.5595525503158569,-0.15515977144241333
1766400139282663200,0.7096630859375,0.26145032048225403,0.5277875661849976,-0.27122417092323303
1766400139292673000,0.719673095703125,0.2687807083129883,0.5326744914054871,-0.2223549485206604
1766400139302713300,0.72971337890625,0.28099802136421204,0.5302310585975647,-0.0403171069920063
1766400139312692500,0.7396923828125,0.2822197377681732,0.50335294008255,0.15027284622192383
1766400139322732800,0.74973291015625,0.27000242471694946,0.4911356568336487,0.25045475363731384
1766400139332742700,0.75974267578125,0.2541199326515198,0.49357911944389343,0.2480112910270691
1766400139342782700,0.76978271484375,0.24434609711170197,0.4862487316131592,0.1966986060142517
1766400139362802400,0.789802490234375,0.2382374405860901,0.4593706727027893,0.1062905490398407
1766400139372812000,0.79981201171875,0.24068090319633484,0.45814892649650574,0.13561208546161652
1766400139382822000,0.80982177734375,0.2480112910270691,0.4605923891067505,0.2076941877603531
1766400139392831700,0.819831787109375,0.25534167885780334,0.455705463886261,0.26633724570274353
1766400139402841300,0.82984130859375,0.2541199326515198,0.45204028487205505,0.26022860407829285
1766400139412851200,0.839851318359375,0.24923302233219147,0.45204028487205505,0.17837265133857727
1766400139422861000,0.849861083984375,0.2480112910270691,0.4386012554168701,0.05497787147760391
1766400139432840200,0.859840087890625,0.24434609711170197,0.4251621961593628,-0.03176499158143997
1766400139442880500,0.869880615234375,0.2382374405860901,0.4300491213798523,0.00855211354792118
1766400139472940300,0.899940185546875,0.2125810980796814,0.39217549562454224,0.32131510972976685
1766400139482980600,0.909980712890625,0.18081611394882202,0.3701843321323395,0.28466320037841797
1766400139493021000,0.92002099609375,0.16493362188339233,0.35185837745666504,0.2223549485206604
1766400139503030500,0.930030517578125,0.16004669666290283,0.32498031854629517,0.18936823308467865
1766400139513010000,0.940010009765625,0.16493362188339233,0.29077184200286865,0.17348572611808777
1766400139523080700,0.950080810546875,0.16737708449363708,0.2577851414680481,0.15027284622192383
1766400139533090300,0.96009033203125,0.16737708449363708,0.2577851414680481,0.15027284622192383
1766400139543130600,0.970130615234375,0.16004669666290283,0.22479841113090515,0.09162978827953339
1766400139553110000,0.980110107421875,0.1466076523065567,0.19425514340400696,0.024434609338641167
1766400139573190400,1.0001904296875,0.10384709388017654,0.12217304855585098,-0.019547687843441963
1766400139583230700,1.010230712890625,0.08918632566928864,0.08674286305904388,-0.0012217304902151227
1766400139593240600,1.020240478515625,0.07330382615327835,0.04764748737215996,-0.00733038317412138
1766400139603250400,1.03025048828125,0.051312681287527084,0.015882495790719986,-0.030543262138962746
1766400139613260000,1.040260009765625,0.02932153269648552,-0.0012217304902151227,-0.019547687843441963
1766400139623270000,1.050269775390625,0.015882495790719986,-0.02687807008624077,0.06475171446800232
1766400139633279700,1.06027978515625,-0.0024434609804302454,-0.05375614017248154,0.1820378452539444
1766400139643319800,1.07031982421875,-0.04398229718208313,-0.07330382615327835,0.251676470041275
1766400139653329700,1.08032958984375,-0.08552113175392151,-0.09040805697441101,0.2321287989616394
1766400139673349000,1.10034912109375,-0.1111774742603302,-0.15882496535778046,0.01466076634824276
1766400139683389400,1.110389404296875,-0.12950342893600464,-0.1918116807937622,-0.10018189996480942
1766400139693399300,1.1203994140625,-0.17348572611808777,-0.21013765037059784,-0.11728613078594208
1766400139703470000,1.130469970703125,-0.22357667982578278,-0.22479841113090515,0.006108652334660292
1766400139713480000,1.14047998046875,-0.2736676335334778,-0.2993239760398865,0.18448130786418915
1766400139723550700,1.15055078125,-0.35674530267715454,-0.41172316670417786,0.28466320037841797
1766400139733591000,1.160591064453125,-0.4691445231437683,-0.50335294008255,0.25045475363731384
1766400139743600600,1.1706005859375,-0.5742133259773254,-0.6023131608963013,0.14416420459747314
1766400139753610500,1.180610595703125,-0.6792821288108826,-0.7281513810157776,0.07819075137376785
1766400139773660400,1.200660400390625,-0.9162978529930115,-0.9236282706260681,0.2932153046131134
1766400139783731200,1.210731201171875,-1.0848966836929321,-1.018923282623291,0.4691445231437683
1766400139793710600,1.220710693359375,-1.264491081237793,-1.1227703094482422,0.6279694437980652
1766400139803781400,1.230781494140625,-1.4184291362762451,-1.2522737979888916,0.7916813492774963
1766400139813821700,1.24082177734375,-1.5234979391098022,-1.398881435394287,0.8881980776786804
1766400139823862000,1.250862060546875,-1.6212363243103027,-1.539380431175232,0.8344419002532959
1766400139833841200,1.260841064453125,-1.7214182615280151,-1.6798794269561768,0.7024950385093689
1766400139843881500,1.270881591796875,-1.793500304222107,-1.8008307218551636,0.6389650702476501
1766400139853891300,1.280891357421875,-1.8362609148025513,-1.9144517183303833,0.6731734871864319
1766400139883920400,1.31092041015625,-1.89979088306427,-2.168571710586548,0.4948008358478546
1766400139903940000,1.330940185546875,-1.9315558671951294,-2.180788993835449,0.5424483418464661
1766400139913949700,1.34094970703125,-1.9511035680770874,-2.1759018898010254,0.6255260109901428
1766400139923959600,1.35095947265625,-1.9755382537841797,-2.1710150241851807,0.636521577835083
1766400139933969400,1.360969482421875,-1.9938641786575317,-2.1539108753204346,0.6035348773002625
1766400139944009700,1.371009765625,-2.007303237915039,-2.122145891189575,0.5717698931694031
1766400139953988900,1.38098876953125,-2.0170769691467285,-2.0916025638580322,0.5338962078094482
1766400139964029200,1.391029296875,-2.032959461212158,-2.052507162094116,0.4740314185619354
1766400139994058500,1.42105859375,-2.0512855052948,-1.872912883758545,-0.03420845419168472
1766400140004098800,1.431098876953125,-2.03540301322937,-1.7544050216674805,-0.21502456068992615
1766400140014108400,1.4411083984375,-2.0134117603302,-1.6322319507598877,-0.3689626157283783
1766400140024118300,1.4511181640625,-1.987755537033081,-1.5137240886688232,-0.4202753007411957
1766400140034128100,1.461128173828125,-1.95965576171875,-1.4013248682022095,-0.3836233615875244
1766400140044168200,1.471168212890625,-1.9156733751296997,-1.29381263256073,-0.4300491213798523
1766400140054178000,1.481177978515625,-1.9168951511383057,-1.1899654865264893,-0.588874101638794
1766400140064218400,1.49121826171875,-1.9315558671951294,-1.0775662660598755,-0.7476990818977356
1766400140074258700,1.5012587890625,-1.8496999740600586,-0.9615018963813782,-0.9529497623443604
1766400140094278100,1.521278076171875,-1.6139060258865356,-0.7379252314567566,-1.7189748287200928
1766400140124429600,1.5514296875,-1.3634512424468994,-0.2528982162475586,-2.844188690185547
1766400140134408700,1.56140869140625,-1.3048081398010254,-0.11728613078594208,-3.0995302200317383
1766400140144418600,1.57141845703125,-1.205847978591919,-0.018325956538319588,-3.254689931869507
1766400140154428400,1.581428466796875,-1.1704177856445312,0.059864792972803116,-3.3206634521484375
1766400140164468500,1.591468505859375,-1.224173903465271,0.16982053220272064,-3.3646457195281982
1766400140174478300,1.601478271484375,-1.3182471990585327,0.26145032048225403,-3.2278120517730713
1766400140224618800,1.65161865234375,-1.2412781715393066,0.36529740691185,-2.632829189300537
1766400140234628600,1.661628662109375,-1.2657127380371094,0.36529740691185,-2.5692992210388184
1766400140244638200,1.67163818359375,-1.2767083644866943,0.38117989897727966,-2.3848178386688232
1766400140254648000,1.68164794921875,-1.2864822149276733,0.3445279896259308,-2.1429152488708496
1766400140264688400,1.6916884765625,-1.3084733486175537,0.2015855312347412,-2.076941728591919
1766400140274667500,1.70166748046875,-1.4538593292236328,0.06841690838336945,-1.9706512689590454
1766400140284707800,1.711707763671875,-1.4538593292236328,0.06841690838336945,-1.9706512689590454
1766400140304788500,1.73178857421875,-1.4563027620315552,-0.15515977144241333,-1.4147639274597168
1766400140334848300,1.76184814453125,-1.5125023126602173,-0.18936823308467865,-0.6438519954681396
1766400140344888600,1.771888671875,-1.431868076324463,-0.31520646810531616,-0.40194934606552124
1766400140354929000,1.781928955078125,-1.3561208248138428,-0.36651915311813354,-0.7330383062362671
1766400140364969200,1.79196923828125,-1.3536773920059204,-0.31642818450927734,-1.2754865884780884
1766400140374978800,1.801978759765625,-1.3048081398010254,-0.2638937830924988,-1.4550809860229492
1766400140384988700,1.81198876953125,-1.2986994981765747,-0.2577851414680481,-1.3194689750671387
1766400140394998300,1.821998291015625,-1.2950342893600464,-0.2076941877603531,-1.027475357055664
1766400140435129000,1.862129150390625,-1.216843605041504,0.19792033731937408,-0.17959438264369965
1766400140445138700,1.872138671875,-1.2095131874084473,0.33108896017074585,0.4141666293144226
1766400140455148500,1.8821484375,-1.2559388875961304,0.48258355259895325,0.9663888216018677
1766400140465188900,1.89218896484375,-1.2559388875961304,0.5632177591323853,1.2559388875961304
1766400140475198500,1.902198486328125,-1.226617455482483,0.588874101638794,0.8454375267028809
1766400140485238800,1.91223876953125,-1.186300277709961,0.6572909951210022,0.030543262138962746
1766400140495218200,1.92221826171875,-1.1606439352035522,0.6976081132888794,-0.5021312236785889
1766400140525369600,1.95236962890625,-1.0775662660598755,0.5351179838180542,0.19914206862449646
1766400140535409700,1.96240966796875,-1.0983357429504395,0.5241223573684692,0.18325957655906677
1766400140545419500,1.97241943359375,-1.1337659358978271,0.4801400899887085,0.08307767659425735
1766400140555429400,1.982429443359375,-1.1643091440200806,0.3628539443016052,0.01710422709584236
1766400140565500200,1.992500244140625,-1.2388347387313843,0.24678955972194672,0.009773843921720982
1766400140575509800,2.002509765625,-1.3671164512634277,0.15271630883216858,-0.004886921960860491
1766400140585550000,2.012550048828125,-1.490511178970337,0.06841690838336945,-0.01466076634824276
1766400140615640600,2.042640625,-1.6945401430130005,-0.2528982162475586,-0.616973876953125
1766400140635690500,2.0626904296875,-1.8118263483047485,-0.44593164324760437,-0.921184778213501
1766400140645730800,2.072730712890625,-1.892460584640503,-0.5351179838180542,-0.9737191796302795
1766400140655740700,2.08274072265625,-1.901012659072876,-0.618195652961731,-0.9199630618095398
1766400140665750300,2.092750244140625,-1.9242255687713623,-0.6487388610839844,-0.9334021210670471
1766400140675790600,2.10279052734375,-1.9315558671951294,-0.6585127115249634,-0.9224064946174622
1766400140685861400,2.112861328125,-1.9071213006973267,-0.636521577835083,-0.8637634515762329
1766400140695871200,2.122871337890625,-1.8863518238067627,-0.5839871764183044,-0.8539896011352539
1766400140715890700,2.142890625,-1.8484781980514526,-0.4740314185619354,-0.5510004758834839
1766400140755990800,2.18299072265625,-1.5723671913146973,-0.3176499307155609,0.13805554807186127
1766400140766031000,2.193031005859375,-1.4734070301055908,-0.2590068578720093,0.22846360504627228
1766400140776041000,2.203041015625,-1.3658946752548218,-0.19425514340400696,0.2773328125476837
1766400140786081300,2.213081298828125,-1.2400563955307007,-0.1368338167667389,0.2993239760398865
1766400140796121300,2.223121337890625,-1.1142182350158691,-0.08918632566928864,0.2883284091949463
1766400140806161700,2.23316162109375,-0.988379955291748,-0.04886921867728233,0.27611109614372253
1766400140836252200,2.263252197265625,-0.6536257863044739,-0.07941248267889023,0.4899139404296875
1766400140846323000,2.273322998046875,-0.5925393104553223,-0.12461651116609573,0.6010913848876953
1766400140856332500,2.28333251953125,-0.5400048494338989,-0.16493362188339233,0.6548475623130798
1766400140866372900,2.293372802734375,-0.4948008358478546,-0.1966986060142517,0.6731734871864319
1766400140886453500,2.31345361328125,-0.3982841372489929,-0.23457226157188416,0.7428121566772461
1766400140896432600,2.3234326171875,-0.375071257352829,-0.2431243658065796,0.7476990818977356
1766400140906473000,2.333472900390625,-0.35063666105270386,-0.2480112910270691,0.7183775305747986
1766400140926492400,2.353492431640625,-0.27000242471694946,-0.26145032048225403,0.5302310585975647
1766400140946542600,2.37354248046875,-0.19547687470912933,-0.22602014243602753,0.23579397797584534
1766400140956552400,2.383552490234375,-0.13439035415649414,-0.1966986060142517,0.15882496535778046
1766400140966592500,2.393592529296875,-0.09651670604944229,-0.16004669666290283,0.10018189996480942
1766400140976602400,2.403602294921875,-0.04642575979232788,-0.13805554807186127,0.10995574295520782
1766400140986612200,2.4136123046875,-0.00855211354792118,-0.12095131725072861,0.14294247329235077
1766400140996621800,2.423621826171875,0.01466076634824276,-0.11850785464048386,0.20891591906547546
1766400141006662100,2.433662109375,0.03420845419168472,-0.11850785464048386,0.27977627515792847
1766400141016672000,2.443672119140625,0.051312681287527084,-0.1111774742603302,0.32009339332580566
1766400141056772000,2.483772216796875,0.09162978827953339,-0.11972958594560623,0.21135938167572021
1766400141066812400,2.4938125,0.12950342893600464,-0.10995574295520782,0.12095131725072861
1766400141076791600,2.50379150390625,0.1417207419872284,-0.09896016865968704,0.042760565876960754
1766400141086801400,2.513801513671875,0.11850785464048386,-0.08796459436416626,-0.019547687843441963
1766400141096841700,2.523841796875,0.10262536257505417,-0.08185594528913498,-0.05253441259264946
1766400141106882000,2.533882080078125,0.09651670604944229,-0.07696902006864548,-0.04886921867728233
1766400141116891600,2.5438916015625,0.06108652427792549,-0.06719517707824707,-0.09162978827953339
1766400141126932000,2.553931884765625,0.05253441259264946,-0.05253441259264946,-0.12461651116609573
1766400141167032000,2.594031982421875,0.09040805697441101,0.039095375686883926,-0.19425514340400696
1766400141177042000,2.6040419921875,0.10018189996480942,0.04642575979232788,-0.2675589919090271
1766400141187082200,2.614082275390625,0.09040805697441101,0.0659734457731247,-0.2541199326515198
1766400141197061400,2.624061279296875,0.08796459436416626,0.09162978827953339,-0.18814650177955627
1766400141207132200,2.634132080078125,0.09529497474431992,0.13927727937698364,-0.15027284622192383
1766400141217142000,2.64414208984375,0.12339477986097336,0.19058994948863983,-0.1612684279680252
1766400141227151600,2.654151611328125,0.15882496535778046,0.2431243658065796,-0.21380282938480377
1766400141237161500,2.664161376953125,0.19914206862449646,0.3090978264808655,-0.2638937830924988
1766400141257211600,2.684211669921875,0.23457226157188416,0.36163222789764404,-0.2321287989616394
1766400141267221200,2.69422119140625,0.23335053026676178,0.34574973583221436,-0.20402899384498596
1766400141277231000,2.704231201171875,0.21991148591041565,0.2993239760398865,-0.22846360504627228
1766400141287302000,2.714302001953125,0.2028072625398636,0.2370157092809677,-0.22846360504627228
1766400141297311700,2.724311767578125,0.19547687470912933,0.18814650177955627,-0.22357667982578278
1766400141307351800,2.734351806640625,0.1918116807937622,0.1563815027475357,-0.22357667982578278
1766400141317392100,2.74439208984375,0.1722639948129654,0.13561208546161652,-0.21135938167572021
1766400141327432400,2.754432373046875,0.16493362188339233,0.1160643994808197,-0.14538592100143433
1766400141367532500,2.794532470703125,0.1062905490398407,0.32131510972976685,0.48747047781944275
1766400141377572900,2.80457275390625,0.1111774742603302,0.4043927788734436,0.5717698931694031
1766400141397622800,2.824622802734375,0.13561208546161652,0.5057964324951172,0.5473352670669556
1766400141407632600,2.834632568359375,0.15760323405265808,0.49357911944389343,0.37629300355911255
1766400141417642500,2.844642578125,0.18814650177955627,0.4691445231437683,0.1270599663257599
1766400141427682800,2.854682861328125,0.20525072515010834,0.4495968222618103,-0.02687807008624077
1766400141437723000,2.864722900390625,0.22113321721553802,0.4202753007411957,-0.07208210229873657
1766400141457773000,2.88477294921875,0.2064724564552307,0.3897320330142975,-0.06475171446800232
1766400141487863300,2.91486328125,0.14416420459747314,0.34574973583221436,0.06108652427792549
1766400141497903600,2.924903564453125,0.13072516024112701,0.3237585723400116,0.0024434609804302454
1766400141507944000,2.93494384765625,0.10995574295520782,0.304210901260376,-0.06352998316287994
1766400141517953800,2.944953857421875,0.09651670604944229,0.28955012559890747,-0.0708603709936142
1766400141527963400,2.95496337890625,0.09162978827953339,0.2773328125476837,-0.03787364438176155
1766400141537973200,2.96497314453125,0.06841690838336945,0.2626720666885376,-0.01466076634824276
1766400141548013600,2.975013671875,0.042760565876960754,0.24434609711170197,0.0354301854968071
1766400141588113700,3.01511376953125,-0.015882495790719986,0.2064724564552307,0.07208210229873657
1766400141598123300,3.025123291015625,-0.018325956538319588,0.2064724564552307,0.09285151958465576
1766400141608133000,3.035133056640625,-0.01710422709584236,0.2076941877603531,0.08552113175392151
1766400141618143000,3.04514306640625,-0.00855211354792118,0.2076941877603531,0.05009094998240471
1766400141628152600,3.055152587890625,-0.00366519158706069,0.2125810980796814,0.028099801391363144
1766400141638162400,3.065162353515625,0.004886921960860491,0.20891591906547546,0.04398229718208313
1766400141648202800,3.07520263671875,0.013439035043120384,0.2064724564552307,0.0403171069920063
1766400141668222200,3.09522216796875,0.02076941914856434,0.20036379992961884,0.06841690838336945
1766400141678232000,3.105232177734375,0.019547687843441963,0.19058994948863983,0.1160643994808197
1766400141688302800,3.115302734375,0.015882495790719986,0.18448130786418915,0.15882496535778046
1766400141698312700,3.125312744140625,0.015882495790719986,0.1722639948129654,0.17104226350784302
1766400141708322300,3.135322265625,0.010995574295520782,0.16249015927314758,0.16493362188339233
1766400141718332200,3.145332275390625,0.019547687843441963,0.15271630883216858,0.14416420459747314
1766400141728342000,3.155342041015625,0.021991148591041565,0.14782938361167908,0.12339477986097336
1766400141738351600,3.1653515625,0.02076941914856434,0.13927727937698364,0.12339477986097336
1766400141748361500,3.175361572265625,0.02076941914856434,0.1368338167667389,0.10018189996480942
1766400141758371000,3.18537109375,0.030543262138962746,0.14294247329235077,0.05619960278272629
1766400141768381000,3.195380859375,0.03420845419168472,0.14782938361167908,0.025656340643763542
1766400141798410200,3.22541015625,0.04764748737215996,0.16982053220272064,0.0024434609804302454
1766400141808420000,3.235420166015625,0.04764748737215996,0.16982053220272064,0.0024434609804302454
1766400141818429700,3.2454296875,0.042760565876960754,0.1771509200334549,0.01710422709584236
1766400141828470000,3.255469970703125,0.04398229718208313,0.17592918872833252,0.04886921867728233
1766400141838449400,3.265449462890625,0.0403171069920063,0.16859880089759827,0.0708603709936142
1766400141848489500,3.275489501953125,0.03787364438176155,0.16493362188339233,0.07208210229873657
1766400141858499300,3.285499267578125,0.04153883829712868,0.16249015927314758,0.03787364438176155
1766400141868539600,3.29553955078125,0.045204028487205505,0.16493362188339233,-0.00733038317412138
1766400141888589800,3.31558984375,0.04642575979232788,0.1514945775270462,-0.025656340643763542
1766400141898599400,3.325599365234375,0.0354301854968071,0.14538592100143433,0.006108652334660292
1766400141908609300,3.335609375,0.03298672288656235,0.13072516024112701,0.042760565876960754
1766400141918649600,3.345649658203125,0.042760565876960754,0.12095131725072861,0.05009094998240471
1766400141928690000,3.35568994140625,0.042760565876960754,0.11850785464048386,0.05742133408784866
1766400141938699500,3.365699462890625,0.036651913076639175,0.11362093687057495,0.09162978827953339
1766400141948739800,3.37573974609375,0.02932153269648552,0.10995574295520782,0.13316862285137177
1766400141958749700,3.385749755859375,0.02321287989616394,0.10751228034496307,0.1771509200334549
1766400141978769200,3.40576904296875,0.006108652334660292,0.10506882518529892,0.25534167885780334
1766400141998788600,3.42578857421875,-0.00366519158706069,0.08307767659425735,0.3286454975605011
1766400142008798500,3.435798583984375,-0.00733038317412138,0.0806342139840126,0.31520646810531616
1766400142018777600,3.445777587890625,-0.00366519158706069,0.07819075137376785,0.3494149148464203
1766400142028787500,3.455787353515625,0.006108652334660292,0.0708603709936142,0.4043927788734436
1766400142038797300,3.46579736328125,-0.0012217304902151227,0.07819075137376785,0.4386012554168701
1766400142048837400,3.47583740234375,-0.00733038317412138,0.09285151958465576,0.5326744914054871
1766400142058877700,3.485877685546875,0.0012217304902151227,0.09285151958465576,0.66584312915802
1766400142068887600,3.495887451171875,-0.009773843921720982,0.1014036312699318,0.7965682744979858
1766400142088907000,3.515906982421875,-0.0012217304902151227,0.1111774742603302,1.0238101482391357
1766400142118966800,3.545966796875,0.019547687843441963,0.1319468915462494,0.96883225440979
1766400142139017000,3.566016845703125,0.042760565876960754,0.1612684279680252,0.8979719281196594
1766400142149026800,3.57602685546875,0.05497787147760391,0.19792033731937408,0.9615018963813782
1766400142159067000,3.58606689453125,0.07330382615327835,0.21868975460529327,1.0885618925094604
1766400142169076700,3.59607666015625,0.06963863968849182,0.23090706765651703,1.1899654865264893
1766400142179086600,3.606086669921875,0.06352998316287994,0.2431243658065796,1.2119566202163696
1766400142199106000,3.62610595703125,0.09529497474431992,0.2626720666885376,1.0726794004440308
1766400142209146400,3.636146484375,0.09040805697441101,0.2736676335334778,0.9358455538749695
1766400142219186700,3.646186767578125,0.1014036312699318,0.28955012559890747,0.8100073337554932
1766400142229227000,3.65622705078125,0.1258382350206375,0.31031954288482666,0.7635815739631653
1766400142239236600,3.666236572265625,0.16249015927314758,0.31520646810531616,0.7709119319915771
1766400142249246500,3.67624658203125,0.1417207419872284,0.30054569244384766,0.7770205736160278
1766400142259256300,3.68625634765625,0.12828169763088226,0.30543261766433716,0.8002334833145142
1766400142269296400,3.69629638671875,0.12339477986097336,0.2993239760398865,0.797789990901947
1766400142279306200,3.70630615234375,0.11850785464048386,0.27488934993743896,0.7037167549133301
1766400142309335600,3.73633544921875,0.06963863968849182,0.19914206862449646,0.07941248267889023
1766400142319406300,3.74640625,0.0403171069920063,0.16982053220272064,-0.059864792972803116
1766400142329416200,3.756416259765625,0.018325956538319588,0.12461651116609573,-0.2480112910270691
1766400142339425800,3.76642578125,-0.004886921960860491,0.06963863968849182,-0.48380526900291443
1766400142349466000,3.776466064453125,-0.02076941914856434,0.00733038317412138,-0.7159340381622314
1766400142359476000,3.78647607421875,-0.04153883829712868,-0.04153883829712868,-0.8576548099517822
1766400142369485600,3.796485595703125,-0.0806342139840126,-0.08918632566928864,-0.8906415104866028
1766400142379495400,3.806495361328125,-0.12461651116609573,-0.14416420459747314,-0.9004153609275818
1766400142389535700,3.81653564453125,-0.13927727937698364,-0.1918116807937622,-0.9529497623443604
1766400142439645700,3.866645751953125,-0.1514945775270462,-0.304210901260376,-0.750142514705658
1766400142449655300,3.8766552734375,-0.1466076523065567,-0.3029891550540924,-0.759916365146637
1766400142469705500,3.89670556640625,-0.12950342893600464,-0.29077184200286865,-1.007927656173706
1766400142479745800,3.906745849609375,-0.1258382350206375,-0.27977627515792847,-1.0848966836929321
1766400142489786000,3.9167861328125,-0.12339477986097336,-0.26145032048225403,-1.036027431488037
1766400142499795700,3.926795654296875,-0.11972958594560623,-0.24923302233219147,-0.911410927772522
1766400142529855500,3.95685546875,-0.11362093687057495,-0.19547687470912933,-0.5583308339118958
1766400142539865300,3.966865234375,-0.1258382350206375,-0.17837265133857727,-0.455705463886261
1766400142549875200,3.976875244140625,-0.1258382350206375,-0.17837265133857727,-0.455705463886261
1766400142559884800,3.986884765625,-0.13561208546161652,-0.15882496535778046,-0.3628539443016052
1766400142569894700,3.996894775390625,-0.1417207419872284,-0.15271630883216858,-0.3078760802745819
1766400142579935000,4.00693505859375,-0.15271630883216858,-0.14049901068210602,-0.27611109614372253
1766400142590005800,4.017005859375,-0.1563815027475357,-0.1270599663257599,-0.22357667982578278
1766400142600015400,4.027015380859375,-0.16737708449363708,-0.1111774742603302,-0.14416420459747314
1766400142630105900,4.05710595703125,-0.17959438264369965,-0.04398229718208313,0.1368338167667389
1766400142660135200,4.08713525390625,-0.17348572611808777,0.05375614017248154,0.4202753007411957
1766400142670144800,4.097144775390625,-0.1612684279680252,0.07696902006864548,0.4911356568336487
1766400142680185000,4.10718505859375,-0.14538592100143433,0.08674286305904388,0.5229006409645081
1766400142690195000,4.11719482421875,-0.13439035415649414,0.10018189996480942,0.5265658497810364
1766400142700204800,4.127204833984375,-0.1319468915462494,0.11484266817569733,0.5436700582504272
1766400142730264600,4.1572646484375,-0.10384709388017654,0.13805554807186127,0.3836233615875244
1766400142740274200,4.167274169921875,-0.08552113175392151,0.14294247329235077,0.2871066629886627
1766400142750314500,4.177314453125,-0.07452555745840073,0.14782938361167908,0.21624629199504852
1766400142760324400,4.187324462890625,-0.06719517707824707,0.15027284622192383,0.18325957655906677
1766400142770334200,4.197334228515625,-0.05742133408784866,0.14049901068210602,0.19058994948863983
1766400142780343800,4.20734375,-0.05253441259264946,0.12339477986097336,0.1869247704744339
1766400142790353700,4.217353759765625,-0.0403171069920063,0.09773843735456467,0.12828169763088226
1766400142800455000,4.227454833984375,-0.02932153269648552,0.07330382615327835,0.0354301854968071
1766400142810464800,4.23746484375,-0.013439035043120384,0.05619960278272629,-0.0403171069920063
1766400142840494000,4.267494140625,0.019547687843441963,0.0403171069920063,-0.03176499158143997
1766400142850564900,4.27756494140625,0.02932153269648552,0.042760565876960754,0
1766400142860574500,4.287574462890625,0.03420845419168472,0.04886921867728233,0.01466076634824276
1766400142870645200,4.297645263671875,0.04153883829712868,0.05009094998240471,0.004886921960860491
1766400142880655000,4.307655029296875,0.051312681287527084,0.051312681287527084,-0.01466076634824276
1766400142890726000,4.317725830078125,0.05375614017248154,0.04764748737215996,-0.039095375686883926
1766400142900735700,4.32773583984375,0.05253441259264946,0.04764748737215996,-0.04764748737215996
1766400142920755200,4.347755126953125,0.08307767659425735,0.039095375686883926,-0.045204028487205505
1766400142950845400,4.377845458984375,0.08429940044879913,0.059864792972803116,0.006108652334660292
1766400142960885800,4.3878857421875,0.08307767659425735,0.06352998316287994,0.025656340643763542
1766400142970956500,4.39795654296875,0.0757472887635231,0.0659734457731247,0.04153883829712868
1766400142980936000,4.40793603515625,0.06475171446800232,0.06475171446800232,0.05864306539297104
1766400142990976300,4.417976318359375,0.06352998316287994,0.05864306539297104,0.08674286305904388
1766400143001047000,4.428047119140625,0.05619960278272629,0.05742133408784866,0.10018189996480942
1766400143011056600,4.438056640625,0.05253441259264946,0.05619960278272629,0.08796459436416626
1766400143021066500,4.44806640625,0.051312681287527084,0.05253441259264946,0.06475171446800232
1766400143051095800,4.478095703125,0.06475171446800232,0.06719517707824707,0.05742133408784866
1766400143061136100,4.48813623046875,0.059864792972803116,0.07208210229873657,0.0757472887635231
1766400143071145700,4.498145751953125,0.05742133408784866,0.06841690838336945,0.08674286305904388
1766400143081155600,4.508155517578125,0.051312681287527084,0.06230825558304787,0.0708603709936142
1766400143091196000,4.51819580078125,0.045204028487205505,0.05619960278272629,0.06475171446800232
1766400143101205800,4.528205810546875,0.0354301854968071,0.051312681287527084,0.07208210229873657
1766400143111245800,4.538245849609375,0.019547687843441963,0.051312681287527084,0.0806342139840126
1766400143121255700,4.548255615234375,0.00855211354792118,0.04886921867728233,0.08307767659425735
1766400143131296000,4.5582958984375,0.0012217304902151227,0.045204028487205505,0.07819075137376785
1766400143151315500,4.5783154296875,-0.015882495790719986,0.045204028487205505,0.05864306539297104
1766400143161325300,4.5883251953125,-0.02321287989616394,0.045204028487205505,0.06108652427792549
1766400143171335200,4.598335205078125,-0.03298672288656235,0.04764748737215996,0.05619960278272629
1766400143181375200,4.608375244140625,-0.04153883829712868,0.042760565876960754,0.04764748737215996
1766400143191385000,4.618385009765625,-0.04886921867728233,0.0403171069920063,0.03787364438176155
1766400143201395000,4.62839501953125,-0.05375614017248154,0.05009094998240471,0.051312681287527084
1766400143211404500,4.638404541015625,-0.05253441259264946,0.05742133408784866,0.08552113175392151
1766400143221414400,4.648414306640625,-0.05619960278272629,0.06719517707824707,0.11239920556545258
1766400143241464600,4.668464599609375,-0.05742133408784866,0.08185594528913498,0.21380282938480377
1766400143251474200,4.67847412109375,-0.059864792972803116,0.08429940044879913,0.2577851414680481
1766400143261484000,4.688484130859375,-0.05742133408784866,0.08307767659425735,0.2724458873271942
1766400143271463200,4.698463134765625,-0.039095375686883926,0.0806342139840126,0.26022860407829285
1766400143281503500,4.70850341796875,-0.02687807008624077,0.0757472887635231,0.21868975460529327
1766400143291543800,4.718543701171875,-0.02687807008624077,0.0757472887635231,0.21868975460529327
1766400143301523000,4.72852294921875,-0.039095375686883926,0.06719517707824707,0.15027284622192383
1766400143311532800,4.73853271484375,-0.03787364438176155,0.051312681287527084,0.07208210229873657
1766400143331644000,4.758643798828125,-0.021991148591041565,0.018325956538319588,-0.05497787147760391
1766400143341653800,4.76865380859375,-0.02687807008624077,0.00366519158706069,-0.042760565876960754
1766400143351693800,4.77869384765625,-0.030543262138962746,-0.01466076634824276,0.004886921960860491
1766400143361764900,4.788764892578125,-0.015882495790719986,-0.02687807008624077,0.01710422709584236
1766400143371805000,4.798804931640625,-0.012217304669320583,-0.03176499158143997,-0.013439035043120384
1766400143381814800,4.808814697265625,-0.010995574295520782,-0.03298672288656235,-0.03420845419168472
1766400143391824600,4.81882470703125,-0.004886921960860491,-0.02932153269648552,-0.039095375686883926
1766400143401834200,4.828834228515625,0.004886921960860491,-0.018325956538319588,-0.04886921867728233
1766400143411874600,4.83887451171875,-0.004886921960860491,-0.004886921960860491,-0.05742133408784866
1766400143421884400,4.848884521484375,-0.012217304669320583,0.00366519158706069,-0.03787364438176155
1766400143451913700,4.878913818359375,-0.02687807008624077,-0.01466076634824276,-0.028099801391363144
1766400143461923300,4.88892333984375,-0.03298672288656235,-0.018325956538319588,0.0012217304902151227
1766400143471963600,4.898963623046875,-0.0354301854968071,-0.018325956538319588,0.03787364438176155
1766400143482034400,4.909034423828125,-0.03176499158143997,-0.01466076634824276,0.06719517707824707
1766400143492074800,4.91907470703125,-0.030543262138962746,-0.00733038317412138,0.0806342139840126
1766400143502084600,4.929084716796875,-0.02932153269648552,-0.0024434609804302454,0.08429940044879913
1766400143512094200,4.93909423828125,-0.02687807008624077,-0.0012217304902151227,0.07208210229873657
1766400143522134500,4.949134521484375,-0.025656340643763542,-0.0012217304902151227,0.045204028487205505
1766400143532174800,4.9591748046875,-0.02321287989616394,-0.006108652334660292,0.019547687843441963
1766400143562234600,4.989234619140625,-0.013439035043120384,-0.01466076634824276,-0.019547687843441963
1766400143572244500,4.999244384765625,-0.009773843921720982,-0.012217304669320583,-0.009773843921720982
1766400143582254300,5.00925439453125,-0.00366519158706069,-0.00855211354792118,0
1766400143592233500,5.0192333984375,0,-0.006108652334660292,-0.0024434609804302454
1766400143602273800,5.029273681640625,0,-0.00733038317412138,-0.02687807008624077
1766400143612344600,5.039344482421875,-0.00366519158706069,-0.0024434609804302454,-0.051312681287527084
1766400143622385000,5.049385009765625,0.00366519158706069,-0.0024434609804302454,-0.06719517707824707
1766400143642404400,5.069404296875,-0.0012217304902151227,0.01710422709584236,-0.09040805697441101
1766400143692605700,5.119605712890625,0.004886921960860491,-0.030543262138962746,0.036651913076639175
1766400143702585000,5.129585205078125,0.00366519158706069,-0.03787364438176155,0.14905111491680145
1766400143712625400,5.13962548828125,0.019547687843441963,-0.042760565876960754,0.17959438264369965
1766400143722635000,5.149635009765625,0.039095375686883926,-0.039095375686883926,0.11239920556545258
1766400143732675300,5.15967529296875,0.045204028487205505,-0.02932153269648552,0.030543262138962746
1766400143742685200,5.169685302734375,0.059864792972803116,-0.02687807008624077,-0.018325956538319588
1766400143752695000,5.179695068359375,0.0708603709936142,-0.024434609338641167,-0.05619960278272629
1766400143772745000,5.199744873046875,0.08307767659425735,-0.01710422709584236,-0.12095131725072861
1766400143782754800,5.2097548828125,0.08307767659425735,-0.015882495790719986,-0.09651670604944229
1766400143792825600,5.21982568359375,0.08307767659425735,-0.019547687843441963,-0.0354301854968071
1766400143802835200,5.229835205078125,0.08307767659425735,-0.028099801391363144,0.009773843921720982
1766400143812845000,5.239844970703125,0.06719517707824707,-0.025656340643763542,0.019547687843441963
1766400143822855000,5.24985498046875,0.06108652427792549,-0.02321287989616394,0.01466076634824276
1766400143832864500,5.259864501953125,0.06230825558304787,-0.02687807008624077,-0.012217304669320583
1766400143842874400,5.269874267578125,0.05375614017248154,-0.021991148591041565,-0.04886921867728233
1766400143852945200,5.279945068359375,0.04642575979232788,-0.015882495790719986,-0.06352998316287994
1766400143862955000,5.289955078125,0.042760565876960754,-0.013439035043120384,-0.059864792972803116
1766400143883005000,5.3100048828125,0.03176499158143997,-0.012217304669320583,-0.08307767659425735
1766400143903055000,5.33005517578125,0.02932153269648552,-0.021991148591041565,-0.05253441259264946
1766400143913095400,5.340095458984375,0.024434609338641167,-0.02932153269648552,-0.03787364438176155
1766400143923135500,5.350135498046875,0.018325956538319588,-0.0354301854968071,-0.0403171069920063
1766400143933175800,5.36017578125,0.019547687843441963,-0.04153883829712868,-0.06108652427792549
1766400143943185700,5.370185546875,0.019547687843441963,-0.042760565876960754,-0.08552113175392151
1766400143953226000,5.38022607421875,0.02321287989616394,-0.042760565876960754,-0.09040805697441101
1766400143963235600,5.390235595703125,0.024434609338641167,-0.04398229718208313,-0.09040805697441101
1766400143973306400,5.400306396484375,0.03176499158143997,-0.04398229718208313,-0.09162978827953339
1766400144013376000,5.4403759765625,0.0354301854968071,-0.025656340643763542,-0.0659734457731247
1766400144023385900,5.4503857421875,0.039095375686883926,-0.024434609338641167,-0.06230825558304787
1766400144033395700,5.460395751953125,0.03420845419168472,-0.019547687843441963,-0.05864306539297104
1766400144043435800,5.470435791015625,0.03420845419168472,-0.015882495790719986,-0.051312681287527084
1766400144053445600,5.480445556640625,0.036651913076639175,-0.015882495790719986,-0.04642575979232788
1766400144063486000,5.49048583984375,0.036651913076639175,-0.015882495790719986,-0.04642575979232788
1766400144073495800,5.500495849609375,0.0354301854968071,-0.015882495790719986,-0.05375614017248154
1766400144113626400,5.54062646484375,0.045204028487205505,0,0.00366519158706069
1766400144123666700,5.550666748046875,0.042760565876960754,0.006108652334660292,0.03298672288656235
1766400144133676300,5.56067626953125,0.04153883829712868,0.009773843921720982,0.0354301854968071
1766400144143686100,5.57068603515625,0.03787364438176155,0.012217304669320583,0.019547687843441963
1766400144153696000,5.580696044921875,0.036651913076639175,0.009773843921720982,0.00733038317412138
1766400144163736000,5.590736083984375,0.03787364438176155,0.00855211354792118,-0.004886921960860491
1766400144173776400,5.6007763671875,0.030543262138962746,0.00733038317412138,-0.009773843921720982
1766400144183786200,5.6107861328125,0.024434609338641167,0.00366519158706069,0.006108652334660292
1766400144223916800,5.650916748046875,0.02932153269648552,0.010995574295520782,-0.00855211354792118
1766400144233957000,5.66095703125,0.025656340643763542,0.00733038317412138,-0.02932153269648552
1766400144243967000,5.670967041015625,0.028099801391363144,-0.0024434609804302454,-0.0354301854968071
1766400144253976600,5.6809765625,0.021991148591041565,-0.006108652334660292,-0.03176499158143997
1766400144263986400,5.690986328125,0.02321287989616394,-0.00855211354792118,-0.013439035043120384
1766400144274026800,5.70102685546875,0.025656340643763542,-0.010995574295520782,-0.0024434609804302454
1766400144284036400,5.711036376953125,0.02321287989616394,-0.00855211354792118,0.00855211354792118
1766400144324075500,5.751075439453125,0.02687807008624077,-0.00733038317412138,0.018325956538319588
1766400144334115800,5.76111572265625,0.028099801391363144,-0.00733038317412138,-0.00733038317412138
1766400144344156200,5.77115625,0.030543262138962746,-0.004886921960860491,-0.021991148591041565
1766400144354165800,5.781165771484375,0.0354301854968071,-0.0024434609804302454,-0.02687807008624077
1766400144364175600,5.791175537109375,0.03298672288656235,-0.0024434609804302454,-0.018325956538319588
1766400144374216000,5.8012158203125,0.0354301854968071,-0.0012217304902151227,0.018325956538319588
1766400144414285600,5.84128564453125,0.030543262138962746,0.019547687843441963,0.07696902006864548
1766400144424295200,5.851295166015625,0.024434609338641167,0.021991148591041565,0.08674286305904388
1766400144434335500,5.86133544921875,0.0403171069920063,0.006108652334660292,0.06108652427792549
1766400144444345300,5.871345458984375,0.03420845419168472,0.0024434609804302454,-0.00366519158706069
1766400144454355200,5.881355224609375,0.02687807008624077,0.015882495790719986,-0.01466076634824276
1766400144464364800,5.89136474609375,0.03420845419168472,0.025656340643763542,0.03420845419168472
1766400144474435600,5.901435546875,0.03420845419168472,0.039095375686883926,0.06963863968849182
1766400144484445400,5.911445556640625,0.03176499158143997,0.04764748737215996,0.08918632566928864
1766400144514474800,5.941474853515625,0.030543262138962746,0.018325956538319588,0.1563815027475357
1766400144524484400,5.951484375,0.036651913076639175,-0.0012217304902151227,0.1417207419872284
1766400144534494200,5.961494140625,0.03787364438176155,-0.012217304669320583,0.09651670604944229
1766400144544504000,5.971504150390625,0.042760565876960754,-0.018325956538319588,0.036651913076639175
1766400144554513700,5.981513671875,0.04642575979232788,-0.024434609338641167,-0.009773843921720982
1766400144564523500,5.9915234375,0.05253441259264946,-0.03176499158143997,-0.03298672288656235
1766400144574563800,6.001563720703125,0.05619960278272629,-0.039095375686883926,-0.042760565876960754
1766400144584604200,6.011604248046875,0.05619960278272629,-0.04153883829712868,-0.042760565876960754
1766400144594613800,6.02161376953125,0.05375614017248154,-0.042760565876960754,-0.0354301854968071
1766400144604623600,6.03162353515625,0.051312681287527084,-0.04153883829712868,-0.025656340643763542
1766400144614664000,6.041663818359375,0.04398229718208313,-0.03787364438176155,-0.024434609338641167
1766400144624673800,6.051673828125,0.0403171069920063,-0.03420845419168472,-0.05009094998240471
1766400144634683400,6.061683349609375,0.036651913076639175,-0.030543262138962746,-0.07452555745840073
1766400144644693200,6.071693359375,0.0354301854968071,-0.03298672288656235,-0.07941248267889023
1766400144654703000,6.081703125,0.03298672288656235,-0.03298672288656235,-0.0806342139840126
1766400144664712700,6.091712646484375,0.02321287989616394,-0.028099801391363144,-0.07696902006864548
1766400144674722600,6.10172265625,0.01710422709584236,-0.021991148591041565,-0.045204028487205505
1766400144684732200,6.111732177734375,0.018325956538319588,-0.02076941914856434,-0.006108652334660292
1766400144694742000,6.121741943359375,0.013439035043120384,-0.015882495790719986,0.01466076634824276
1766400144704751900,6.131751953125,0.00855211354792118,-0.00733038317412138,0.01466076634824276
1766400144734781200,6.16178125,0,0.0012217304902151227,-0.024434609338641167
1766400144744790800,6.171790771484375,-0.004886921960860491,0.006108652334660292,-0.04153883829712868
1766400144754800600,6.181800537109375,-0.010995574295520782,0.013439035043120384,-0.02687807008624077
1766400144764841000,6.191841064453125,-0.01466076634824276,0.013439035043120384,0.006108652334660292
1766400144774850600,6.2018505859375,-0.021991148591041565,0.015882495790719986,0.03298672288656235
1766400144784860400,6.2118603515625,-0.02076941914856434,0.013439035043120384,0.05009094998240471
1766400144794870300,6.221870361328125,-0.02076941914856434,0.013439035043120384,0.05009094998240471
1766400144804880000,6.2318798828125,-0.018325956538319588,0.015882495790719986,0.05009094998240471
1766400144814889700,6.2418896484375,-0.015882495790719986,0.02321287989616394,0.030543262138962746
1766400144844919000,6.2719189453125,-0.006108652334660292,0.03176499158143997,0.012217304669320583
1766400144854959400,6.28195947265625,-0.00733038317412138,0.04153883829712868,0.03787364438176155
1766400144864969200,6.29196923828125,-0.009773843921720982,0.045204028487205505,0.07819075137376785
1766400144875009300,6.30200927734375,-0.00855211354792118,0.04398229718208313,0.10751228034496307
1766400144885049600,6.312049560546875,-0.015882495790719986,0.04764748737215996,0.09407325088977814
1766400144895059500,6.3220595703125,-0.012217304669320583,0.04764748737215996,0.07696902006864548
1766400144905099800,6.332099853515625,-0.009773843921720982,0.04642575979232788,0.0659734457731247
1766400144915109400,6.342109375,-0.01466076634824276,0.04398229718208313,0.05497787147760391
1766400144925119200,6.352119140625,-0.010995574295520782,0.039095375686883926,0.06230825558304787
1766400144945199900,6.372199951171875,-0.015882495790719986,0.03420845419168472,0.08674286305904388
1766400144955209500,6.38220947265625,0.006108652334660292,0.024434609338641167,0.13561208546161652
1766400144965219300,6.39221923828125,0.006108652334660292,0.021991148591041565,0.1466076523065567
1766400144975229200,6.402229248046875,-0.012217304669320583,0.024434609338641167,0.10995574295520782
1766400144985238800,6.41223876953125,-0.018325956538319588,0.02321287989616394,0.0659734457731247
1766400144995279000,6.422279052734375,-0.03176499158143997,0.013439035043120384,-0.00366519158706069
1766400145005289000,6.4322890625,-0.009773843921720982,0.00733038317412138,-0.06963863968849182
1766400145015329300,6.442329345703125,-0.009773843921720982,-0.0012217304902151227,-0.11362093687057495
1766400145045450000,6.472449951171875,-0.009773843921720982,-0.0012217304902151227,0.0403171069920063
1766400145055459800,6.4824599609375,-0.004886921960860491,-0.0012217304902151227,0.08185594528913498
1766400145065500200,6.492500244140625,-0.006108652334660292,0,0.12217304855585098
1766400145075540500,6.50254052734375,0.004886921960860491,0.00366519158706069,0.14538592100143433
1766400145085550000,6.512550048828125,0.012217304669320583,0.004886921960860491,0.11484266817569733
1766400145095590400,6.52259033203125,0.018325956538319588,0.00366519158706069,0.0403171069920063
1766400145105600300,6.532600341796875,0.02321287989616394,0.00366519158706069,-0.01466076634824276
1766400145115671000,6.542671142578125,0.024434609338641167,0.004886921960860491,-0.013439035043120384
1766400145125650200,6.552650146484375,0.02321287989616394,0.004886921960860491,0.025656340643763542
1766400145155771100,6.582771240234375,0.019547687843441963,0.019547687843441963,0.0708603709936142
1766400145165780700,6.59278076171875,0.01710422709584236,0.02321287989616394,0.07696902006864548
1766400145175821000,6.602821044921875,0.012217304669320583,0.02687807008624077,0.1270599663257599
1766400145185831000,6.612830810546875,0.013439035043120384,0.025656340643763542,0.16982053220272064
1766400145195840800,6.6228408203125,0.015882495790719986,0.030543262138962746,0.19425514340400696
1766400145205850400,6.632850341796875,0.02321287989616394,0.04153883829712868,0.21991148591041565
1766400145215921200,6.642921142578125,0.025656340643763542,0.05009094998240471,0.2541199326515198
1766400145225931000,6.652930908203125,0.01710422709584236,0.06230825558304787,0.304210901260376
1766400145266031000,6.693031005859375,0.028099801391363144,0.09040805697441101,0.43249258399009705
1766400145276071400,6.703071533203125,0.03298672288656235,0.08429940044879913,0.455705463886261
1766400145286081000,6.7130810546875,0.04153883829712868,0.07819075137376785,0.48869219422340393
1766400145296182500,6.7231826171875,0.03420845419168472,0.07941248267889023,0.5082398653030396
1766400145306192100,6.733192138671875,0.030543262138962746,0.09651670604944229,0.5656611919403076
1766400145316202000,6.743201904296875,0.02932153269648552,0.10384709388017654,0.6426302194595337
1766400145326242300,6.7532421875,0.05619960278272629,0.0708603709936142,0.6682865619659424
1766400145366312000,6.79331201171875,0.09040805697441101,0.0403171069920063,0.030543262138962746
1766400145376321500,6.803321533203125,0.11239920556545258,0.05009094998240471,0.02076941914856434
1766400145386331400,6.813331298828125,0.09529497474431992,0.05864306539297104,-0.0403171069920063
1766400145396371700,6.823371826171875,0.09285151958465576,0.07819075137376785,-0.0403171069920063
1766400145406381600,6.833381591796875,0.10018189996480942,0.09529497474431992,0.04642575979232788
1766400145416391200,6.84339111328125,0.08796459436416626,0.09529497474431992,0.13072516024112701
1766400145426401000,6.853401123046875,0.0806342139840126,0.07452555745840073,0.1514945775270462
1766400145436441300,6.86344140625,0.07819075137376785,0.05497787147760391,0.08429940044879913
1766400145466470700,6.893470703125,0.05253441259264946,0.02076941914856434,-0.10873401165008545
1766400145476510700,6.9035107421875,0.04886921867728233,0,-0.07330382615327835
1766400145486520600,6.9135205078125,0.05864306539297104,-0.02932153269648552,-0.05619960278272629
1766400145496530400,6.923530517578125,0.05253441259264946,-0.03787364438176155,-0.06719517707824707
1766400145506540000,6.9335400390625,0.05375614017248154,-0.042760565876960754,-0.05009094998240471
1766400145516580400,6.943580322265625,0.06475171446800232,-0.04642575979232788,-0.012217304669320583
1766400145526651100,6.953651123046875,0.059864792972803116,-0.0354301854968071,-0.018325956538319588
1766400145536661000,6.963660888671875,0.04764748737215996,-0.021991148591041565,-0.05619960278272629
1766400145566751200,6.993751220703125,0.03787364438176155,-0.006108652334660292,-0.12461651116609573
1766400145586771000,7.01377099609375,0.024434609338641167,-0.006108652334660292,-0.09773843735456467
1766400145596811000,7.02381103515625,0.024434609338641167,-0.009773843921720982,-0.09285151958465576
1766400145606820900,7.03382080078125,0.018325956538319588,-0.00366519158706069,-0.07330382615327835
1766400145616830700,7.043830810546875,0.01710422709584236,0.004886921960860491,-0.006108652334660292
1766400145626840300,7.05384033203125,0.01466076634824276,0.009773843921720982,0.06475171446800232
1766400145636880600,7.063880615234375,0.012217304669320583,0.013439035043120384,0.09285151958465576
1766400145646890500,7.073890380859375,0.009773843921720982,0.015882495790719986,0.08796459436416626
1766400145686929700,7.1139296875,-0.00366519158706069,0.015882495790719986,0.05619960278272629
1766400145697000400,7.12400048828125,-0.0012217304902151227,0.010995574295520782,0.03176499158143997
1766400145707010000,7.134010009765625,0.0012217304902151227,0.010995574295520782,0.00366519158706069
1766400145717020000,7.14402001953125,-0.0012217304902151227,0.00855211354792118,0.004886921960860491
1766400145727029800,7.15402978515625,-0.00366519158706069,0.0024434609804302454,0.03787364438176155
1766400145737039400,7.164039306640625,-0.006108652334660292,-0.00366519158706069,0.05742133408784866
1766400145747049200,7.17404931640625,-0.00366519158706069,-0.01466076634824276,0.04886921867728233
1766400145757058800,7.184058837890625,0.0012217304902151227,-0.02321287989616394,0.024434609338641167
1766400145767068700,7.194068603515625,0.0024434609804302454,-0.02076941914856434,0.01710422709584236
1766400145787088100,7.214088134765625,0,0.019547687843441963,0.2272418737411499
1766400145807107800,7.23410791015625,-0.0024434609804302454,0.08185594528913498,0.5155702829360962
1766400145817117400,7.244117431640625,-0.00366519158706069,0.1160643994808197,0.5974262356758118
1766400145827127300,7.254127197265625,-0.009773843921720982,0.15271630883216858,0.656069278717041
1766400145837137200,7.26413720703125,-0.013439035043120384,0.18936823308467865,0.7232644557952881
1766400145847146800,7.274146728515625,-0.012217304669320583,0.22602014243602753,0.817337691783905
1766400145857217500,7.284217529296875,-0.012217304669320583,0.24434609711170197,0.9101892113685608
1766400145897287200,7.324287109375,0.006108652334660292,0.3188716471195221,0.9126327037811279
1766400145907297000,7.334297119140625,0.01466076634824276,0.3286454975605011,0.8197811841964722
1766400145917337300,7.34433740234375,0.02321287989616394,0.3384193480014801,0.7073819637298584
1766400145927377700,7.354377685546875,0.02687807008624077,0.34208452701568604,0.608421802520752
1766400145937387300,7.36438720703125,0.036651913076639175,0.3494149148464203,0.5546656250953674
1766400145947427600,7.374427490234375,0.030543262138962746,0.3481931984424591,0.5400048494338989
1766400145957437400,7.3844375,0.024434609338641167,0.3433062732219696,0.5546656250953674
1766400145967447000,7.394447021484375,0.028099801391363144,0.32620203495025635,0.5632177591323853
1766400145987497200,7.414497314453125,0.024434609338641167,0.27000242471694946,0.394618958234787
1766400145997537500,7.42453759765625,0.01710422709584236,0.23335053026676178,0.25045475363731384
1766400146007516700,7.4345166015625,0.01466076634824276,0.18814650177955627,0.08918632566928864
1766400146017526500,7.444526611328125,0.01466076634824276,0.1319468915462494,-0.10018189996480942
1766400146027536100,7.4545361328125,0.0403171069920063,0.07696902006864548,-0.2785545587539673
1766400146037546000,7.4645458984375,0.10262536257505417,0.0024434609804302454,-0.48258355259895325
1766400146047525000,7.474525146484375,0.07696902006864548,-0.06352998316287994,-0.7733554244041443
1766400146057535000,7.484534912109375,0.04764748737215996,-0.11239920556545258,-0.9908234477043152
1766400146067544800,7.494544921875,0.05619960278272629,-0.1417207419872284,-0.9957103729248047
1766400146087594800,7.5145947265625,0.04642575979232788,-0.18814650177955627,-0.7367035150527954
1766400146127694800,7.55469482421875,0.02076941914856434,-0.08674286305904388,0.08307767659425735
1766400146137735200,7.564735107421875,0.01466076634824276,-0.06230825558304787,0.23457226157188416
1766400146147775500,7.574775390625,0.01466076634824276,-0.039095375686883926,0.2785545587539673
1766400146157785300,7.584785400390625,0.0012217304902151227,-0.021991148591041565,0.2382374405860901
1766400146177835300,7.604835205078125,-0.019547687843441963,-0.03298672288656235,-0.018325956538319588
1766400146197854700,7.624854736328125,0.006108652334660292,-0.06230825558304787,-0.23579397797584534
1766400146207895000,7.63489501953125,0.006108652334660292,-0.07208210229873657,-0.18448130786418915
1766400146217905000,7.64490478515625,0.006108652334660292,-0.06719517707824707,-0.05253441259264946
1766400146227945200,7.6549453125,0.0024434609804302454,-0.05619960278272629,0.051312681287527084
1766400146237985500,7.664985595703125,0.0012217304902151227,-0.04642575979232788,0.0708603709936142
1766400146247964700,7.674964599609375,0.00366519158706069,-0.0403171069920063,0.028099801391363144
1766400146258005000,7.6850048828125,0.006108652334660292,-0.03298672288656235,-0.01710422709584236
1766400146288034300,7.715034423828125,-0.0024434609804302454,-0.02687807008624077,-0.015882495790719986
1766400146298044200,7.725044189453125,0.004886921960860491,-0.028099801391363144,0.00366519158706069
1766400146308053800,7.7350537109375,0.01466076634824276,-0.030543262138962746,0.004886921960860491
1766400146318124500,7.74512451171875,0.006108652334660292,-0.025656340643763542,0.0012217304902151227
1766400146328104000,7.75510400390625,0.006108652334660292,-0.02687807008624077,0.01466076634824276
1766400146338144300,7.765144287109375,0.010995574295520782,-0.02932153269648552,0.00733038317412138
1766400146348153900,7.77515380859375,0.004886921960860491,-0.0354301854968071,-0.03420845419168472
1766400146358224600,7.785224609375,-0.0012217304902151227,-0.039095375686883926,-0.059864792972803116
1766400146368234500,7.795234375,-0.019547687843441963,-0.0403171069920063,-0.039095375686883926
1766400146408273400,7.8352734375,-0.030543262138962746,-0.05497787147760391,0.05009094998240471
1766400146418313700,7.845313720703125,-0.0354301854968071,-0.05375614017248154,0.006108652334660292
1766400146428323600,7.855323486328125,-0.039095375686883926,-0.05253441259264946,0.0024434609804302454
1766400146438333400,7.86533349609375,-0.03176499158143997,-0.05009094998240471,0.010995574295520782
1766400146448343000,7.875343017578125,-0.015882495790719986,-0.04886921867728233,-0.0012217304902151227
1766400146458353000,7.885352783203125,-0.00733038317412138,-0.045204028487205505,-0.0354301854968071
1766400146468362800,7.89536279296875,-0.004886921960860491,-0.03176499158143997,-0.05619960278272629
1766400146478402800,7.90540283203125,0.004886921960860491,-0.02076941914856434,-0.04764748737215996
1766400146528512800,7.9555126953125,0.04886921867728233,0.00855211354792118,-0.03298672288656235
1766400146538522600,7.965522705078125,0.05375614017248154,0.00733038317412138,-0.0354301854968071
1766400146548532200,7.9755322265625,0.045204028487205505,0.006108652334660292,-0.04886921867728233
1766400146558542000,7.9855419921875,0.04764748737215996,-0.0012217304902151227,-0.06352998316287994
1766400146568552000,7.995552001953125,0.05497787147760391,-0.019547687843441963,-0.09407325088977814
1766400146578592300,8.00559228515625,0.04642575979232788,-0.02321287989616394,-0.13439035415649414
1766400146608652000,8.035652099609376,0.030543262138962746,-0.00733038317412138,-0.07819075137376785
1766400146618722800,8.045722900390626,0.02687807008624077,-0.0012217304902151227,-0.05497787147760391
1766400146628732400,8.055732421875,0.02932153269648552,-0.0024434609804302454,-0.02932153269648552
1766400146638772700,8.065772705078125,0.03298672288656235,0,-0.010995574295520782
1766400146648782600,8.075782470703125,0.03176499158143997,-0.004886921960860491,-0.00366519158706069
1766400146658792400,8.08579248046875,0.019547687843441963,-0.0012217304902151227,-0.010995574295520782
1766400146668802000,8.095802001953125,0.01710422709584236,-0.0012217304902151227,-0.018325956538319588
1766400146688821500,8.115821533203125,0.02076941914856434,-0.009773843921720982,-0.06352998316287994
1766400146718881500,8.145881591796876,0.010995574295520782,-0.02321287989616394,0.01710422709584236
1766400146728891100,8.15589111328125,0.0012217304902151227,-0.021991148591041565,0.0024434609804302454
1766400146738931500,8.165931396484375,0.00366519158706069,-0.021991148591041565,-0.02076941914856434
1766400146748880100,8.175880126953125,0.013439035043120384,-0.024434609338641167,-0.036651913076639175
1766400146758920400,8.18592041015625,0.012217304669320583,-0.024434609338641167,-0.04642575979232788
1766400146768930300,8.195930419921876,0.009773843921720982,-0.02321287989616394,-0.03787364438176155
1766400146778970600,8.205970703125,0.013439035043120384,-0.024434609338641167,-0.018325956538319588
1766400146788949800,8.21594970703125,0.019547687843441963,-0.024434609338641167,-0.019547687843441963
1766400146798990000,8.225989990234375,0.01710422709584236,-0.019547687843441963,-0.036651913076639175
1766400146829080300,8.256080322265625,0.013439035043120384,-0.015882495790719986,-0.05497787147760391
1766400146839120600,8.26612060546875,0.00366519158706069,-0.012217304669320583,-0.06352998316287994
1766400146849161000,8.276160888671875,-0.00733038317412138,-0.019547687843441963,-0.05619960278272629
1766400146859170800,8.2861708984375,-0.0012217304902151227,-0.02321287989616394,-0.04153883829712868
1766400146869150000,8.29614990234375,-0.00366519158706069,-0.019547687843441963,-0.036651913076639175
1766400146879220700,8.306220703125,-0.00855211354792118,-0.015882495790719986,-0.030543262138962746
1766400146889230600,8.316230712890626,-0.0024434609804302454,-0.01466076634824276,-0.012217304669320583
1766400146909219600,8.336219482421875,-0.0024434609804302454,-0.004886921960860491,0.00733038317412138
1766400146929300200,8.35630029296875,-0.00366519158706069,-0.00366519158706069,-0.01466076634824276
1766400146939340500,8.366340576171876,0.00366519158706069,-0.00855211354792118,-0.030543262138962746
1766400146949350100,8.37635009765625,0.010995574295520782,-0.013439035043120384,-0.04153883829712868
1766400146959360000,8.386360107421876,0.006108652334660292,-0.012217304669320583,-0.0659734457731247
1766400146969369600,8.39636962890625,0.0024434609804302454,-0.009773843921720982,-0.09162978827953339
1766400146979410000,8.406409912109375,0.013439035043120384,-0.00366519158706069,-0.10384709388017654
1766400146989419800,8.416419677734375,0.015882495790719986,0.0012217304902151227,-0.10995574295520782
1766400146999429600,8.4264296875,0.012217304669320583,0.00366519158706069,-0.09162978827953339
1766400147039499000,8.4664990234375,0.021991148591041565,0.006108652334660292,0.00855211354792118
1766400147049508900,8.4765087890625,0.01466076634824276,0.00733038317412138,-0.025656340643763542
1766400147059518700,8.486518798828126,0.02076941914856434,0.00855211354792118,-0.0659734457731247
1766400147069528300,8.4965283203125,0.021991148591041565,0.00733038317412138,-0.10384709388017654
1766400147079568600,8.506568603515625,0.019547687843441963,0.009773843921720982,-0.13561208546161652
1766400147089578500,8.51657861328125,0.02321287989616394,0.00733038317412138,-0.16371189057826996
1766400147099588400,8.52658837890625,0.02076941914856434,0.00855211354792118,-0.19058994948863983
1766400147139749400,8.566749267578125,0.00855211354792118,0.004886921960860491,-0.1563815027475357
1766400147149759200,8.57675927734375,0.0012217304902151227,0.00366519158706069,-0.15271630883216858
1766400147159799300,8.58679931640625,0.006108652334660292,0.00366519158706069,-0.1319468915462494
1766400147169809200,8.59680908203125,0.0024434609804302454,0.00733038317412138,-0.09896016865968704
1766400147179849500,8.606849365234375,0,0.012217304669320583,-0.06841690838336945
1766400147189859300,8.616859375,-0.006108652334660292,0.018325956538319588,-0.05009094998240471
1766400147199899400,8.6268994140625,-0.004886921960860491,0.02321287989616394,-0.0354301854968071
1766400147209909200,8.6369091796875,-0.0012217304902151227,0.02687807008624077,-0.013439035043120384
1766400147229898200,8.656898193359375,-0.00733038317412138,0.02687807008624077,0.05375614017248154
1766400147239969000,8.666968994140625,-0.0024434609804302454,0.02687807008624077,0.06352998316287994
1766400147249979000,8.676978759765625,0.0012217304902151227,0.024434609338641167,0.04398229718208313
1766400147259988700,8.68698876953125,0.00366519158706069,0.025656340643763542,0.02321287989616394
1766400147269998300,8.696998291015625,0.00855211354792118,0.019547687843441963,0.009773843921720982
1766400147280069000,8.707069091796875,0.013439035043120384,0.015882495790719986,-0.010995574295520782
1766400147290079000,8.717078857421875,0.015882495790719986,0.012217304669320583,-0.03176499158143997
1766400147300180200,8.72718017578125,0.015882495790719986,0.006108652334660292,-0.04886921867728233
1766400147330240000,8.757239990234375,0.024434609338641167,-0.004886921960860491,-0.06230825558304787
1766400147340280300,8.7672802734375,0.025656340643763542,-0.0012217304902151227,-0.03420845419168472
1766400147350290200,8.777290283203126,0.021991148591041565,0.0024434609804302454,-0.02076941914856434
1766400147360330500,8.78733056640625,0.025656340643763542,0.00366519158706069,-0.021991148591041565
1766400147370370800,8.797370849609376,0.024434609338641167,0.0024434609804302454,-0.042760565876960754
1766400147380411000,8.807410888671875,0.013439035043120384,0.00366519158706069,-0.0708603709936142
1766400147390420700,8.817420654296875,0.00366519158706069,0.00366519158706069,-0.07452555745840073
1766400147400522000,8.82752197265625,-0.0012217304902151227,0.004886921960860491,-0.04642575979232788
1766400147410531800,8.83753173828125,-0.006108652334660292,0.0012217304902151227,-0.006108652334660292
1766400147420572200,8.847572265625,-0.012217304669320583,0.0024434609804302454,0.015882495790719986
1766400147450601500,8.8776015625,-0.02321287989616394,-0.00733038317412138,0.0024434609804302454
1766400147460611000,8.887611083984375,-0.025656340643763542,-0.00733038317412138,-0.019547687843441963
1766400147470621000,8.897620849609375,-0.02932153269648552,-0.006108652334660292,-0.042760565876960754
1766400147480661200,8.9076611328125,-0.02932153269648552,-0.006108652334660292,-0.045204028487205505
1766400147490671000,8.917671142578126,-0.025656340643763542,-0.00733038317412138,-0.03787364438176155
1766400147500680700,8.9276806640625,-0.02932153269648552,-0.004886921960860491,-0.03420845419168472
1766400147510690600,8.937690673828126,-0.03176499158143997,-0.004886921960860491,-0.03298672288656235
1766400147540780800,8.96778076171875,-0.024434609338641167,-0.00855211354792118,-0.012217304669320583
1766400147550821000,8.977821044921875,-0.013439035043120384,-0.006108652334660292,0.015882495790719986
1766400147560831000,8.9878310546875,-0.01710422709584236,0,0.019547687843441963
1766400147570840600,8.997840576171875,-0.012217304669320583,0.004886921960860491,0.01710422709584236
1766400147580881000,9.007880859375,-0.0012217304902151227,0.006108652334660292,0.00855211354792118
1766400147590921200,9.017921142578125,0,0.010995574295520782,-0.00855211354792118
1766400147600992000,9.027991943359375,-0.006108652334660292,0.015882495790719986,-0.021991148591041565
1766400147611001900,9.038001953125,-0.00855211354792118,0.01710422709584236,-0.01466076634824276
1766400147621011500,9.048011474609375,-0.009773843921720982,0.01710422709584236,-0.00366519158706069
1766400147631051800,9.0580517578125,-0.010995574295520782,0.021991148591041565,0
1766400147661111600,9.088111572265625,-0.015882495790719986,0.021991148591041565,-0.019547687843441963
1766400147671121400,9.098121337890625,-0.00366519158706069,0.018325956538319588,-0.01710422709584236
1766400147681161700,9.10816162109375,0.0024434609804302454,0.019547687843441963,-0.015882495790719986
1766400147691171600,9.118171630859376,-0.0012217304902151227,0.025656340643763542,0
1766400147701211600,9.128211669921875,0.0024434609804302454,0.03298672288656235,0.03298672288656235
1766400147711221500,9.138221435546875,0.004886921960860491,0.036651913076639175,0.039095375686883926
1766400147721261800,9.14826171875,0.00855211354792118,0.036651913076639175,0.021991148591041565
1766400147731302100,9.15830224609375,0.00733038317412138,0.03787364438176155,-0.0012217304902151227
1766400147741311700,9.168311767578125,0.006108652334660292,0.036651913076639175,-0.013439035043120384
1766400147771402200,9.19840234375,0.00366519158706069,0.025656340643763542,-0.030543262138962746
1766400147781442600,9.208442626953126,0.00366519158706069,0.025656340643763542,-0.02932153269648552
1766400147791452200,9.2184521484375,0.00366519158706069,0.025656340643763542,-0.02932153269648552
1766400147801523000,9.22852294921875,0.006108652334660292,0.024434609338641167,-0.01710422709584236
1766400147811532800,9.23853271484375,-0.0012217304902151227,0.02321287989616394,-0.009773843921720982
1766400147821573000,9.248572998046875,-0.006108652334660292,0.02321287989616394,0.004886921960860491
1766400147831583000,9.2585830078125,0.0024434609804302454,0.021991148591041565,0.018325956538319588
1766400147841653800,9.26865380859375,0.0024434609804302454,0.02321287989616394,0.024434609338641167
1766400147851663400,9.278663330078125,0.00855211354792118,0.02321287989616394,0.03298672288656235
1766400147871744000,9.298743896484375,0.004886921960860491,0.02076941914856434,0.00855211354792118
1766400147881784300,9.308784423828126,0.015882495790719986,0.02076941914856434,-0.00733038317412138
1766400147891794000,9.3187939453125,0.01466076634824276,0.021991148591041565,-0.039095375686883926
1766400147901865000,9.328864990234376,0.010995574295520782,0.025656340643763542,-0.05864306539297104
1766400147911905000,9.338905029296875,0.010995574295520782,0.02076941914856434,-0.04642575979232788
1766400147921915000,9.348914794921875,0.00733038317412138,0.02076941914856434,-0.024434609338641167
1766400147931955200,9.358955078125,0,0.02076941914856434,-0.0024434609804302454
1766400147941995500,9.36899560546875,-0.00366519158706069,0.015882495790719986,0.00366519158706069
1766400147952066300,9.37906640625,-0.010995574295520782,0.015882495790719986,-0.006108652334660292
1766400147962106600,9.389106689453126,-0.012217304669320583,0.015882495790719986,-0.00366519158706069
1766400147972116200,9.3991162109375,-0.009773843921720982,0.01466076634824276,0.012217304669320583
1766400147982187000,9.40918701171875,-0.00855211354792118,0.01466076634824276,0.018325956538319588
1766400147992196900,9.41919677734375,-0.012217304669320583,0.015882495790719986,0.01466076634824276
1766400148002267600,9.429267578125,-0.004886921960860491,0.012217304669320583,0.012217304669320583
1766400148012308000,9.439307861328125,0.00733038317412138,0.006108652334660292,0
1766400148022317800,9.44931787109375,0.009773843921720982,0.004886921960860491,-0.015882495790719986
1766400148032358000,9.45935791015625,0.019547687843441963,0.004886921960860491,-0.02076941914856434
1766400148042398200,9.469398193359375,0.02687807008624077,0.00366519158706069,-0.02932153269648552
1766400148052438500,9.4794384765625,0.03298672288656235,0.006108652334660292,-0.04642575979232788
1766400148072488700,9.49948876953125,0.02932153269648552,0.00855211354792118,-0.06475171446800232
1766400148092538600,9.51953857421875,0.028099801391363144,0.009773843921720982,-0.028099801391363144
1766400148122629000,9.549629150390626,0.042760565876960754,-0.0024434609804302454,-0.01466076634824276
1766400148142679000,9.569678955078125,0.04886921867728233,-0.013439035043120384,-0.028099801391363144
1766400148152689000,9.57968896484375,0.05009094998240471,-0.018325956538319588,-0.0403171069920063
1766400148172708400,9.599708251953125,0.04886921867728233,-0.021991148591041565,-0.07819075137376785
1766400148182748700,9.609748779296876,0.0403171069920063,-0.02321287989616394,-0.1014036312699318
1766400148192789000,9.6197890625,0.03298672288656235,-0.025656340643763542,-0.10262536257505417
1766400148202829300,9.629829345703126,0.03787364438176155,-0.03176499158143997,-0.08796459436416626
1766400148212808400,9.639808349609375,0.03298672288656235,-0.030543262138962746,-0.0757472887635231
1766400148222848800,9.649848876953126,0.02932153269648552,-0.02932153269648552,-0.05497787147760391
1766400148232858400,9.6598583984375,0.039095375686883926,-0.02932153269648552,-0.02932153269648552
1766400148242898700,9.669898681640625,0.0354301854968071,-0.018325956538319588,-0.028099801391363144
1766400148252908500,9.679908447265625,0.02321287989616394,-0.00855211354792118,-0.025656340643763542
1766400148262918400,9.68991845703125,0.02321287989616394,-0.010995574295520782,-0.012217304669320583
1766400148272928000,9.699927978515625,0.01466076634824276,-0.015882495790719986,-0.025656340643763542
1766400148293008600,9.720008544921875,0.012217304669320583,-0.02687807008624077,-0.05742133408784866
1766400148303049000,9.730049072265626,0.010995574295520782,-0.030543262138962746,-0.059864792972803116
1766400148313058800,9.740058837890626,0.00733038317412138,-0.030543262138962746,-0.05375614017248154
1766400148323099000,9.750098876953125,0.00366519158706069,-0.02932153269648552,-0.02932153269648552
1766400148333169700,9.760169677734375,0.00733038317412138,-0.02932153269648552,-0.00366519158706069
1766400148343179500,9.770179443359375,0.00733038317412138,-0.028099801391363144,0
1766400148353189400,9.780189453125,0.0024434609804302454,-0.028099801391363144,-0.010995574295520782
1766400148363199000,9.790198974609375,0.0012217304902151227,-0.030543262138962746,-0.015882495790719986
1766400148413369900,9.840369873046875,-0.0012217304902151227,-0.021991148591041565,-0.012217304669320583
1766400148423410200,9.85041015625,0.0012217304902151227,-0.02076941914856434,-0.0024434609804302454
1766400148433420000,9.860419921875,0.0012217304902151227,-0.02076941914856434,-0.01466076634824276
1766400148443460400,9.87046044921875,0.0024434609804302454,-0.02321287989616394,-0.03420845419168472
1766400148453470000,9.880469970703125,0.0024434609804302454,-0.02321287989616394,-0.051312681287527084
1766400148463541000,9.890541015625,0,-0.02321287989616394,-0.06230825558304787
1766400148473550600,9.900550537109375,-0.0024434609804302454,-0.02321287989616394,-0.05742133408784866
1766400148483591000,9.9105908203125,-0.0024434609804302454,-0.02321287989616394,-0.0354301854968071
1766400148493600800,9.920600830078126,-0.00855211354792118,-0.024434609338641167,-0.019547687843441963
1766400148523721500,9.950721435546875,-0.015882495790719986,-0.021991148591041565,-0.019547687843441963
1766400148533731300,9.9607314453125,-0.01466076634824276,-0.021991148591041565,-0.03298672288656235
1766400148543771600,9.970771728515626,-0.015882495790719986,-0.024434609338641167,-0.05009094998240471
1766400148553781200,9.98078125,-0.018325956538319588,-0.02321287989616394,-0.06352998316287994
1766400148563821600,9.990821533203125,-0.010995574295520782,-0.021991148591041565,-0.05497787147760391
1766400148573831400,10.00083154296875,-0.013439035043120384,-0.02321287989616394,-0.04886921867728233
1766400148613962000,10.0409619140625,-0.010995574295520782,-0.019547687843441963,-0.0403171069920063
1766400148624002300,10.051002197265625,-0.012217304669320583,-0.01466076634824276,-0.03787364438176155
1766400148644052200,10.07105224609375,-0.0024434609804302454,-0.009773843921720982,-0.04153883829712868
1766400148654062000,10.08106201171875,-0.006108652334660292,-0.00733038317412138,-0.05253441259264946
1766400148664072000,10.091072021484376,-0.00733038317412138,-0.006108652334660292,-0.051312681287527084
1766400148674112300,10.1011123046875,-0.0024434609804302454,-0.00366519158706069,-0.04886921867728233
1766400148684183000,10.11118310546875,-0.004886921960860491,-0.0024434609804302454,-0.04764748737215996
1766400148714303700,10.1413037109375,0.0024434609804302454,-0.00366519158706069,-0.02321287989616394
1766400148724313600,10.151313720703126,0,-0.0024434609804302454,-0.03176499158143997
1766400148734354000,10.16135400390625,0.00366519158706069,-0.0024434609804302454,-0.042760565876960754
1766400148744363500,10.171363525390625,0.004886921960860491,0,-0.05742133408784866
1766400148754403800,10.18140380859375,0.006108652334660292,-0.0024434609804302454,-0.0659734457731247
1766400148764444200,10.191444091796875,0.0024434609804302454,0,-0.0757472887635231
1766400148774423600,10.201423583984376,-0.006108652334660292,0.006108652334660292,-0.06963863968849182
1766400148784463600,10.211463623046875,0,0.006108652334660292,-0.039095375686883926
1766400148814493000,10.241492919921875,-0.00733038317412138,0.0012217304902151227,-0.019547687843441963
1766400148844552700,10.271552734375,-0.00855211354792118,-0.004886921960860491,-0.021991148591041565
1766400148854593000,10.281593017578125,-0.004886921960860491,-0.012217304669320583,-0.02687807008624077
1766400148864603000,10.291602783203125,-0.006108652334660292,-0.01466076634824276,-0.03787364438176155
1766400148874643200,10.301643310546876,-0.009773843921720982,-0.015882495790719986,-0.039095375686883926
1766400148884683500,10.31168359375,-0.006108652334660292,-0.015882495790719986,-0.01466076634824276
1766400148914773800,10.341773681640625,-0.006108652334660292,-0.009773843921720982,0.0024434609804302454
1766400148924783600,10.35178369140625,0.0024434609804302454,-0.010995574295520782,0
1766400148934824000,10.361823974609376,0.0024434609804302454,-0.009773843921720982,-0.00855211354792118
1766400148944864000,10.371864013671875,0.006108652334660292,-0.00733038317412138,-0.00855211354792118
1766400148954873900,10.381873779296875,0.0024434609804302454,-0.00366519158706069,0
1766400148964914200,10.3919140625,0.00733038317412138,0,0.018325956538319588
1766400148974924000,10.401924072265626,0.006108652334660292,0.0024434609804302454,0.024434609338641167
