time,seconds_elapsed,z,y,x
1766400136982614300,-1.5903857421875,0.12689268589019775,-0.05267243832349777,-0.08619125932455063
1766400137012674000,-1.560325927734375,0.15083470940589905,0.0071826050989329815,-0.019153613597154617
1766400137022684000,-1.550316162109375,0.11252748221158981,0.08379705995321274,-0.0694318488240242
1766400137032724200,-1.54027587890625,0.07661445438861847,-0.06224924325942993,-0.07661445438861847
1766400137042734000,-1.530265869140625,-0.002394201699644327,0.009576806798577309,0.0071826050989329815
1766400137052804900,-1.520195068359375,-0.021547814831137657,0.014365210197865963,0.028730420395731926
1766400137062814500,-1.510185546875,0.05267243832349777,0.181959331035614,0.05506663769483566
1766400137072824300,-1.50017578125,0.16519992053508759,0.12210428714752197,0.10055647045373917
1766400137082834200,-1.490165771484375,0.18914192914962769,-0.011971008032560349,0.11252748221158981
1766400137092874200,-1.480125732421875,0.14365209639072418,0.07900865375995636,-0.016759412363171577
1766400137122995200,-1.4500048828125,0.2059013396501541,-0.10773907601833344,-0.08858546614646912
1766400137133035500,-1.439964599609375,0.2082955539226532,-0.14844051003456116,0.07900865375995636
1766400137143045400,-1.42995458984375,0.2537853717803955,-0.11252748221158981,0.047884032130241394
1766400137153055000,-1.419945068359375,0.31603461503982544,-0.038307227194309235,0.021547814831137657
1766400137163064800,-1.40993505859375,0.21547815203666687,0,0.028730420395731926
1766400137173105200,-1.399894775390625,0.2322375625371933,-0.014365210197865963,0.0933738648891449
1766400137183114800,-1.38988525390625,0.2082955539226532,-0.09816227108240128,0.0933738648891449
1766400137193185500,-1.379814453125,0.1412578970193863,0.019153613597154617,0.0454898327589035
1766400137203225900,-1.369774169921875,0.12689268589019775,0.07661445438861847,0.09816227108240128
1766400137213266200,-1.35973388671875,0.15562310814857483,-0.11252748221158981,0.10773907601833344
1766400137243295500,-1.32970458984375,0.15322890877723694,-0.004788403399288654,0.004788403399288654
1766400137253335800,-1.319664306640625,0.12210428714752197,-0.1604115068912506,-0.07661445438861847
1766400137263345700,-1.309654296875,0.19871874153614044,0.047884032130241394,-0.06703764945268631
1766400137273355300,-1.299644775390625,0.2346317619085312,-0.0454898327589035,-0.10773907601833344
1766400137283365000,-1.289634765625,0.2322375625371933,-0.12449848651885986,-0.1149216815829277
1766400137293375000,-1.279625,0.17238251864910126,-0.033518824726343155,-0.019153613597154617
1766400137353433300,-1.219566650390625,0.1388636976480484,-0.028730420395731926,-0.181959331035614
1766400137363473700,-1.2095263671875,0.15801730751991272,-0.06703764945268631,-0.07182604819536209
1766400137373483500,-1.1995166015625,0.2059013396501541,-0.028730420395731926,-0.08619125932455063
1766400137383493400,-1.189506591796875,0.19871874153614044,-0.0694318488240242,-0.047884032130241394
1766400137393503000,-1.1794970703125,0.1867477297782898,0.15083470940589905,0.033518824726343155
1766400137403512800,-1.169487060546875,0.181959331035614,0.06224924325942993,0.13407529890537262
1766400137423593500,-1.149406494140625,0.26336219906806946,-0.09576806426048279,0.016759412363171577
1766400137433603000,-1.13939697265625,0.26336219906806946,-0.09816227108240128,-0.014365210197865963
1766400137443613000,-1.129386962890625,0.22744916379451752,-0.07422025501728058,-0.019153613597154617
1766400137453653200,-1.1193466796875,0.15801730751991272,-0.043095629662275314,0.021547814831137657
1766400137463662800,-1.109337158203125,0.08619125932455063,-0.17238251864910126,-0.023942016065120697
1766400137473672700,-1.099327392578125,0.021547814831137657,-0.05027823522686958,0.06703764945268631
1766400137483713000,-1.089286865234375,0.09816227108240128,-0.040701430290937424,0.06224924325942993
1766400137493753300,-1.07924658203125,-0.014365210197865963,-0.009576806798577309,0.033518824726343155
1766400137503763000,-1.069237060546875,0.026336219161748886,0.07661445438861847,-0.014365210197865963
1766400137513772800,-1.059227294921875,0.0933738648891449,-0.040701430290937424,-0.14604631066322327
1766400137533823000,-1.039177001953125,0,-0.22505496442317963,-0.035913024097681046
1766400137553812000,-1.01918798828125,0.12449848651885986,-0.08619125932455063,-0.10773907601833344
1766400137573862000,-0.99913818359375,0.12689268589019775,0.031124621629714966,0.12689268589019775
1766400137583871700,-0.989128173828125,0.07182604819536209,-0.08379705995321274,0.09816227108240128
1766400137593912000,-0.979087890625,0.15801730751991272,-0.12928688526153564,0.1388636976480484
1766400137603952000,-0.9690478515625,0.14365209639072418,-0.033518824726343155,0.011971008032560349
1766400137613992400,-0.959007568359375,0.16519992053508759,-0.009576806798577309,-0.08379705995321274
1766400137654062000,-0.91893798828125,0.24420857429504395,-0.15322890877723694,0.05027823522686958
1766400137664102400,-0.908897705078125,0.2825157940387726,0.0071826050989329815,0.07182604819536209
1766400137674112300,-0.8988876953125,0.2825157940387726,0.0071826050989329815,0.07182604819536209
1766400137684121900,-0.888878173828125,0.2992752194404602,0.014365210197865963,0.12449848651885986
1766400137694162200,-0.878837890625,0.272938996553421,0.1388636976480484,0.19153612852096558
1766400137704172000,-0.868827880859375,0.2346317619085312,0.05746084079146385,-0.011971008032560349
1766400137714181600,-0.858818359375,0.2561795711517334,-0.07900865375995636,0.06224924325942993
1766400137744241700,-0.82875830078125,0.1843535304069519,-0.15083470940589905,-0.07900865375995636
1766400137754251300,-0.818748779296875,0.15322890877723694,0.06703764945268631,-0.019153613597154617
1766400137764291600,-0.80870849609375,0.15562310814857483,-0.05027823522686958,-0.009576806798577309
1766400137774301400,-0.798698486328125,0.19153612852096558,-0.12689268589019775,-0.035913024097681046
1766400137784311000,-0.78868896484375,0.16519992053508759,-0.026336219161748886,0.0694318488240242
1766400137794321000,-0.77867919921875,0.1604115068912506,-0.07422025501728058,0.06224924325942993
1766400137804361200,-0.768638671875,0.0694318488240242,0.1364694982767105,0.05506663769483566
1766400137814401500,-0.758598388671875,0.05506663769483566,-0.1604115068912506,-0.011971008032560349
1766400137824411100,-0.7485888671875,0.06703764945268631,-0.17477671802043915,-0.019153613597154617
1766400137834421000,-0.7385791015625,0.07182604819536209,0,0.0694318488240242
1766400137854501600,-0.718498291015625,0.038307227194309235,-0.035913024097681046,-0.0454898327589035
1766400137864511200,-0.70848876953125,0.1388636976480484,0.06703764945268631,0.031124621629714966
1766400137874490600,-0.69850927734375,0.07182604819536209,-0.05027823522686958,-0.016759412363171577
1766400137884531000,-0.688468994140625,0.033518824726343155,-0.12210428714752197,-0.13407529890537262
1766400137894571300,-0.6784287109375,0.028730420395731926,-0.06464344263076782,-0.06464344263076782
1766400137904580900,-0.668419189453125,0.009576806798577309,-0.08619125932455063,-0.014365210197865963
1766400137914560300,-0.658439697265625,0.019153613597154617,0,0
1766400137924600300,-0.648399658203125,0.05027823522686958,-0.16759411990642548,0.08619125932455063
1766400137944620000,-0.6283798828125,0.19393034279346466,-0.07182604819536209,0.026336219161748886
1766400137954629600,-0.618370361328125,0.2298433631658554,0,0.08858546614646912
1766400137964639500,-0.608360595703125,0.2106897532939911,0.10295066982507706,0.0933738648891449
1766400137974649300,-0.5983505859375,0.23942017555236816,0.08379705995321274,0.14604631066322327
1766400137984689700,-0.588310302734375,0.10773907601833344,-0.15083470940589905,0.004788403399288654
1766400137994699300,-0.57830078125,0.07422025501728058,0.021547814831137657,-0.1149216815829277
1766400138004709000,-0.568290771484375,0.026336219161748886,-0.002394201699644327,-0.1149216815829277
1766400138014718700,-0.55828125,0.004788403399288654,0.0694318488240242,-0.07182604819536209
1766400138024728600,-0.548271484375,-0.031124621629714966,0.1867477297782898,0.014365210197865963
1766400138054758000,-0.5182421875,-0.5482721924781799,0.43095630407333374,0.021547814831137657
1766400138064767700,-0.508232177734375,-0.7589619159698486,0.40462008118629456,-0.10055647045373917
1766400138074808000,-0.49819189453125,-1.01753568649292,0.40462008118629456,-0.17477671802043915
1766400138084848000,-0.48815185546875,-1.2521674633026123,0.4908113479614258,-0.3256114423274994
1766400138094888400,-0.478111572265625,-1.5610195398330688,0.5650315880775452,-0.12928688526153564
1766400138104867800,-0.468132080078125,-1.9393033981323242,0.9840168952941895,-0.0454898327589035
1766400138114877400,-0.45812255859375,-2.557007312774658,1.278503656387329,0.05746084079146385
1766400138124917800,-0.448082275390625,-2.7126305103302,1.4963760375976562,-0.3208230137825012
1766400138134927600,-0.438072265625,-2.8443117141723633,1.479616641998291,-0.009576806798577309
1766400138154947000,-0.418052978515625,-4.094084739685059,-0.272938996553421,-0.7326257228851318
1766400138164987400,-0.4080126953125,-2.9759926795959473,0.507570743560791,1.4173674583435059
1766400138174997200,-0.398002685546875,-2.978386878967285,-0.768538773059845,-0.5171475410461426
1766400138195077600,-0.37792236328125,-2.22660756111145,-0.8164227604866028,0.3998316824436188
1766400138205087500,-0.36791259765625,-1.6208745241165161,-0.8930372595787048,0.8140285611152649
1766400138215097300,-0.357902587890625,-1.1228805780410767,-0.9983820915222168,0.4165911078453064
1766400138225107000,-0.34789306640625,-0.7206547260284424,-0.7350199222564697,0.12210428714752197
1766400138335336400,-0.23766357421875,-2.6216509342193604,-1.7717092037200928,-1.0654197931289673
1766400138345346300,-0.22765380859375,-2.3367409706115723,-1.1755530834197998,-0.7350199222564697
1766400138355386600,-0.21761328125,-2.274491548538208,0.19632454216480255,0.031124621629714966
1766400138375467300,-0.19753271484375,-2.561795711517334,1.5729905366897583,0.09576806426048279
1766400138385446400,-0.1875537109375,-2.6623523235321045,0.3447650372982025,0.16759411990642548
1766400138410531800,-0.16246826171875,-2.580949544906616,-0.4429273009300232,-0.08379705995321274
1766400138430551300,-0.14244873046875,0.2849099934101105,-1.0199298858642578,-0.8068459630012512
1766400138440591600,-0.132408447265625,0.4644751250743866,-0.9026140570640564,-1.4317326545715332
1766400138450571000,-0.122428955078125,0.8858546018600464,-1.3431471586227417,-1.048660397529602
1766400138490671000,-0.082328857421875,0.8140285611152649,-1.094150185585022,-1.1085153818130493
1766400138500711200,-0.072288818359375,0.6033388376235962,-0.7110779285430908,-1.4484920501708984
1766400138510721000,-0.062279052734375,0.47644615173339844,0.06703764945268631,-1.434126853942871
1766400138520731000,-0.05226904296875,0.5219359993934631,-0.05506663769483566,-1.2114660739898682
1766400138570901800,-0.00209814453125,0.5530605912208557,-3.77565598487854,-1.5322890281677246
1766400138600961500,0.02796142578125,1.1348515748977661,-1.1899182796478271,-1.2689268589019775
1766400138610971400,0.037971435546875,1.1085153818130493,-0.2298433631658554,-0.8188169598579407
1766400138621011500,0.048011474609375,1.1875240802764893,0.31842881441116333,-0.811634361743927
1766400138681192200,0.108192138671875,1.7070658206939697,-0.26096799969673157,-0.7613561153411865
1766400138721292300,0.148292236328125,1.4197616577148438,1.015141487121582,-0.181959331035614
1766400138761453600,0.18845361328125,0.10773907601833344,2.387019157409668,0.12689268589019775
1766400138821603600,0.248603515625,-1.436521053314209,0.2777273952960968,-1.0558429956436157
1766400138831674400,0.25867431640625,-1.4724340438842773,0.5961562395095825,-1.094150185585022
1766400138911874600,0.33887451171875,-2.7006595134735107,-1.6663644313812256,-0.8954314589500427
1766400138951974700,0.378974609375,-1.9177556037902832,-1.400607943534851,-0.1364694982767105
1766400138971994000,0.398994140625,-1.335964560508728,-1.8602946996688843,-0.1364694982767105
1766400138992074800,0.41907470703125,-0.2849099934101105,0.19632454216480255,0.014365210197865963
1766400139002084600,0.429084716796875,0.3734954595565796,0.811634361743927,-0.07661445438861847
1766400139012094200,0.43909423828125,0.7038952708244324,1.0271124839782715,-0.33758243918418884
1766400139022134500,0.449134521484375,0.8834604024887085,1.05105459690094,-0.5003881454467773
1766400139032114000,0.459114013671875,0.8379706144332886,1.1444283723831177,-0.35434186458587646
1766400139052133400,0.47913330078125,0.40701428055763245,1.4844050407409668,0.10295066982507706
1766400139062173700,0.489173583984375,0.1149216815829277,1.8698714971542358,0.2106897532939911
1766400139112283600,0.53928369140625,-1.0127472877502441,1.534683346748352,-0.035913024097681046
1766400139122323700,0.54932373046875,-1.3646949529647827,1.338358759880066,0.1412578970193863
1766400139132333600,0.55933349609375,-1.5825673341751099,1.3215993642807007,0.3064578175544739
1766400139142374000,0.569373779296875,-1.7381904125213623,1.2689268589019775,0.395043283700943
1766400139152475100,0.57947509765625,-1.5873557329177856,1.1037269830703735,0.3423708379268646
1766400139162454500,0.58945458984375,-1.3287819623947144,1.0989385843276978,0.3016694188117981
1766400139172464000,0.599464111328125,-0.9169792532920837,0.9409212470054626,0.19871874153614044
1766400139182474000,0.609473876953125,-0.6153098344802856,0.8547300100326538,0.028730420395731926
1766400139192483800,0.61948388671875,-0.38067805767059326,1.0558429956436157,-0.08858546614646912
1766400139202493400,0.629493408203125,-0.2346317619085312,1.2737152576446533,-0.002394201699644327
1766400139212503300,0.63950341796875,-0.2082955539226532,1.3192051649093628,-0.07900865375995636
1766400139222513200,0.64951318359375,-0.40940847992897034,1.0007762908935547,-0.021547814831137657
1766400139232492300,0.6594921875,-0.5315127968788147,0.5626373887062073,-0.20111294090747833
1766400139242532600,0.66953271484375,-0.6368576288223267,0.20350714027881622,-0.3232172429561615
1766400139262582500,0.68958251953125,-0.6512228846549988,0.35913026332855225,-0.7374141216278076
1766400139272592400,0.69959228515625,-0.6009446382522583,0.5267243981361389,-0.9074024558067322
1766400139282663200,0.7096630859375,-0.8810662031173706,0.49559974670410156,-0.9888052940368652
1766400139292673000,0.719673095703125,-1.194706678390503,-0.07661445438861847,-1.0223240852355957
1766400139302713300,0.72971337890625,-1.3934253454208374,-0.7350199222564697,-1.1659762859344482
1766400139312692500,0.7396923828125,-1.4772224426269531,-0.6847416758537292,-1.2665326595306396
1766400139322732800,0.74973291015625,-1.3623007535934448,-0.1867477297782898,-1.173158884048462
1766400139332742700,0.75974267578125,-1.213860273361206,0.2082955539226532,-1.1013327836990356
1766400139342782700,0.76978271484375,-1.0678139925003052,0.26575639843940735,-1.048660397529602
1766400139372812000,0.79981201171875,-1.3982137441635132,-0.2849099934101105,-1.2689268589019775
1766400139382822000,0.80982177734375,-1.4173674583435059,-0.43095630407333374,-1.357512354850769
1766400139392831700,0.819831787109375,-1.45806884765625,-0.272938996553421,-1.4437036514282227
1766400139402841300,0.82984130859375,-1.4628572463989258,-0.14365209639072418,-1.2425906658172607
1766400139412851200,0.839851318359375,-1.3862427473068237,0.019153613597154617,-1.1228805780410767
1766400139422861000,0.849861083984375,-1.259350061416626,0.033518824726343155,-1.3072341680526733
1766400139432840200,0.859840087890625,-1.4652514457702637,-0.031124621629714966,-1.3335703611373901
1766400139442880500,0.869880615234375,-1.53707754611969,-0.6512228846549988,-1.3551181554794312
1766400139472940300,0.899940185546875,-1.0055646896362305,-0.40462008118629456,-1.115697979927063
1766400139482980600,0.909980712890625,-0.9265560507774353,-0.22505496442317963,-0.9552865028381348
1766400139493021000,0.92002099609375,-0.9361328482627869,-0.24420857429504395,-0.993593692779541
1766400139503030500,0.930030517578125,-1.05105459690094,-0.5027823448181152,-1.1300631761550903
1766400139513010000,0.940010009765625,-1.1348515748977661,-0.569819986820221,-1.137245774269104
1766400139523080700,0.950080810546875,-1.0869675874710083,-0.5793967843055725,-1.0055646896362305
1766400139533090300,0.96009033203125,-1.0462661981582642,-0.5147533416748047,-0.8954314589500427
1766400139543130600,0.970130615234375,-1.0223240852355957,-0.5267243981361389,-0.9026140570640564
1766400139573190400,1.0001904296875,-0.8164227604866028,-0.6655880808830261,-0.8834604024887085
1766400139583230700,1.010230712890625,-0.8068459630012512,-0.6967126727104187,-0.9241618514060974
1766400139593240600,1.020240478515625,-0.8451532125473022,-0.7876923680305481,-0.933738648891449
1766400139603250400,1.03025048828125,-0.9193734526634216,-0.6560112833976746,-0.8068459630012512
1766400139613260000,1.040260009765625,-0.9600749015808105,-0.811634361743927,-0.6967126727104187
1766400139623270000,1.050269775390625,-1.0127472877502441,-0.9433154463768005,-0.5722141861915588
1766400139633279700,1.06027978515625,-0.912190854549408,-1.1659762859344482,-0.48602294921875
1766400139643319800,1.07031982421875,-0.8092401623725891,-1.0031704902648926,-0.3998316824436188
1766400139653329700,1.08032958984375,-0.7038952708244324,-0.7398083209991455,-0.4620809257030487
1766400139673349000,1.10034912109375,-0.15322890877723694,-0.7565677165985107,-0.6536170840263367
1766400139683389400,1.110389404296875,0.014365210197865963,-1.1875240802764893,-0.790086567401886
1766400139693399300,1.1203994140625,0.014365210197865963,-1.656787633895874,-1.0773907899856567
1766400139713480000,1.14047998046875,0.14844051003456116,-2.765302896499634,-1.8171991109848022
1766400139723550700,1.15055078125,0.4165911078453064,-2.75812029838562,-2.0231003761291504
1766400139733591000,1.160591064453125,0.5722141861915588,-2.4396915435791016,-2.22660756111145
1766400139743600600,1.1706005859375,0.5267243981361389,-2.319981336593628,-2.3726539611816406
1766400139753610500,1.180610595703125,0.35673606395721436,-2.470816135406494,-2.4013843536376953
1766400139763650800,1.19065087890625,0.12689268589019775,-2.8658595085144043,-2.126051187515259
1766400139773660400,1.200660400390625,0.24899697303771973,-3.1316158771514893,-1.9297266006469727
1766400139783731200,1.210731201171875,0.6177040338516235,-3.581725835800171,-1.8267759084701538
1766400139793710600,1.220710693359375,0.9648633003234863,-3.84269380569458,-1.9057846069335938
1766400139803781400,1.230781494140625,1.314416766166687,-3.9049429893493652,-1.9704279899597168
1766400139813821700,1.24082177734375,1.5705963373184204,-3.4332852363586426,-1.8411411046981812
1766400139823862000,1.250862060546875,1.8076223134994507,-2.631227731704712,-1.9967641830444336
1766400139833841200,1.260841064453125,1.845929503440857,-2.2146365642547607,-2.1763293743133545
1766400139843881500,1.270881591796875,1.6208745241165161,-2.896984100341797,-2.3942017555236816
1766400139853891300,1.280891357421875,1.2330138683319092,-3.335123062133789,-2.3702597618103027
1766400139863901000,1.29090087890625,1.01753568649292,-3.043030261993408,-2.0901381969451904
1766400139883920400,1.31092041015625,0.4644751250743866,-1.86508309841156,-1.6304513216018677
1766400139903940000,1.330940185546875,-0.5985504388809204,-2.188300371170044,-1.9177556037902832
1766400139913949700,1.34094970703125,-0.7661445140838623,-2.070984363555908,-2.0374655723571777
1766400139923959600,1.35095947265625,-0.912190854549408,-1.403002142906189,-2.051830768585205
1766400139933969400,1.360969482421875,-0.9672574996948242,-0.8786720037460327,-1.9752163887023926
1766400139944009700,1.371009765625,-1.015141487121582,-0.8092401623725891,-2.0614075660705566
1766400139953988900,1.38098876953125,-1.091755986213684,-0.7158663272857666,-2.2170307636260986
1766400139964029200,1.391029296875,-1.292868971824646,-0.5027823448181152,-2.454056739807129
1766400139974039000,1.4010390625,-1.2018892765045166,-0.3447650372982025,-2.6001031398773193
1766400140004098800,1.431098876953125,-2.0374655723571777,-0.3687070608139038,-2.7509377002716064
1766400140014108400,1.4411083984375,-2.2409727573394775,-0.15083470940589905,-3.1196448802948
1766400140024118300,1.4511181640625,-2.456450939178467,-0.028730420395731926,-3.3734302520751953
1766400140034128100,1.461128173828125,-2.7030537128448486,0.4572925269603729,-3.2824504375457764
1766400140044168200,1.471168212890625,-2.6240451335906982,1.1779472827911377,-3.0885202884674072
1766400140054178000,1.481177978515625,-2.3918075561523438,1.4293384552001953,-2.8826189041137695
1766400140064218400,1.49121826171875,-2.3127987384796143,1.41257905960083,-2.5905263423919678
1766400140074258700,1.5012587890625,-2.3080103397369385,1.9105730056762695,-2.6216509342193604
1766400140094278100,1.521278076171875,-2.82515811920166,3.3949780464172363,-2.5282769203186035
1766400140124429600,1.5514296875,-4.627991676330566,2.9544448852539062,-2.3726539611816406
1766400140134408700,1.56140869140625,-4.350264549255371,2.628833532333374,-2.250549554824829
1766400140144418600,1.57141845703125,-3.8379054069519043,2.2601263523101807,-2.3511061668395996
1766400140154428400,1.581428466796875,-3.4165258407592773,1.9033904075622559,-2.4181437492370605
1766400140164468500,1.591468505859375,-3.1651346683502197,0.6440402865409851,-2.5282769203186035
1766400140174478300,1.601478271484375,-3.292027235031128,-0.3926490843296051,-2.166752576828003
1766400140224618800,1.65161865234375,-1.5155296325683594,1.886630892753601,-0.6991068720817566
1766400140234628600,1.661628662109375,-1.9967641830444336,1.1180921792984009,-0.363918662071228
1766400140244638200,1.67163818359375,-2.583343744277954,0.1843535304069519,0.22505496442317963
1766400140254648000,1.68164794921875,-2.248155355453491,-0.26096799969673157,0.4884171485900879
1766400140264688400,1.6916884765625,1.4317326545715332,0.1388636976480484,-0.3471592366695404
1766400140274667500,1.70166748046875,2.049436569213867,-1.01753568649292,-1.0989385843276978
1766400140284707800,1.711707763671875,2.1356279850006104,-1.0773907899856567,-1.070208191871643
1766400140294717700,1.7217177734375,-0.17477671802043915,-1.5394717454910278,0.8307880163192749
1766400140304788500,1.73178857421875,0.6799532771110535,-0.24899697303771973,1.7286136150360107
1766400140334848300,1.76184814453125,1.4293384552001953,-0.9816226959228516,1.8962076902389526
1766400140344888600,1.771888671875,1.1109095811843872,2.542642116546631,1.5322890281677246
1766400140354929000,1.781928955078125,0.395043283700943,4.675876140594482,1.900996208190918
1766400140374978800,1.801978759765625,-0.7829039692878723,1.1324573755264282,2.1811177730560303
1766400140384988700,1.81198876953125,-0.507570743560791,-0.45250412821769714,2.1930887699127197
1766400140394998300,1.821998291015625,-0.26096799969673157,-0.17477671802043915,1.98958158493042
1766400140425088800,1.8520888671875,-2.3965959548950195,0.2585737705230713,2.540247917175293
1766400140445138700,1.872138671875,-2.3750481605529785,-0.5841852426528931,2.8562827110290527
1766400140455148500,1.8821484375,-2.7246015071868896,-0.7158663272857666,3.514688014984131
1766400140465188900,1.89218896484375,-1.6424223184585571,1.7932571172714233,3.2776620388031006
1766400140475198500,1.902198486328125,-1.4293384552001953,4.618414878845215,3.2130186557769775
1766400140485238800,1.91223876953125,-1.3646949529647827,4.525041103363037,4.134786128997803
1766400140525369600,1.95236962890625,-0.3663128614425659,0.43335050344467163,5.382165431976318
1766400140535409700,1.96240966796875,-0.40222588181495667,0.36152446269989014,5.449203014373779
1766400140545419500,1.97241943359375,-0.4812345504760742,-0.3758896589279175,4.390965938568115
1766400140555429400,1.982429443359375,-0.6344634294509888,-1.0678139925003052,3.9408559799194336
1766400140565500200,1.992500244140625,-0.8930372595787048,-1.8291701078414917,4.345476150512695
1766400140575509800,2.002509765625,-1.3024457693099976,-2.537853717803955,4.577713489532471
1766400140585550000,2.012550048828125,-1.048660397529602,-2.4181437492370605,3.8546648025512695
1766400140595590400,2.02259033203125,-1.1971008777618408,-1.335964560508728,3.536235809326172
1766400140625680600,2.0526806640625,-0.9169792532920837,-0.06464344263076782,1.9321208000183105
1766400140645730800,2.072730712890625,-0.023942016065120697,-0.871489405632019,0.507570743560791
1766400140655740700,2.08274072265625,0.272938996553421,0.22266076505184174,0.47884035110473633
1766400140665750300,2.092750244140625,-0.14604631066322327,0.7422025203704834,0.45489832758903503
1766400140675790600,2.10279052734375,-0.5123591423034668,0.689530074596405,0.272938996553421
1766400140685861400,2.112861328125,-0.8906430602073669,0.8954314589500427,0.2346317619085312
1766400140695871200,2.122871337890625,-1.170764684677124,0.8523358106613159,0.19871874153614044
1766400140725900500,2.152900634765625,-0.3734954595565796,0.8068459630012512,-0.33997663855552673
1766400140755990800,2.18299072265625,-0.09816227108240128,1.6927006244659424,-0.021547814831137657
1766400140766031000,2.193031005859375,-0.26575639843940735,1.968033790588379,0.12210428714752197
1766400140776041000,2.203041015625,-0.24660277366638184,2.1523873805999756,0.004788403399288654
1766400140786081300,2.213081298828125,-0.0933738648891449,2.233790159225464,0.13168109953403473
1766400140806161700,2.23316162109375,-0.009576806798577309,2.0661959648132324,0.10055647045373917
1766400140816232400,2.243232421875,0.2322375625371933,1.7166426181793213,0.016759412363171577
1766400140836252200,2.263252197265625,0.2777273952960968,0.9744400978088379,-0.14365209639072418
1766400140846323000,2.273322998046875,-0.08379705995321274,0.47884035110473633,-0.21308395266532898
1766400140856332500,2.28333251953125,-0.5937620401382446,0.48602294921875,-0.3064578175544739
1766400140866372900,2.293372802734375,-0.9026140570640564,0.5099649429321289,-0.17238251864910126
1766400140886453500,2.31345361328125,-0.6177040338516235,0.9481038451194763,-0.1364694982767105
1766400140896432600,2.3234326171875,-0.47165772318840027,0.933738648891449,-0.1364694982767105
1766400140906473000,2.333472900390625,-0.5770025849342346,0.667982280254364,-0.15322890877723694
1766400140926492400,2.353492431640625,-0.2968810200691223,1.1755530834197998,-0.13168109953403473
1766400140956552400,2.383552490234375,-0.3758896589279175,1.0534487962722778,0.31842881441116333
1766400140966592500,2.393592529296875,-0.3998316824436188,0.6368576288223267,0.4381389021873474
1766400140976602400,2.403602294921875,-0.15562310814857483,0.6919242739677429,0.5147533416748047
1766400140986612200,2.4136123046875,0.028730420395731926,0.30885201692581177,0.47405192255973816
1766400140996621800,2.423621826171875,0.15801730751991272,-0.05506663769483566,0.4668693244457245
1766400141006662100,2.433662109375,0.15562310814857483,0.004788403399288654,0.38067805767059326
1766400141016672000,2.443672119140625,0.19393034279346466,0.031124621629714966,0.363918662071228
1766400141026712300,2.45371240234375,0.14365209639072418,0.05985504388809204,0.27054479718208313
1766400141056772000,2.483772216796875,0.22744916379451752,0.395043283700943,0.33758243918418884
1766400141076791600,2.50379150390625,0,0.043095629662275314,0.2777273952960968
1766400141086801400,2.513801513671875,0.05746084079146385,-0.4836287498474121,0.3902548849582672
1766400141096841700,2.523841796875,0.0694318488240242,-0.586579442024231,0.48602294921875
1766400141106882000,2.533882080078125,0.272938996553421,-0.7158663272857666,0.08140286058187485
1766400141116891600,2.5438916015625,-0.06464344263076782,-0.4812345504760742,-0.043095629662275314
1766400141126932000,2.553931884765625,-0.09816227108240128,-0.1149216815829277,-0.21308395266532898
1766400141136941800,2.56394189453125,-0.09816227108240128,0.004788403399288654,0.0071826050989329815
1766400141177042000,2.6040419921875,1.2617442607879639,0.395043283700943,0.0694318488240242
1766400141187082200,2.614082275390625,0.8667010068893433,-0.2801215946674347,0.3064578175544739
1766400141197061400,2.624061279296875,0.2825157940387726,-0.16759411990642548,0.17477671802043915
1766400141207132200,2.634132080078125,-0.3016694188117981,-0.10773907601833344,0.12449848651885986
1766400141217142000,2.64414208984375,-0.43335050344467163,0.12689268589019775,0.31842881441116333
1766400141227151600,2.654151611328125,-0.43095630407333374,0.5147533416748047,0.42856210470199585
1766400141237161500,2.664161376953125,-0.5602431893348694,0.24660277366638184,0.304063618183136
1766400141257211600,2.684211669921875,0.524330198764801,-0.35913026332855225,0
1766400141267221200,2.69422119140625,1.0965443849563599,-0.6153098344802856,-0.016759412363171577
1766400141277231000,2.704231201171875,1.501164436340332,-0.27054479718208313,-0.5291185975074768
1766400141287302000,2.714302001953125,1.37906014919281,-0.17238251864910126,-0.5770025849342346
1766400141297311700,2.724311767578125,0.9552865028381348,-0.10534487664699554,-0.6320692300796509
1766400141307351800,2.734351806640625,0.49799394607543945,-0.26336219906806946,-0.7996633648872375
1766400141317392100,2.74439208984375,-0.026336219161748886,-0.608127236366272,-0.751779317855835
1766400141327432400,2.754432373046875,-0.24420857429504395,-0.47884035110473633,-0.5554547905921936
1766400141367532500,2.794532470703125,-2.3247697353363037,-0.7757213711738586,0.20350714027881622
1766400141377572900,2.80457275390625,-2.1523873805999756,-0.10773907601833344,0.24660277366638184
1766400141397622800,2.824622802734375,-0.5746083855628967,0.4812345504760742,0.10295066982507706
1766400141407632600,2.834632568359375,0.29209262132644653,1.2306196689605713,-0.009576806798577309
1766400141417642500,2.844642578125,0.933738648891449,1.2210428714752197,0.019153613597154617
1766400141427682800,2.854682861328125,0.9720458984375,0.751779317855835,0.019153613597154617
1766400141437723000,2.864722900390625,0.9385270476341248,0.4596867263317108,-0.09816227108240128
1766400141457773000,2.88477294921875,0.7158663272857666,-0.12449848651885986,-0.18914192914962769
1766400141487863300,2.91486328125,0.7206547260284424,0.028730420395731926,-0.4668693244457245
1766400141497903600,2.924903564453125,0.7110779285430908,0.2777273952960968,-0.3734954595565796
1766400141507944000,2.93494384765625,0.4141969084739685,-0.12210428714752197,-0.26815059781074524
1766400141517953800,2.944953857421875,0.14604631066322327,-0.2849099934101105,-0.26336219906806946
1766400141527963400,2.95496337890625,0.1173158809542656,-0.1388636976480484,-0.35913026332855225
1766400141537973200,2.96497314453125,0.1867477297782898,-0.45010992884635925,-0.3878606855869293
1766400141548013600,2.975013671875,0.16519992053508759,-0.4644751250743866,-0.4596867263317108
1766400141588113700,3.01511376953125,-0.21787235140800476,-0.08619125932455063,-0.16519992053508759
1766400141598123300,3.025123291015625,-0.20111294090747833,0.0454898327589035,-0.10534487664699554
1766400141608133000,3.035133056640625,0.026336219161748886,0.38546648621559143,0.011971008032560349
1766400141618143000,3.04514306640625,0.05985504388809204,0.507570743560791,0.026336219161748886
1766400141628152600,3.055152587890625,-0.1412578970193863,0.17956513166427612,0.12210428714752197
1766400141638162400,3.065162353515625,0.014365210197865963,0.1388636976480484,0.05985504388809204
1766400141648202800,3.07520263671875,0.038307227194309235,0.272938996553421,0.07422025501728058
1766400141668222200,3.09522216796875,0.07182604819536209,0.13168109953403473,0.047884032130241394
1766400141678232000,3.105232177734375,0.17956513166427612,0.10534487664699554,0.08140286058187485
1766400141688302800,3.115302734375,0.0933738648891449,0.12449848651885986,-0.038307227194309235
1766400141698312700,3.125312744140625,0.0071826050989329815,0.17238251864910126,0.05027823522686958
1766400141708322300,3.135322265625,0.009576806798577309,0.31842881441116333,0.1173158809542656
1766400141718332200,3.145332275390625,0.0071826050989329815,0.43095630407333374,0.05985504388809204
1766400141728342000,3.155342041015625,-0.023942016065120697,0.27054479718208313,0.18914192914962769
1766400141738351600,3.1653515625,-0.07900865375995636,0.16759411990642548,0.1149216815829277
1766400141748361500,3.175361572265625,-0.20350714027881622,0.2298433631658554,0.10295066982507706
1766400141758371000,3.18537109375,-0.2585737705230713,0.24899697303771973,0.1173158809542656
1766400141768381000,3.195380859375,-0.28730419278144836,0.11252748221158981,0.07422025501728058
1766400141798410200,3.22541015625,-0.1364694982767105,0.16519992053508759,-0.07422025501728058
1766400141808420000,3.235420166015625,-0.05506663769483566,0.019153613597154617,-0.13168109953403473
1766400141818429700,3.2454296875,-0.043095629662275314,0.014365210197865963,-0.13168109953403473
1766400141828470000,3.255469970703125,0.16519992053508759,0.08379705995321274,-0.22505496442317963
1766400141838449400,3.265449462890625,0.0694318488240242,0.016759412363171577,-0.1412578970193863
1766400141848489500,3.275489501953125,0.08379705995321274,0.14844051003456116,-0.15801730751991272
1766400141858499300,3.285499267578125,0.06703764945268631,0.1412578970193863,-0.16759411990642548
1766400141888589800,3.31558984375,0.3016694188117981,-0.035913024097681046,-0.1364694982767105
1766400141898599400,3.325599365234375,0.3232172429561615,-0.1843535304069519,-0.009576806798577309
1766400141908609300,3.335609375,0.3663128614425659,-0.14365209639072418,-0.07661445438861847
1766400141918649600,3.345649658203125,0.3663128614425659,0.09816227108240128,-0.026336219161748886
1766400141928690000,3.35568994140625,0.2777273952960968,-0.06703764945268631,0.05267243832349777
1766400141938699500,3.365699462890625,0.19393034279346466,-0.21787235140800476,0.016759412363171577
1766400141948739800,3.37573974609375,0.2777273952960968,-0.17238251864910126,-0.1149216815829277
1766400141958749700,3.385749755859375,0.3280056416988373,-0.11013327538967133,-0.004788403399288654
1766400141978769200,3.40576904296875,0.3280056416988373,-0.3687070608139038,-0.090979665517807
1766400141998788600,3.42578857421875,0.3902548849582672,0.06464344263076782,-0.06464344263076782
1766400142008798500,3.435798583984375,0.2968810200691223,-0.05746084079146385,0.0071826050989329815
1766400142018777600,3.445777587890625,0.272938996553421,-0.016759412363171577,0.019153613597154617
1766400142028787500,3.455787353515625,0.19871874153614044,0.023942016065120697,-0.05506663769483566
1766400142038797300,3.46579736328125,0.10773907601833344,-0.11252748221158981,0.009576806798577309
1766400142048837400,3.47583740234375,-0.004788403399288654,-0.3232172429561615,0.016759412363171577
1766400142058877700,3.485877685546875,0.026336219161748886,-0.26815059781074524,0.031124621629714966
1766400142068887600,3.495887451171875,0.1173158809542656,-0.4644751250743866,0.12210428714752197
1766400142088907000,3.515906982421875,0.4189853072166443,-0.22026655077934265,-0.019153613597154617
1766400142118966800,3.545966796875,0.14365209639072418,-0.10295066982507706,0.1412578970193863
1766400142139017000,3.566016845703125,-0.15562310814857483,0.08140286058187485,0.12449848651885986
1766400142149026800,3.57602685546875,-0.05985504388809204,-0.07900865375995636,0.14604631066322327
1766400142159067000,3.58606689453125,0.08858546614646912,-0.11252748221158981,0.0454898327589035
1766400142169076700,3.59607666015625,0.26575639843940735,-0.12449848651885986,0.10534487664699554
1766400142179086600,3.606086669921875,0.2801215946674347,0.11971008777618408,0.05746084079146385
1766400142199106000,3.62610595703125,0.304063618183136,0.33997663855552673,0.11252748221158981
1766400142209146400,3.636146484375,0.2322375625371933,0.28969839215278625,0.16519992053508759
1766400142219186700,3.646186767578125,0.26815059781074524,0.24420857429504395,0.0933738648891449
1766400142229227000,3.65622705078125,0.1843535304069519,0.4620809257030487,0.11252748221158981
1766400142239236600,3.666236572265625,0.6105214357376099,0.33039984107017517,0.021547814831137657
1766400142249246500,3.67624658203125,0.7038952708244324,0.2346317619085312,-0.019153613597154617
1766400142259256300,3.68625634765625,0.6488286852836609,-0.002394201699644327,0.05506663769483566
1766400142269296400,3.69629638671875,0.5817909836769104,-0.28730419278144836,-0.043095629662275314
1766400142279306200,3.70630615234375,0.3208230137825012,-0.2082955539226532,0.038307227194309235
1766400142309335600,3.73633544921875,0.6536170840263367,-0.19871874153614044,0.19393034279346466
1766400142319406300,3.74640625,0.8810662031173706,-0.2106897532939911,0.002394201699644327
1766400142329416200,3.756416259765625,0.9696516990661621,0.06703764945268631,-0.11252748221158981
1766400142339425800,3.76642578125,1.1779472827911377,0.09816227108240128,-0.08619125932455063
1766400142349466000,3.776466064453125,0.9792284965515137,0.10295066982507706,0.011971008032560349
1766400142359476000,3.78647607421875,0.871489405632019,-0.45010992884635925,0.004788403399288654
1766400142369485600,3.796485595703125,0.6967126727104187,-0.828393816947937,-0.021547814831137657
1766400142379495400,3.806495361328125,0.6009446382522583,-0.7374141216278076,-0.014365210197865963
1766400142389535700,3.81653564453125,0.4812345504760742,-0.1604115068912506,-0.009576806798577309
1766400142439645700,3.866645751953125,-0.4812345504760742,-0.05746084079146385,0.2298433631658554
1766400142449655300,3.8766552734375,-0.5770025849342346,0.2561795711517334,0.3016694188117981
1766400142469705500,3.89670556640625,-0.5626373887062073,0.42856210470199585,0.21308395266532898
1766400142479745800,3.906745849609375,-0.586579442024231,0.2106897532939911,0.19393034279346466
1766400142489786000,3.9167861328125,-0.6129156351089478,-0.023942016065120697,0.15322890877723694
1766400142499795700,3.926795654296875,-0.5793967843055725,0.014365210197865963,0.011971008032560349
1766400142509836000,3.9368359375,-0.586579442024231,0.12449848651885986,0.011971008032560349
1766400142529855500,3.95685546875,-0.7038952708244324,-0.07422025501728058,0
1766400142539865300,3.966865234375,-0.7038952708244324,-0.22266076505184174,-0.1173158809542656
1766400142549875200,3.976875244140625,-0.6440402865409851,-0.2346317619085312,-0.12449848651885986
1766400142559884800,3.986884765625,-0.7134721279144287,-0.09576806426048279,-0.181959331035614
1766400142569894700,3.996894775390625,-0.6200982332229614,-0.033518824726343155,-0.2106897532939911
1766400142579935000,4.00693505859375,-0.6536170840263367,-0.07422025501728058,-0.06464344263076782
1766400142590005800,4.017005859375,-0.6200982332229614,-0.12210428714752197,-0.08379705995321274
1766400142600015400,4.027015380859375,-0.751779317855835,-0.2322375625371933,-0.0071826050989329815
1766400142610086400,4.03708642578125,-0.7709329724311829,-0.37828385829925537,0.06703764945268631
1766400142650125300,4.077125244140625,-0.6200982332229614,-0.12210428714752197,0.043095629662275314
1766400142660135200,4.08713525390625,-0.5171475410461426,-0.11971008777618408,-0.014365210197865963
1766400142670144800,4.097144775390625,-0.33997663855552673,0.1412578970193863,0.002394201699644327
1766400142680185000,4.10718505859375,-0.17238251864910126,0.3734954595565796,-0.05027823522686958
1766400142690195000,4.11719482421875,-0.1867477297782898,0.3495534360408783,0.0454898327589035
1766400142700204800,4.127204833984375,-0.2513911724090576,0.11252748221158981,-0.0071826050989329815
1766400142730264600,4.1572646484375,-0.2561795711517334,0.36152446269989014,0.011971008032560349
1766400142740274200,4.167274169921875,-0.14365209639072418,0.3423708379268646,0.004788403399288654
1766400142750314500,4.177314453125,-0.040701430290937424,0.3016694188117981,0.05746084079146385
1766400142760324400,4.187324462890625,0.08140286058187485,0.22026655077934265,-0.06464344263076782
1766400142770334200,4.197334228515625,0.26815059781074524,0.16998831927776337,-0.11971008777618408
1766400142780343800,4.20734375,0.48602294921875,0.2082955539226532,-0.07900865375995636
1766400142790353700,4.217353759765625,0.6033388376235962,0.2777273952960968,-0.12928688526153564
1766400142800455000,4.227454833984375,0.5339069962501526,0.2561795711517334,-0.1604115068912506
1766400142810464800,4.23746484375,0.45489832758903503,0.21547815203666687,-0.19871874153614044
1766400142820474400,4.247474365234375,0.37828385829925537,0.1149216815829277,-0.11971008777618408
1766400142840494000,4.267494140625,0.2561795711517334,0.1173158809542656,-0.10055647045373917
1766400142850564900,4.27756494140625,0.1867477297782898,0.038307227194309235,-0.019153613597154617
1766400142860574500,4.287574462890625,0.2777273952960968,0.021547814831137657,0.043095629662275314
1766400142870645200,4.297645263671875,0.33518823981285095,0.011971008032560349,-0.0071826050989329815
1766400142880655000,4.307655029296875,0.3998316824436188,0,0.040701430290937424
1766400142890726000,4.317725830078125,0.38546648621559143,-0.10534487664699554,-0.028730420395731926
1766400142900735700,4.32773583984375,0.30885201692581177,-0.22744916379451752,-0.05267243832349777
1766400142910715000,4.33771484375,0.3280056416988373,-0.040701430290937424,-0.038307227194309235
1766400142950845400,4.377845458984375,0.0071826050989329815,-0.31364041566848755,-0.05027823522686958
1766400142960885800,4.3878857421875,0.17477671802043915,-0.14604631066322327,-0.035913024097681046
1766400142970956500,4.39795654296875,0.2082955539226532,-0.19632454216480255,0.038307227194309235
1766400142980936000,4.40793603515625,0.2561795711517334,-0.1412578970193863,0.043095629662275314
1766400142990976300,4.417976318359375,0.28730419278144836,-0.08140286058187485,0.0933738648891449
1766400143001047000,4.428047119140625,0.22266076505184174,0.019153613597154617,0.2106897532939911
1766400143011056600,4.438056640625,0.2513911724090576,0.033518824726343155,0.20350714027881622
1766400143041086000,4.4680859375,0.06703764945268631,0.11971008777618408,0.304063618183136
1766400143051095800,4.478095703125,0.019153613597154617,-0.014365210197865963,0.27054479718208313
1766400143061136100,4.48813623046875,0,-0.023942016065120697,0.1867477297782898
1766400143071145700,4.498145751953125,0.06224924325942993,-0.08140286058187485,0.1604115068912506
1766400143081155600,4.508155517578125,0.047884032130241394,0.0454898327589035,0.07422025501728058
1766400143091196000,4.51819580078125,0.05506663769483566,-0.011971008032560349,0.038307227194309235
1766400143101205800,4.528205810546875,0.002394201699644327,-0.17477671802043915,-0.040701430290937424
1766400143111245800,4.538245849609375,-0.14844051003456116,-0.12689268589019775,0.1173158809542656
1766400143121255700,4.548255615234375,-0.10534487664699554,-0.08379705995321274,0.10055647045373917
1766400143131296000,4.5582958984375,-0.15083470940589905,-0.12210428714752197,0.1412578970193863
1766400143151315500,4.5783154296875,-0.15562310814857483,-0.22744916379451752,0.12210428714752197
1766400143161325300,4.5883251953125,-0.16998831927776337,-0.2346317619085312,0.1364694982767105
1766400143171335200,4.598335205078125,-0.07182604819536209,-0.20111294090747833,0.028730420395731926
1766400143181375200,4.608375244140625,0.009576806798577309,-0.07182604819536209,0.05985504388809204
1766400143191385000,4.618385009765625,0.05746084079146385,-0.043095629662275314,0.06703764945268631
1766400143201395000,4.62839501953125,-0.0694318488240242,-0.035913024097681046,0.040701430290937424
1766400143211404500,4.638404541015625,-0.08140286058187485,-0.08140286058187485,0.014365210197865963
1766400143221414400,4.648414306640625,-0.08858546614646912,-0.023942016065120697,0.19153612852096558
1766400143241464600,4.668464599609375,0.08140286058187485,-0.06224924325942993,0.06224924325942993
1766400143251474200,4.67847412109375,0.07422025501728058,-0.0694318488240242,-0.035913024097681046
1766400143261484000,4.688484130859375,0.11252748221158981,0.0071826050989329815,-0.0694318488240242
1766400143271463200,4.698463134765625,0.181959331035614,0.40701428055763245,-0.06464344263076782
1766400143281503500,4.70850341796875,0.26336219906806946,0.42616790533065796,0.0071826050989329815
1766400143291543800,4.718543701171875,0.3711012601852417,0.17717093229293823,0.0071826050989329815
1766400143301523000,4.72852294921875,0.3495534360408783,0.181959331035614,0.002394201699644327
1766400143311532800,4.73853271484375,0.44771572947502136,0.19871874153614044,-0.11971008777618408
1766400143321634000,4.748634033203125,0.4572925269603729,0.2753331959247589,-0.24899697303771973
1766400143341653800,4.76865380859375,0.12928688526153564,-0.17717093229293823,-0.2849099934101105
1766400143351693800,4.77869384765625,0.05027823522686958,-0.12210428714752197,-0.2849099934101105
1766400143361764900,4.788764892578125,0.004788403399288654,0.17238251864910126,-0.17477671802043915
1766400143371805000,4.798804931640625,-0.10295066982507706,0.2585737705230713,0.009576806798577309
1766400143381814800,4.808814697265625,-0.2777273952960968,0.11971008777618408,-0.06703764945268631
1766400143391824600,4.81882470703125,-0.26336219906806946,0.12449848651885986,-0.035913024097681046
1766400143401834200,4.828834228515625,-0.4189853072166443,0.2849099934101105,-0.011971008032560349
1766400143411874600,4.83887451171875,-0.26575639843940735,0.035913024097681046,-0.009576806798577309
1766400143421884400,4.848884521484375,-0.07182604819536209,-0.1628057211637497,-0.014365210197865963
1766400143451913700,4.878913818359375,0.20350714027881622,-0.17477671802043915,-0.043095629662275314
1766400143461923300,4.88892333984375,0.040701430290937424,-0.2106897532939911,-0.043095629662275314
1766400143471963600,4.898963623046875,-0.019153613597154617,-0.17956513166427612,0.05027823522686958
1766400143482034400,4.909034423828125,-0.08379705995321274,0.011971008032560349,0.1364694982767105
1766400143492074800,4.91907470703125,-0.10055647045373917,0.090979665517807,0.16519992053508759
1766400143502084600,4.929084716796875,-0.07422025501728058,0.2059013396501541,0.14844051003456116
1766400143512094200,4.93909423828125,-0.035913024097681046,0.17956513166427612,0.17956513166427612
1766400143522134500,4.949134521484375,-0.0071826050989329815,0.18914192914962769,0.1628057211637497
1766400143532174800,4.9591748046875,0.05506663769483566,0.22266076505184174,0.15322890877723694
1766400143562234600,4.989234619140625,-0.0694318488240242,0.05985504388809204,-0.011971008032560349
1766400143572244500,4.999244384765625,-0.09576806426048279,0.08858546614646912,0.05267243832349777
1766400143582254300,5.00925439453125,-0.0694318488240242,0.028730420395731926,-0.019153613597154617
1766400143592233500,5.0192333984375,-0.11013327538967133,0.1364694982767105,-0.002394201699644327
1766400143602273800,5.029273681640625,-0.10055647045373917,0.05506663769483566,0.06224924325942993
1766400143612344600,5.039344482421875,-0.17477671802043915,0.028730420395731926,0.0454898327589035
1766400143622385000,5.049385009765625,-0.2106897532939911,0.19871874153614044,-0.023942016065120697
1766400143642404400,5.069404296875,-0.2322375625371933,0.009576806798577309,0.08379705995321274
1766400143692605700,5.119605712890625,0.21787235140800476,-0.16998831927776337,-0.05267243832349777
1766400143702585000,5.129585205078125,0.1173158809542656,-0.2106897532939911,-0.15801730751991272
1766400143712625400,5.13962548828125,0.12449848651885986,0.28730419278144836,-0.23942017555236816
1766400143722635000,5.149635009765625,0.07182604819536209,0.3974374830722809,-0.0933738648891449
1766400143732675300,5.15967529296875,-0.019153613597154617,0.3519476354122162,-0.10055647045373917
1766400143742685200,5.169685302734375,-0.05027823522686958,0.2944868206977844,-0.2082955539226532
1766400143752695000,5.179695068359375,0.009576806798577309,0.31842881441116333,-0.08619125932455063
1766400143772745000,5.199744873046875,-0.031124621629714966,0.13407529890537262,-0.009576806798577309
1766400143782754800,5.2097548828125,-0.07422025501728058,-0.1628057211637497,0.002394201699644327
1766400143792825600,5.21982568359375,0.009576806798577309,-0.19632454216480255,-0.019153613597154617
1766400143802835200,5.229835205078125,0.011971008032560349,0.033518824726343155,-0.016759412363171577
1766400143812845000,5.239844970703125,-0.05746084079146385,-0.090979665517807,-0.011971008032560349
1766400143822855000,5.24985498046875,-0.0694318488240242,-0.002394201699644327,0.033518824726343155
1766400143832864500,5.259864501953125,-0.15322890877723694,0.05027823522686958,0.038307227194309235
1766400143842874400,5.269874267578125,-0.19871874153614044,-0.0694318488240242,0.043095629662275314
1766400143852945200,5.279945068359375,-0.31842881441116333,-0.1604115068912506,0.035913024097681046
1766400143862955000,5.289955078125,-0.2561795711517334,-0.13407529890537262,-0.023942016065120697
1766400143872995300,5.299995361328125,-0.10773907601833344,-0.028730420395731926,-0.004788403399288654
1766400143903055000,5.33005517578125,0.05746084079146385,-0.07182604819536209,-0.021547814831137657
1766400143913095400,5.340095458984375,0.12210428714752197,-0.019153613597154617,0.002394201699644327
1766400143923135500,5.350135498046875,0.181959331035614,0.016759412363171577,-0.002394201699644327
1766400143933175800,5.36017578125,0.2059013396501541,0.016759412363171577,-0.0071826050989329815
1766400143943185700,5.370185546875,0.1388636976480484,-0.014365210197865963,0.0071826050989329815
1766400143953226000,5.38022607421875,0.12689268589019775,0,0.031124621629714966
1766400143963235600,5.390235595703125,0.090979665517807,0.0071826050989329815,0.009576806798577309
1766400143973306400,5.400306396484375,0.014365210197865963,0.002394201699644327,-0.011971008032560349
1766400144013376000,5.4403759765625,-0.009576806798577309,0.014365210197865963,0.026336219161748886
1766400144023385900,5.4503857421875,0.05746084079146385,0.11252748221158981,0.08379705995321274
1766400144033395700,5.460395751953125,0.009576806798577309,-0.021547814831137657,0.035913024097681046
1766400144043435800,5.470435791015625,-0.023942016065120697,0.07661445438861847,0.09576806426048279
1766400144053445600,5.480445556640625,-0.035913024097681046,-0.12210428714752197,0.05267243832349777
1766400144063486000,5.49048583984375,-0.05027823522686958,-0.06464344263076782,0.031124621629714966
1766400144073495800,5.500495849609375,-0.047884032130241394,-0.06464344263076782,0.033518824726343155
1766400144113626400,5.54062646484375,-0.07422025501728058,-0.17477671802043915,-0.05267243832349777
1766400144123666700,5.550666748046875,-0.06703764945268631,-0.23702596127986908,0.038307227194309235
1766400144133676300,5.56067626953125,0,-0.10295066982507706,-0.043095629662275314
1766400144143686100,5.57068603515625,-0.002394201699644327,-0.002394201699644327,-0.07900865375995636
1766400144153696000,5.580696044921875,0.09576806426048279,0.021547814831137657,-0.10055647045373917
1766400144163736000,5.590736083984375,0.17717093229293823,0.15083470940589905,-0.08619125932455063
1766400144173776400,5.6007763671875,0.17238251864910126,0.019153613597154617,-0.028730420395731926
1766400144183786200,5.6107861328125,0,-0.038307227194309235,-0.031124621629714966
1766400144213907200,5.6409072265625,-0.047884032130241394,-0.011971008032560349,0.14365209639072418
1766400144223916800,5.650916748046875,0.016759412363171577,-0.023942016065120697,0.0454898327589035
1766400144233957000,5.66095703125,0.08140286058187485,-0.05027823522686958,0
1766400144243967000,5.670967041015625,0.07182604819536209,-0.1173158809542656,0.011971008032560349
1766400144253976600,5.6809765625,-0.023942016065120697,-0.22744916379451752,-0.011971008032560349
1766400144263986400,5.690986328125,-0.028730420395731926,0.040701430290937424,-0.08858546614646912
1766400144274026800,5.70102685546875,-0.1388636976480484,0.17956513166427612,-0.17477671802043915
1766400144284036400,5.711036376953125,0.07182604819536209,0.06464344263076782,-0.08858546614646912
1766400144324075500,5.751075439453125,-0.016759412363171577,0.26336219906806946,-0.004788403399288654
1766400144334115800,5.76111572265625,0.038307227194309235,0.1867477297782898,-0.004788403399288654
1766400144344156200,5.77115625,-0.047884032130241394,0.16759411990642548,0.019153613597154617
1766400144354165800,5.781165771484375,-0.05027823522686958,0.11013327538967133,-0.09576806426048279
1766400144364175600,5.791175537109375,-0.09576806426048279,0.038307227194309235,-0.0454898327589035
1766400144374216000,5.8012158203125,-0.0933738648891449,-0.06703764945268631,-0.038307227194309235
1766400144414285600,5.84128564453125,-0.304063618183136,-0.1412578970193863,0.014365210197865963
1766400144424295200,5.851295166015625,-0.1628057211637497,-0.15083470940589905,-0.05746084079146385
1766400144434335500,5.86133544921875,0.11252748221158981,0.40462008118629456,-0.1604115068912506
1766400144444345300,5.871345458984375,0.019153613597154617,0.3016694188117981,-0.10534487664699554
1766400144454355200,5.881355224609375,-0.09816227108240128,-0.11013327538967133,-0.05267243832349777
1766400144464364800,5.89136474609375,-0.22026655077934265,-0.11252748221158981,-0.1628057211637497
1766400144474435600,5.901435546875,-0.13168109953403473,-0.035913024097681046,-0.1149216815829277
1766400144484445400,5.911445556640625,-0.17477671802043915,-0.0454898327589035,-0.0933738648891449
1766400144494455300,5.921455322265625,-0.10295066982507706,-0.07661445438861847,-0.10773907601833344
1766400144524484400,5.951484375,0.36152446269989014,0.17238251864910126,0.10773907601833344
1766400144534494200,5.961494140625,0.35673606395721436,0.26575639843940735,0.1173158809542656
1766400144544504000,5.971504150390625,0.17717093229293823,0.23942017555236816,0.05985504388809204
1766400144554513700,5.981513671875,0.10295066982507706,0.05267243832349777,0.11013327538967133
1766400144564523500,5.9915234375,0.13407529890537262,0.004788403399288654,0.035913024097681046
1766400144574563800,6.001563720703125,0.21308395266532898,0.07422025501728058,0.019153613597154617
1766400144584604200,6.011604248046875,0.21308395266532898,0.09576806426048279,0.1173158809542656
1766400144594613800,6.02161376953125,0.11013327538967133,-0.002394201699644327,-0.040701430290937424
1766400144604623600,6.03162353515625,0.031124621629714966,-0.10055647045373917,-0.028730420395731926
1766400144614664000,6.041663818359375,0.021547814831137657,-0.090979665517807,0.021547814831137657
1766400144624673800,6.051673828125,-0.07182604819536209,-0.05027823522686958,0.033518824726343155
1766400144634683400,6.061683349609375,0.002394201699644327,-0.0694318488240242,-0.021547814831137657
1766400144644693200,6.071693359375,0.028730420395731926,0.026336219161748886,-0.08858546614646912
1766400144654703000,6.081703125,0.13168109953403473,0.038307227194309235,-0.043095629662275314
1766400144664712700,6.091712646484375,-0.023942016065120697,-0.14604631066322327,0.040701430290937424
1766400144674722600,6.10172265625,-0.10773907601833344,-0.20350714027881622,0.05506663769483566
1766400144684732200,6.111732177734375,-0.17717093229293823,-0.20350714027881622,0.05267243832349777
1766400144694742000,6.121741943359375,-0.12449848651885986,-0.021547814831137657,0.1149216815829277
1766400144704751900,6.131751953125,-0.14365209639072418,-0.09816227108240128,0.19632454216480255
1766400144734781200,6.16178125,-0.05267243832349777,0.002394201699644327,0.06703764945268631
1766400144744790800,6.171790771484375,-0.040701430290937424,-0.11252748221158981,0.08379705995321274
1766400144754800600,6.181800537109375,-0.043095629662275314,-0.17717093229293823,0.05985504388809204
1766400144764841000,6.191841064453125,0.038307227194309235,-0.1173158809542656,-0.023942016065120697
1766400144774850600,6.2018505859375,0.05985504388809204,-0.12689268589019775,-0.05985504388809204
1766400144784860400,6.2118603515625,-0.016759412363171577,0.021547814831137657,-0.035913024097681046
1766400144794870300,6.221870361328125,0.06464344263076782,0.011971008032560349,0.05027823522686958
1766400144804880000,6.2318798828125,0.05985504388809204,0.011971008032560349,0.047884032130241394
1766400144844919000,6.2719189453125,0.19393034279346466,-0.011971008032560349,0.05985504388809204
1766400144854959400,6.28195947265625,0.06703764945268631,-0.17717093229293823,-0.10295066982507706
1766400144864969200,6.29196923828125,0.11013327538967133,-0.16759411990642548,-0.12449848651885986
1766400144875009300,6.30200927734375,0.18914192914962769,-0.14604631066322327,-0.07900865375995636
1766400144885049600,6.312049560546875,0.14604631066322327,-0.1173158809542656,-0.14365209639072418
1766400144895059500,6.3220595703125,0.15083470940589905,0.038307227194309235,-0.023942016065120697
1766400144905099800,6.332099853515625,0.16519992053508759,-0.05267243832349777,-0.019153613597154617
1766400144915109400,6.342109375,0.13407529890537262,-0.05267243832349777,0.002394201699644327
1766400144925119200,6.352119140625,0.15801730751991272,0.07661445438861847,0.05746084079146385
1766400144945199900,6.372199951171875,0.06464344263076782,-0.12210428714752197,0
1766400144955209500,6.38220947265625,0.08140286058187485,0.272938996553421,-0.026336219161748886
1766400144965219300,6.39221923828125,-0.026336219161748886,0.07661445438861847,0.023942016065120697
1766400144975229200,6.402229248046875,0.047884032130241394,-0.011971008032560349,-0.1412578970193863
1766400144985238800,6.41223876953125,-0.10773907601833344,-0.3232172429561615,-0.2059013396501541
1766400144995279000,6.422279052734375,-0.09576806426048279,-0.27054479718208313,-0.08140286058187485
1766400145005289000,6.4322890625,-0.05985504388809204,-0.019153613597154617,-0.05267243832349777
1766400145015329300,6.442329345703125,-0.1412578970193863,0.13168109953403473,0.028730420395731926
1766400145045450000,6.472449951171875,-0.11252748221158981,0.12449848651885986,-0.11252748221158981
1766400145055459800,6.4824599609375,-0.11013327538967133,0,-0.10773907601833344
1766400145065500200,6.492500244140625,-0.10773907601833344,-0.16998831927776337,-0.019153613597154617
1766400145075540500,6.50254052734375,-0.028730420395731926,-0.011971008032560349,-0.06464344263076782
1766400145085550000,6.512550048828125,0.1412578970193863,0.3232172429561615,-0.004788403399288654
1766400145095590400,6.52259033203125,0.2059013396501541,0.40701428055763245,0.08379705995321274
1766400145105600300,6.532600341796875,0.2082955539226532,0.28730419278144836,0.07900865375995636
1766400145115671000,6.542671142578125,0.1149216815829277,0.009576806798577309,0.07661445438861847
1766400145125650200,6.552650146484375,0.05267243832349777,-0.05027823522686958,0.11252748221158981
1766400145155771100,6.582771240234375,0.040701430290937424,0.047884032130241394,0.004788403399288654
1766400145165780700,6.59278076171875,-0.019153613597154617,-0.14604631066322327,0.0694318488240242
1766400145175821000,6.602821044921875,-0.021547814831137657,-0.2513911724090576,0.07900865375995636
1766400145185831000,6.612830810546875,-0.090979665517807,0.014365210197865963,-0.021547814831137657
1766400145195840800,6.6228408203125,-0.15083470940589905,0.08619125932455063,0.011971008032560349
1766400145205850400,6.632850341796875,-0.16998831927776337,0.19871874153614044,-0.07182604819536209
1766400145215921200,6.642921142578125,-0.181959331035614,0.038307227194309235,-0.10773907601833344
1766400145225931000,6.652930908203125,-0.07661445438861847,-0.2106897532939911,-0.11971008777618408
1766400145266031000,6.693031005859375,0.0933738648891449,-0.033518824726343155,-0.1149216815829277
1766400145276071400,6.703071533203125,0.06464344263076782,-0.08140286058187485,-0.1412578970193863
1766400145286081000,6.7130810546875,0.040701430290937424,0.031124621629714966,-0.13407529890537262
1766400145296182500,6.7231826171875,-0.05506663769483566,-0.05746084079146385,-0.004788403399288654
1766400145306192100,6.733192138671875,-0.05027823522686958,-0.5171475410461426,0.05985504388809204
1766400145316202000,6.743201904296875,0.0071826050989329815,-0.5626373887062073,0.019153613597154617
1766400145326242300,6.7532421875,0.47165772318840027,0.3663128614425659,-0.09816227108240128
1766400145366312000,6.79331201171875,-0.14844051003456116,0.031124621629714966,0.1173158809542656
1766400145376321500,6.803321533203125,-0.20350714027881622,-0.08379705995321274,-0.043095629662275314
1766400145386331400,6.813331298828125,0.06224924325942993,0.002394201699644327,-0.016759412363171577
1766400145396371700,6.823371826171875,0.014365210197865963,-0.2059013396501541,0.09816227108240128
1766400145406381600,6.833381591796875,0.09816227108240128,-0.5195417404174805,0.06224924325942993
1766400145416391200,6.84339111328125,0.22744916379451752,-0.48602294921875,-0.009576806798577309
1766400145426401000,6.853401123046875,0.43095630407333374,-0.10055647045373917,-0.047884032130241394
1766400145436441300,6.86344140625,0.5746083855628967,0.07900865375995636,-0.019153613597154617
1766400145466470700,6.893470703125,0.31842881441116333,-0.33758243918418884,-0.12689268589019775
1766400145476510700,6.9035107421875,0.3926490843296051,-0.08379705995321274,-0.11013327538967133
1766400145486520600,6.9135205078125,0.40222588181495667,0.2537853717803955,0.031124621629714966
1766400145496530400,6.923530517578125,0.23942017555236816,0.11971008777618408,0.043095629662275314
1766400145506540000,6.9335400390625,0.06224924325942993,-0.06464344263076782,0.043095629662275314
1766400145516580400,6.943580322265625,-0.014365210197865963,0,0.0071826050989329815
1766400145526651100,6.953651123046875,-0.12689268589019775,-0.047884032130241394,0.13168109953403473
1766400145536661000,6.963660888671875,-0.19632454216480255,-0.12210428714752197,0.019153613597154617
1766400145566751200,6.993751220703125,-0.18914192914962769,-0.4429273009300232,0.028730420395731926
1766400145586771000,7.01377099609375,0.047884032130241394,-0.21547815203666687,0.047884032130241394
1766400145596811000,7.02381103515625,0.07661445438861847,0.05985504388809204,0.002394201699644327
1766400145606820900,7.03382080078125,-0.07422025501728058,0.08619125932455063,0.05027823522686958
1766400145616830700,7.043830810546875,-0.13168109953403473,-0.15083470940589905,0.06464344263076782
1766400145626840300,7.05384033203125,-0.17956513166427612,-0.1412578970193863,0.019153613597154617
1766400145636880600,7.063880615234375,-0.1867477297782898,-0.019153613597154617,0.090979665517807
1766400145646890500,7.073890380859375,-0.1364694982767105,0.014365210197865963,0.16519992053508759
1766400145656900400,7.083900390625,-0.040701430290937424,-0.0071826050989329815,0.1867477297782898
1766400145686929700,7.1139296875,-0.038307227194309235,0.181959331035614,0
1766400145697000400,7.12400048828125,-0.026336219161748886,0.26336219906806946,0.023942016065120697
1766400145707010000,7.134010009765625,-0.023942016065120697,0.2992752194404602,-0.035913024097681046
1766400145717020000,7.14402001953125,-0.0454898327589035,0.019153613597154617,-0.06703764945268631
1766400145727029800,7.15402978515625,0.016759412363171577,0.023942016065120697,-0.15322890877723694
1766400145737039400,7.164039306640625,-0.016759412363171577,-0.05746084079146385,-0.14365209639072418
1766400145747049200,7.17404931640625,0.12210428714752197,0.004788403399288654,-0.24660277366638184
1766400145757058800,7.184058837890625,0.043095629662275314,0.10773907601833344,-0.19871874153614044
1766400145767068700,7.194068603515625,-0.13407529890537262,0.043095629662275314,-0.16519992053508759
1766400145797098000,7.224097900390625,-0.4884171485900879,-0.19871874153614044,0.0454898327589035
1766400145807107800,7.23410791015625,-0.4812345504760742,-0.12928688526153564,0.14844051003456116
1766400145817117400,7.244117431640625,-0.38546648621559143,-0.10055647045373917,0.1173158809542656
1766400145837137200,7.26413720703125,-0.26575639843940735,-0.24660277366638184,0.1173158809542656
1766400145847146800,7.274146728515625,-0.12928688526153564,-0.3711012601852417,0.14365209639072418
1766400145857217500,7.284217529296875,0.16998831927776337,-0.14844051003456116,0.12689268589019775
1766400145887277600,7.314277587890625,0.3734954595565796,0.181959331035614,0.06224924325942993
1766400145907297000,7.334297119140625,0.38067805767059326,0.11252748221158981,-0.22505496442317963
1766400145917337300,7.34433740234375,0.4572925269603729,0.10295066982507706,-0.11971008777618408
1766400145927377700,7.354377685546875,0.6105214357376099,0.14604631066322327,-0.2106897532939911
1766400145937387300,7.36438720703125,0.6057330369949341,0.2825157940387726,-0.14844051003456116
1766400145947427600,7.374427490234375,0.5913678407669067,0.14604631066322327,-0.1867477297782898
1766400145957437400,7.3844375,0.5602431893348694,0.1628057211637497,-0.10055647045373917
1766400145977487400,7.4044873046875,0.8619126081466675,0.2801215946674347,-0.19632454216480255
1766400145997537500,7.42453759765625,0.9361328482627869,0.0933738648891449,-0.07422025501728058
1766400146007516700,7.4345166015625,1.0055646896362305,0.07422025501728058,-0.12449848651885986
1766400146017526500,7.444526611328125,1.0031704902648926,0.15083470940589905,-0.031124621629714966
1766400146027536100,7.4545361328125,0.9361328482627869,0.6224924325942993,-0.009576806798577309
1766400146037546000,7.4645458984375,1.3503297567367554,1.137245774269104,-0.14365209639072418
1766400146047525000,7.474525146484375,1.2186486721038818,1.0438719987869263,-0.35434186458587646
1766400146057535000,7.484534912109375,0.9002198576927185,0.4429273009300232,-0.33758243918418884
1766400146067544800,7.494544921875,0.2106897532939911,-0.5937620401382446,-0.31603461503982544
1766400146097604600,7.5246044921875,-0.4692635238170624,-0.3998316824436188,0.10773907601833344
1766400146127694800,7.55469482421875,-0.768538773059845,-0.689530074596405,0.10055647045373917
1766400146137735200,7.564735107421875,-0.6392518281936646,-0.3663128614425659,0.1149216815829277
1766400146147775500,7.574775390625,-0.5339069962501526,-0.1604115068912506,0.12449848651885986
1766400146157785300,7.584785400390625,-0.363918662071228,-0.19871874153614044,0.06464344263076782
1766400146177835300,7.604835205078125,0.15801730751991272,0.17238251864910126,0.13407529890537262
1766400146207895000,7.63489501953125,-0.033518824726343155,-0.07422025501728058,0.15562310814857483
1766400146217905000,7.64490478515625,-0.18914192914962769,-0.22266076505184174,0.15801730751991272
1766400146227945200,7.6549453125,-0.2825157940387726,-0.1604115068912506,0.24420857429504395
1766400146237985500,7.664985595703125,-0.31842881441116333,-0.0694318488240242,0.19871874153614044
1766400146247964700,7.674964599609375,-0.2968810200691223,0.12210428714752197,0.16519992053508759
1766400146258005000,7.6850048828125,-0.3711012601852417,0.016759412363171577,0.14365209639072418
1766400146288034300,7.715034423828125,-0.26336219906806946,0.17238251864910126,0.15322890877723694
1766400146308053800,7.7350537109375,-0.2561795711517334,0.19871874153614044,0.05027823522686958
1766400146318124500,7.74512451171875,-0.16998831927776337,-0.043095629662275314,0.0454898327589035
1766400146328104000,7.75510400390625,-0.23702596127986908,-0.1364694982767105,0.05985504388809204
1766400146338144300,7.765144287109375,-0.14844051003456116,-0.0933738648891449,0.0071826050989329815
1766400146348153900,7.77515380859375,-0.15801730751991272,0.05985504388809204,-0.07422025501728058
1766400146358224600,7.785224609375,-0.15801730751991272,-0.009576806798577309,-0.047884032130241394
1766400146368234500,7.795234375,-0.17477671802043915,-0.22266076505184174,-0.10534487664699554
1766400146408273400,7.8352734375,0.014365210197865963,0.26815059781074524,-0.06224924325942993
1766400146418313700,7.845313720703125,-0.0694318488240242,0.08858546614646912,-0.0933738648891449
1766400146428323600,7.855323486328125,-0.08858546614646912,-0.21787235140800476,-0.07182604819536209
1766400146438333400,7.86533349609375,-0.07900865375995636,-0.15322890877723694,-0.0071826050989329815
1766400146448343000,7.875343017578125,-0.016759412363171577,0.08619125932455063,-0.07661445438861847
1766400146458353000,7.885352783203125,0.05506663769483566,0.17477671802043915,-0.14844051003456116
1766400146468362800,7.89536279296875,-0.1604115068912506,0.1843535304069519,-0.13168109953403473
1766400146478402800,7.90540283203125,-0.13407529890537262,0.10055647045373917,-0.1173158809542656
1766400146488412700,7.91541259765625,-0.17477671802043915,0.05985504388809204,-0.0694318488240242
1766400146528512800,7.9555126953125,0.14365209639072418,0.15801730751991272,-0.08858546614646912
1766400146538522600,7.965522705078125,0.1628057211637497,-0.002394201699644327,-0.07661445438861847
1766400146548532200,7.9755322265625,-0.023942016065120697,-0.17477671802043915,-0.016759412363171577
1766400146558542000,7.9855419921875,-0.07422025501728058,0.09576806426048279,-0.1173158809542656
1766400146568552000,7.995552001953125,0.16998831927776337,0.11252748221158981,-0.05027823522686958
1766400146578592300,8.00559228515625,-0.009576806798577309,0.07900865375995636,0.06464344263076782
1766400146608652000,8.035652099609376,-0.2322375625371933,-0.19153612852096558,-0.002394201699644327
1766400146618722800,8.045722900390626,-0.16759411990642548,-0.20350714027881622,0.0071826050989329815
1766400146628732400,8.055732421875,-0.08140286058187485,-0.21308395266532898,0.05267243832349777
1766400146638772700,8.065772705078125,-0.08619125932455063,-0.009576806798577309,0.014365210197865963
1766400146648782600,8.075782470703125,-0.002394201699644327,-0.004788403399288654,-0.011971008032560349
1766400146658792400,8.08579248046875,0.014365210197865963,-0.21787235140800476,0.011971008032560349
1766400146668802000,8.095802001953125,0.033518824726343155,-0.09576806426048279,-0.1173158809542656
1766400146688821500,8.115821533203125,0.11013327538967133,0.07182604819536209,-0.014365210197865963
1766400146698831400,8.125831298828125,0.07900865375995636,-0.1867477297782898,-0.07661445438861847
1766400146728891100,8.15589111328125,0.12210428714752197,0.05985504388809204,0.05746084079146385
1766400146738931500,8.165931396484375,0.12689268589019775,0.05746084079146385,0.12928688526153564
1766400146748880100,8.175880126953125,0.16759411990642548,0.05506663769483566,0.090979665517807
1766400146758920400,8.18592041015625,0.10773907601833344,-0.0454898327589035,0.011971008032560349
1766400146768930300,8.195930419921876,0.019153613597154617,0,0.014365210197865963
1766400146788949800,8.21594970703125,-0.038307227194309235,-0.028730420395731926,0.002394201699644327
1766400146829080300,8.256080322265625,-0.011971008032560349,-0.1364694982767105,0.023942016065120697
1766400146839120600,8.26612060546875,0.019153613597154617,-0.1412578970193863,0.0454898327589035
1766400146849161000,8.276160888671875,-0.0933738648891449,-0.05985504388809204,0.05746084079146385
1766400146859170800,8.2861708984375,-0.08858546614646912,0,-0.009576806798577309
1766400146869150000,8.29614990234375,-0.038307227194309235,-0.10773907601833344,0.05985504388809204
1766400146879220700,8.306220703125,0.011971008032560349,-0.031124621629714966,0.090979665517807
1766400146889230600,8.316230712890626,-0.009576806798577309,0.014365210197865963,0.031124621629714966
1766400146899240400,8.326240478515626,0.002394201699644327,-0.05267243832349777,0.05985504388809204
1766400146929300200,8.35630029296875,0,0.004788403399288654,-0.05027823522686958
1766400146939340500,8.366340576171876,-0.043095629662275314,0.05506663769483566,-0.11013327538967133
1766400146949350100,8.37635009765625,-0.05985504388809204,0.08140286058187485,0.05027823522686958
1766400146959360000,8.386360107421876,-0.1149216815829277,0.13168109953403473,0
1766400146969369600,8.39636962890625,-0.12449848651885986,0.05027823522686958,0
1766400146979410000,8.406409912109375,-0.12689268589019775,0.014365210197865963,-0.047884032130241394
1766400146989419800,8.416419677734375,-0.1628057211637497,-0.08379705995321274,0.021547814831137657
1766400146999429600,8.4264296875,-0.14604631066322327,-0.12928688526153564,0.023942016065120697
1766400147039499000,8.4664990234375,0.07422025501728058,0.12210428714752197,0.06464344263076782
1766400147049508900,8.4765087890625,0.10055647045373917,0.2777273952960968,0.08619125932455063
1766400147059518700,8.486518798828126,-0.016759412363171577,0.31842881441116333,0.06703764945268631
1766400147069528300,8.4965283203125,0.009576806798577309,0.1388636976480484,0.12210428714752197
1766400147079568600,8.506568603515625,-0.019153613597154617,0.10295066982507706,0.07900865375995636
1766400147089578500,8.51657861328125,0.05506663769483566,0.033518824726343155,0.016759412363171577
1766400147099588400,8.52658837890625,-0.009576806798577309,-0.038307227194309235,-0.0694318488240242
1766400147109598000,8.536597900390625,-0.0454898327589035,-0.16759411990642548,0.011971008032560349
1766400147129709000,8.556708984375,0.002394201699644327,-0.19871874153614044,-0.05267243832349777
1766400147149759200,8.57675927734375,0.011971008032560349,-0.1149216815829277,0.014365210197865963
1766400147159799300,8.58679931640625,-0.08379705995321274,-0.24899697303771973,-0.040701430290937424
1766400147169809200,8.59680908203125,-0.0694318488240242,-0.17956513166427612,0.009576806798577309
1766400147179849500,8.606849365234375,-0.08140286058187485,-0.24899697303771973,-0.05746084079146385
1766400147189859300,8.616859375,-0.05746084079146385,-0.18914192914962769,-0.08140286058187485
1766400147199899400,8.6268994140625,0.002394201699644327,-0.07422025501728058,-0.090979665517807
1766400147209909200,8.6369091796875,-0.002394201699644327,-0.043095629662275314,-0.13168109953403473
1766400147229898200,8.656898193359375,0.090979665517807,-0.014365210197865963,-0.0694318488240242
1766400147239969000,8.666968994140625,0.038307227194309235,0.09816227108240128,-0.07422025501728058
1766400147249979000,8.676978759765625,0.0454898327589035,0.06464344263076782,-0.033518824726343155
1766400147259988700,8.68698876953125,0.023942016065120697,-0.038307227194309235,-0.023942016065120697
1766400147269998300,8.696998291015625,-0.026336219161748886,-0.07661445438861847,-0.040701430290937424
1766400147280069000,8.707069091796875,-0.002394201699644327,0.07900865375995636,-0.0933738648891449
1766400147290079000,8.717078857421875,0,-0.043095629662275314,-0.05027823522686958
1766400147300180200,8.72718017578125,0.009576806798577309,-0.08858546614646912,-0.021547814831137657
1766400147330240000,8.757239990234375,0.009576806798577309,-0.06703764945268631,0.0694318488240242
1766400147340280300,8.7672802734375,-0.1388636976480484,-0.17956513166427612,0.05506663769483566
1766400147350290200,8.777290283203126,-0.19153612852096558,-0.10773907601833344,-0.016759412363171577
1766400147360330500,8.78733056640625,-0.13407529890537262,-0.040701430290937424,0.0694318488240242
1766400147370370800,8.797370849609376,-0.11252748221158981,0.0454898327589035,0.10534487664699554
1766400147380411000,8.807410888671875,-0.1604115068912506,-0.028730420395731926,0.09576806426048279
1766400147390420700,8.817420654296875,-0.16998831927776337,-0.1604115068912506,0.033518824726343155
1766400147400522000,8.82752197265625,-0.22026655077934265,-0.14844051003456116,0.05506663769483566
1766400147410531800,8.83753173828125,-0.14604631066322327,-0.11252748221158981,0.13168109953403473
1766400147420572200,8.847572265625,-0.1364694982767105,0.038307227194309235,0.09576806426048279
1766400147450601500,8.8776015625,-0.035913024097681046,0.05506663769483566,0.11013327538967133
1766400147460611000,8.887611083984375,-0.07182604819536209,0.035913024097681046,0.1412578970193863
1766400147470621000,8.897620849609375,-0.17956513166427612,-0.07182604819536209,0.11252748221158981
1766400147480661200,8.9076611328125,-0.15562310814857483,-0.1149216815829277,0.06703764945268631
1766400147490671000,8.917671142578126,-0.17477671802043915,-0.06464344263076782,0.035913024097681046
1766400147500680700,8.9276806640625,-0.13168109953403473,-0.026336219161748886,0.05267243832349777
1766400147510690600,8.937690673828126,-0.10773907601833344,-0.12210428714752197,0.016759412363171577
1766400147540780800,8.96778076171875,0.05027823522686958,0.17477671802043915,-0.038307227194309235
1766400147550821000,8.977821044921875,0.05506663769483566,0.08379705995321274,-0.0694318488240242
1766400147560831000,8.9878310546875,0.028730420395731926,-0.0071826050989329815,-0.14365209639072418
1766400147570840600,8.997840576171875,-0.031124621629714966,0.035913024097681046,-0.1388636976480484
1766400147580881000,9.007880859375,0,0.08140286058187485,-0.0933738648891449
1766400147590921200,9.017921142578125,0.033518824726343155,0.15322890877723694,0.009576806798577309
1766400147600992000,9.027991943359375,-0.011971008032560349,0.038307227194309235,-0.06464344263076782
1766400147611001900,9.038001953125,-0.026336219161748886,-0.004788403399288654,-0.047884032130241394
1766400147621011500,9.048011474609375,-0.10295066982507706,0.009576806798577309,0.06464344263076782
1766400147661111600,9.088111572265625,0.019153613597154617,0.0071826050989329815,0.07422025501728058
1766400147671121400,9.098121337890625,0.014365210197865963,0.1364694982767105,0.05746084079146385
1766400147681161700,9.10816162109375,-0.040701430290937424,0.0694318488240242,0.038307227194309235
1766400147691171600,9.118171630859376,-0.12928688526153564,-0.09576806426048279,-0.011971008032560349
1766400147701211600,9.128211669921875,-0.11252748221158981,-0.1412578970193863,-0.05985504388809204
1766400147711221500,9.138221435546875,-0.0071826050989329815,-0.1149216815829277,-0.08858546614646912
1766400147721261800,9.14826171875,0.0694318488240242,-0.014365210197865963,-0.07182604819536209
1766400147731302100,9.15830224609375,0.002394201699644327,-0.021547814831137657,-0.028730420395731926
1766400147771402200,9.19840234375,0.1412578970193863,0.031124621629714966,0.031124621629714966
1766400147781442600,9.208442626953126,0.13407529890537262,-0.07900865375995636,0.05746084079146385
1766400147791452200,9.2184521484375,0.09576806426048279,-0.05027823522686958,0.033518824726343155
1766400147801523000,9.22852294921875,0.0933738648891449,-0.05027823522686958,0.033518824726343155
1766400147811532800,9.23853271484375,0.021547814831137657,-0.14844051003456116,0.002394201699644327
1766400147821573000,9.248572998046875,0.07422025501728058,-0.05506663769483566,-0.05506663769483566
1766400147831583000,9.2585830078125,0.043095629662275314,0.009576806798577309,0.05985504388809204
1766400147841653800,9.26865380859375,0.090979665517807,0.05746084079146385,0.09576806426048279
1766400147851663400,9.278663330078125,0.06703764945268631,0.1149216815829277,0.0071826050989329815
1766400147871744000,9.298743896484375,-0.021547814831137657,-0.0454898327589035,0.014365210197865963
1766400147881784300,9.308784423828126,0.004788403399288654,0.08858546614646912,-0.004788403399288654
1766400147891794000,9.3187939453125,0.002394201699644327,0.11971008777618408,-0.031124621629714966
1766400147901865000,9.328864990234376,-0.014365210197865963,-0.028730420395731926,0.0454898327589035
1766400147911905000,9.338905029296875,-0.011971008032560349,-0.14365209639072418,-0.09576806426048279
1766400147921915000,9.348914794921875,-0.016759412363171577,-0.24660277366638184,-0.043095629662275314
1766400147931955200,9.358955078125,-0.021547814831137657,-0.07900865375995636,-0.028730420395731926
1766400147941995500,9.36899560546875,-0.0454898327589035,-0.12689268589019775,-0.08379705995321274
1766400147962106600,9.389106689453126,-0.033518824726343155,-0.1173158809542656,-0.07422025501728058
1766400147972116200,9.3991162109375,-0.0933738648891449,0.002394201699644327,-0.021547814831137657
1766400147982187000,9.40918701171875,-0.0071826050989329815,0.07182604819536209,-0.023942016065120697
1766400147992196900,9.41919677734375,0.038307227194309235,-0.011971008032560349,0.002394201699644327
1766400148002267600,9.429267578125,0.040701430290937424,0.07661445438861847,-0.06703764945268631
1766400148012308000,9.439307861328125,0.031124621629714966,0.20111294090747833,-0.047884032130241394
1766400148022317800,9.44931787109375,0.0071826050989329815,0.17477671802043915,0
1766400148032358000,9.45935791015625,-0.08379705995321274,0.10534487664699554,-0.031124621629714966
1766400148042398200,9.469398193359375,-0.05027823522686958,0.028730420395731926,-0.07182604819536209
1766400148052438500,9.4794384765625,-0.11252748221158981,0.026336219161748886,-0.17477671802043915
1766400148062478800,9.489478759765625,-0.026336219161748886,0.033518824726343155,-0.12210428714752197
1766400148092538600,9.51953857421875,0.023942016065120697,-0.014365210197865963,-0.07900865375995636
1766400148122629000,9.549629150390626,0.035913024097681046,0.014365210197865963,-0.05985504388809204
1766400148142679000,9.569678955078125,0.028730420395731926,0.033518824726343155,-0.0694318488240242
1766400148152689000,9.57968896484375,-0.033518824726343155,0.09816227108240128,0.028730420395731926
1766400148172708400,9.599708251953125,0.011971008032560349,0.16998831927776337,0.07661445438861847
1766400148182748700,9.609748779296876,-0.08140286058187485,-0.031124621629714966,0.0071826050989329815
1766400148192789000,9.6197890625,-0.07900865375995636,-0.13407529890537262,0
1766400148202829300,9.629829345703126,-0.06703764945268631,-0.12928688526153564,-0.021547814831137657
1766400148212808400,9.639808349609375,-0.05746084079146385,-0.047884032130241394,-0.043095629662275314
1766400148222848800,9.649848876953126,-0.20350714027881622,-0.1628057211637497,-0.06703764945268631
1766400148232858400,9.6598583984375,-0.22505496442317963,0.05985504388809204,-0.0071826050989329815
1766400148242898700,9.669898681640625,-0.2322375625371933,0.004788403399288654,0.0454898327589035
1766400148252908500,9.679908447265625,-0.16519992053508759,-0.2082955539226532,-0.05027823522686958
1766400148262918400,9.68991845703125,-0.08140286058187485,-0.07182604819536209,-0.08858546614646912
1766400148272928000,9.699927978515625,0.014365210197865963,-0.1412578970193863,-0.06703764945268631
1766400148293008600,9.720008544921875,-0.002394201699644327,0.05027823522686958,-0.033518824726343155
1766400148303049000,9.730049072265626,0.009576806798577309,0.10295066982507706,0.0454898327589035
1766400148313058800,9.740058837890626,-0.07900865375995636,0.026336219161748886,0.06224924325942993
1766400148323099000,9.750098876953125,-0.12689268589019775,-0.07661445438861847,0.016759412363171577
1766400148333169700,9.760169677734375,-0.05027823522686958,-0.08858546614646912,0.12689268589019775
1766400148343179500,9.770179443359375,-0.019153613597154617,-0.038307227194309235,0.12689268589019775
1766400148353189400,9.780189453125,-0.035913024097681046,-0.05027823522686958,0.038307227194309235
1766400148363199000,9.790198974609375,-0.026336219161748886,0.004788403399288654,0.10055647045373917
1766400148373208800,9.800208740234375,-0.10534487664699554,-0.011971008032560349,0.047884032130241394
1766400148413369900,9.840369873046875,-0.05506663769483566,-0.026336219161748886,-0.031124621629714966
1766400148423410200,9.85041015625,0.031124621629714966,-0.07422025501728058,0.021547814831137657
1766400148433420000,9.860419921875,0.06703764945268631,-0.06703764945268631,-0.016759412363171577
1766400148443460400,9.87046044921875,-0.026336219161748886,-0.09816227108240128,-0.06703764945268631
1766400148453470000,9.880469970703125,-0.011971008032560349,-0.0454898327589035,-0.002394201699644327
1766400148463541000,9.890541015625,-0.009576806798577309,0.0454898327589035,-0.021547814831137657
1766400148473550600,9.900550537109375,0.004788403399288654,0.009576806798577309,0.016759412363171577
1766400148483591000,9.9105908203125,-0.026336219161748886,0.019153613597154617,0
1766400148493600800,9.920600830078126,0.06703764945268631,-0.07661445438861847,0.004788403399288654
1766400148523721500,9.950721435546875,-0.031124621629714966,-0.05746084079146385,0.11252748221158981
1766400148533731300,9.9607314453125,-0.0454898327589035,-0.016759412363171577,-0.009576806798577309
1766400148543771600,9.970771728515626,-0.016759412363171577,-0.031124621629714966,0.002394201699644327
1766400148553781200,9.98078125,-0.019153613597154617,-0.002394201699644327,0.05027823522686958
1766400148563821600,9.990821533203125,-0.05267243832349777,-0.043095629662275314,-0.06464344263076782
1766400148573831400,10.00083154296875,-0.014365210197865963,0.033518824726343155,-0.040701430290937424
1766400148583871700,10.010871826171876,0.019153613597154617,-0.019153613597154617,-0.05506663769483566
1766400148624002300,10.051002197265625,0.05027823522686958,-0.014365210197865963,-0.031124621629714966
1766400148644052200,10.07105224609375,0.038307227194309235,0.090979665517807,-0.05267243832349777
1766400148654062000,10.08106201171875,-0.011971008032560349,0.004788403399288654,-0.06464344263076782
1766400148664072000,10.091072021484376,0.031124621629714966,-0.06224924325942993,-0.0454898327589035
1766400148674112300,10.1011123046875,-0.031124621629714966,0.0454898327589035,-0.004788403399288654
1766400148684183000,10.11118310546875,0.014365210197865963,0.028730420395731926,0.011971008032560349
1766400148714303700,10.1413037109375,-0.023942016065120697,-0.011971008032560349,0.05027823522686958
1766400148724313600,10.151313720703126,-0.07182604819536209,-0.026336219161748886,0.002394201699644327
1766400148734354000,10.16135400390625,-0.1173158809542656,-0.038307227194309235,-0.014365210197865963
1766400148744363500,10.171363525390625,-0.06224924325942993,-0.13407529890537262,0.019153613597154617
1766400148754403800,10.18140380859375,-0.09816227108240128,-0.07422025501728058,-0.016759412363171577
1766400148764444200,10.191444091796875,-0.181959331035614,-0.1364694982767105,-0.011971008032560349
1766400148774423600,10.201423583984376,-0.0933738648891449,-0.2777273952960968,-0.0694318488240242
1766400148784463600,10.211463623046875,-0.031124621629714966,-0.17956513166427612,-0.10055647045373917
1766400148814493000,10.241492919921875,0.035913024097681046,-0.05027823522686958,-0.11252748221158981
1766400148844552700,10.271552734375,0.16759411990642548,-0.016759412363171577,-0.05506663769483566
1766400148854593000,10.281593017578125,0.12210428714752197,0.035913024097681046,0.019153613597154617
1766400148864603000,10.291602783203125,0.10295066982507706,0.023942016065120697,0.038307227194309235
1766400148874643200,10.301643310546876,0.1149216815829277,-0.033518824726343155,0.023942016065120697
1766400148884683500,10.31168359375,0.08379705995321274,-0.05985504388809204,0.0933738648891449
1766400148894723800,10.321723876953126,0.0694318488240242,0.043095629662275314,0.090979665517807
1766400148914773800,10.341773681640625,0.011971008032560349,-0.05027823522686958,0.019153613597154617
1766400148924783600,10.35178369140625,0.023942016065120697,-0.002394201699644327,0.0454898327589035
1766400148934824000,10.361823974609376,0.047884032130241394,0.026336219161748886,0.021547814831137657
1766400148944864000,10.371864013671875,0.031124621629714966,-0.004788403399288654,0.0694318488240242
1766400148954873900,10.381873779296875,-0.047884032130241394,-0.06224924325942993,0.10295066982507706
1766400148964914200,10.3919140625,-0.019153613597154617,-0.040701430290937424,0.035913024097681046
1766400148974924000,10.401924072265626,0.021547814831137657,-0.05746084079146385,0.038307227194309235
1766400148984933600,10.41193359375,0.06224924325942993,-0.05985504388809204,-0.023942016065120697
