time,seconds_elapsed,z,y,x
1766400136992654600,-1.580345458984375,9.744979858398438,-0.9245879054069519,-0.5923557281494141
1766400137002664400,-1.57033544921875,9.744878768920898,-0.9255189895629883,-0.5925663113594055
1766400137012674000,-1.560325927734375,9.744905471801758,-0.9247685074806213,-0.5933036804199219
1766400137022684000,-1.550316162109375,9.744659423828125,-0.9265727996826172,-0.5945202112197876
1766400137032724200,-1.54027587890625,9.744595527648926,-0.9271025657653809,-0.5947533845901489
1766400137042734000,-1.530265869140625,9.74447250366211,-0.9284272789955139,-0.594697117805481
1766400137052804900,-1.520195068359375,9.744709968566895,-0.9258829951286316,-0.5947683453559875
1766400137062814500,-1.510185546875,9.744795799255371,-0.925011396408081,-0.5947226285934448
1766400137072824300,-1.50017578125,9.744681358337402,-0.9263041019439697,-0.5945801734924316
1766400137082834200,-1.490165771484375,9.744362831115723,-0.9273698329925537,-0.5981286764144897
1766400137122995200,-1.4500048828125,9.742859840393066,-0.9397013187408447,-0.6033585667610168
1766400137133035500,-1.439964599609375,9.742530822753906,-0.9431326389312744,-0.6033012866973877
1766400137143045400,-1.42995458984375,9.74237060546875,-0.9450350403785706,-0.6029143333435059
1766400137153055000,-1.419945068359375,9.742321014404297,-0.9460806250572205,-0.6020837426185608
1766400137163064800,-1.40993505859375,9.74228286743164,-0.9478026032447815,-0.5999883413314819
1766400137173105200,-1.399894775390625,9.742151260375977,-0.950666069984436,-0.597571849822998
1766400137183114800,-1.38988525390625,9.742104530334473,-0.9520062208175659,-0.5962057709693909
1766400137193185500,-1.379814453125,9.742111206054688,-0.9529861211776733,-0.5945351719856262
1766400137213266200,-1.35973388671875,9.741814613342285,-0.9570930004119873,-0.5927886962890625
1766400137223276000,-1.349723876953125,9.741656303405762,-0.9597055912017822,-0.5911726355552673
1766400137243295500,-1.32970458984375,9.74133014678955,-0.9629945158958435,-0.5912047624588013
1766400137253335800,-1.319664306640625,9.74155044555664,-0.9606398344039917,-0.5914009213447571
1766400137263345700,-1.309654296875,9.741622924804688,-0.9596197605133057,-0.5918567180633545
1766400137273355300,-1.299644775390625,9.741503715515137,-0.9605118632316589,-0.5923781394958496
1766400137283365000,-1.289634765625,9.74139404296875,-0.9616296291351318,-0.592360258102417
1766400137293375000,-1.279625,9.741658210754395,-0.9596717953681946,-0.5911946296691895
1766400137303384600,-1.269615478515625,9.74215316772461,-0.9558078050613403,-0.5893009305000305
1766400137363473700,-1.2095263671875,9.740570068359375,-0.9666652083396912,-0.5976958274841309
1766400137373483500,-1.1995166015625,9.740214347839355,-0.9689303636550903,-0.5998261570930481
1766400137383493400,-1.189506591796875,9.7404146194458,-0.9672274589538574,-0.5993227362632751
1766400137393503000,-1.1794970703125,9.740680694580078,-0.9660161137580872,-0.5969506502151489
1766400137403512800,-1.169487060546875,9.740537643432617,-0.9679179191589355,-0.5961962342262268
1766400137423593500,-1.149406494140625,9.740124702453613,-0.973743736743927,-0.5934599041938782
1766400137433603000,-1.13939697265625,9.740229606628418,-0.9743199944496155,-0.5907756090164185
1766400137443613000,-1.129386962890625,9.74026107788086,-0.974970817565918,-0.5891883969306946
1766400137453653200,-1.1193466796875,9.740209579467773,-0.9772079586982727,-0.5863218307495117
1766400137463662800,-1.109337158203125,9.7402925491333,-0.9782793521881104,-0.583136796951294
1766400137473672700,-1.099327392578125,9.740686416625977,-0.9769976735115051,-0.5786846280097961
1766400137483713000,-1.089286865234375,9.740827560424805,-0.9769136309623718,-0.5764683485031128
1766400137493753300,-1.07924658203125,9.74099349975586,-0.9760867357254028,-0.5750598907470703
1766400137503763000,-1.069237060546875,9.740479469299316,-0.9809685945510864,-0.5754549503326416
1766400137533823000,-1.039177001953125,9.737846374511719,-1.0046495199203491,-0.5791582465171814
1766400137553812000,-1.01918798828125,9.737225532531738,-1.009690523147583,-0.5808157920837402
1766400137573862000,-0.99913818359375,9.737454414367676,-1.010069727897644,-0.5763003826141357
1766400137583871700,-0.989128173828125,9.737144470214844,-1.0140340328216553,-0.5745870471000671
1766400137593912000,-0.979087890625,9.736780166625977,-1.0172386169433594,-0.5750761032104492
1766400137603952000,-0.9690478515625,9.7363920211792,-1.0196410417556763,-0.5773934125900269
1766400137613992400,-0.959007568359375,9.73595142364502,-1.0229371786117554,-0.5789984464645386
1766400137623971800,-0.949028076171875,9.735345840454102,-1.0277701616287231,-0.5806258320808411
1766400137654062000,-0.91893798828125,9.733894348144531,-1.042775273323059,-0.5781944394111633
1766400137664102400,-0.908897705078125,9.73386001586914,-1.0443589687347412,-0.5759202241897583
1766400137674112300,-0.8988876953125,9.733866691589355,-1.0455397367477417,-0.5736554861068726
1766400137684121900,-0.888878173828125,9.734028816223145,-1.0456011295318604,-0.5707679390907288
1766400137694162200,-0.878837890625,9.73393440246582,-1.046726942062378,-0.5703222751617432
1766400137704172000,-0.868827880859375,9.733675956726074,-1.0495773553848267,-0.5694939494132996
1766400137714181600,-0.858818359375,9.733503341674805,-1.0513458251953125,-0.5691964030265808
1766400137744241700,-0.82875830078125,9.732914924621582,-1.0566496849060059,-0.5694301724433899
1766400137754251300,-0.818748779296875,9.732895851135254,-1.0575252771377563,-0.5681305527687073
1766400137764291600,-0.80870849609375,9.732709884643555,-1.0601108074188232,-0.5664882659912109
1766400137774301400,-0.798698486328125,9.73273754119873,-1.0608869791030884,-0.5645612478256226
1766400137784311000,-0.78868896484375,9.732832908630371,-1.0615622997283936,-0.5616271495819092
1766400137794321000,-0.77867919921875,9.733353614807129,-1.0584099292755127,-0.5585401654243469
1766400137804361200,-0.768638671875,9.733114242553711,-1.061570167541504,-0.556735634803772
1766400137814401500,-0.758598388671875,9.73269271850586,-1.0657212734222412,-0.5561543703079224
1766400137834421000,-0.7385791015625,9.732558250427246,-1.0678964853286743,-0.5543473958969116
1766400137854501600,-0.718498291015625,9.732561111450195,-1.0679786205291748,-0.5541325807571411
1766400137864511200,-0.70848876953125,9.732298851013184,-1.0701537132263184,-0.5545447468757629
1766400137874490600,-0.69850927734375,9.731585502624512,-1.0750871896743774,-0.5575007796287537
1766400137884531000,-0.688468994140625,9.730775833129883,-1.0809910297393799,-0.5602241158485413
1766400137894571300,-0.6784287109375,9.730406761169434,-1.0841951370239258,-0.5604313611984253
1766400137904580900,-0.668419189453125,9.730051040649414,-1.086984395980835,-0.5612035989761353
1766400137914560300,-0.658439697265625,9.72939682006836,-1.0930086374282837,-0.560857892036438
1766400137924600300,-0.648399658203125,9.728858947753906,-1.0969327688217163,-0.5625256299972534
1766400137944620000,-0.6283798828125,9.728073120117188,-1.1036591529846191,-0.5629627108573914
1766400137964639500,-0.608360595703125,9.728300094604492,-1.1035879850387573,-0.5591679811477661
1766400137974649300,-0.5983505859375,9.727532386779785,-1.1106597185134888,-0.5585071444511414
1766400137984689700,-0.588310302734375,9.727242469787598,-1.1124595403671265,-0.559965193271637
1766400137994699300,-0.57830078125,9.726624488830566,-1.116941213607788,-0.5617919564247131
1766400138004709000,-0.568290771484375,9.726222038269043,-1.1204520463943481,-0.5617725849151611
1766400138014718700,-0.55828125,9.725990295410156,-1.123962163925171,-0.5587530136108398
1766400138024728600,-0.548271484375,9.725693702697754,-1.128636121749878,-0.5544788837432861
1766400138034738400,-0.538261474609375,9.724410057067871,-1.1427162885665894,-0.5481322407722473
1766400138054758000,-0.5182421875,9.720566749572754,-1.1778435707092285,-0.541905403137207
1766400138064767700,-0.508232177734375,9.719186782836914,-1.1894646883010864,-0.5412746667861938
1766400138074808000,-0.49819189453125,9.713011741638184,-1.2393873929977417,-0.5401077270507812
1766400138084848000,-0.48815185546875,9.710624694824219,-1.2579187154769897,-0.5401843786239624
1766400138094888400,-0.478111572265625,9.704318046569824,-1.306049108505249,-0.5392821431159973
1766400138104867800,-0.468132080078125,9.695452690124512,-1.3705862760543823,-0.5385792255401611
1766400138114877400,-0.45812255859375,9.683036804199219,-1.4550716876983643,-0.5403234958648682
1766400138124917800,-0.448082275390625,9.666010856628418,-1.5624127388000488,-0.5454103946685791
1766400138134927600,-0.438072265625,9.627237319946289,-1.789370059967041,-0.5337032079696655
1766400138154947000,-0.418052978515625,9.573088645935059,-2.065253734588623,-0.5109609365463257
1766400138164987400,-0.4080126953125,9.522172927856445,-2.2911458015441895,-0.49926674365997314
1766400138174997200,-0.398002685546875,9.48774528503418,-2.42807936668396,-0.507466197013855
1766400138195077600,-0.37792236328125,9.436924934387207,-2.6155271530151367,-0.5233103632926941
1766400138205087500,-0.36791259765625,9.40394401550293,-2.7295970916748047,-0.5343460440635681
1766400138215097300,-0.357902587890625,9.370442390441895,-2.8385567665100098,-0.5547901391983032
1766400138225107000,-0.34789306640625,9.33585262298584,-2.9454991817474365,-0.5798932909965515
1766400138335336400,-0.23766357421875,8.609661102294922,-4.509115695953369,-1.3084335327148438
1766400138345346300,-0.22765380859375,8.465367317199707,-4.720892429351807,-1.4903457164764404
1766400138355386600,-0.21761328125,8.370450973510742,-4.84585428237915,-1.6197636127471924
1766400138375467300,-0.19753271484375,8.207569122314453,-5.0449724197387695,-1.8315151929855347
1766400138385446400,-0.1875537109375,8.072000503540039,-5.201032638549805,-1.9905884265899658
1766400138420572200,-0.152427734375,6.183304309844971,-6.967569828033447,-3.064326763153076
1766400138430551300,-0.14244873046875,5.992461204528809,-7.03406286239624,-3.2837114334106445
1766400138440591600,-0.132408447265625,5.794133186340332,-7.093710899353027,-3.5039515495300293
1766400138450571000,-0.122428955078125,5.5979790687561035,-7.139001369476318,-3.7239346504211426
1766400138490671000,-0.082328857421875,4.873510837554932,-7.161985397338867,-4.596221923828125
1766400138500711200,-0.072288818359375,4.701999664306641,-7.136420726776123,-4.809686660766602
1766400138520731000,-0.05226904296875,4.249176502227783,-7.050124168395996,-5.33016300201416
1766400138570901800,-0.00209814453125,3.3104257583618164,-6.768372058868408,-6.27699089050293
1766400138600961500,0.02796142578125,2.882793664932251,-6.510735988616943,-6.743162155151367
1766400138610971400,0.037971435546875,2.8188135623931885,-6.465452671051025,-6.813412666320801
1766400138621011500,0.048011474609375,2.6778695583343506,-6.3792853355407715,-6.950116157531738
1766400138631021300,0.058021240234375,2.5267765522003174,-6.2959771156311035,-7.081416130065918
1766400138681192200,0.108192138671875,1.6824071407318115,-5.815948486328125,-7.714573860168457
1766400138701272800,0.12827294921875,1.387851357460022,-5.613407611846924,-7.920474052429199
1766400138721292300,0.148292236328125,1.0973480939865112,-5.385908126831055,-8.121467590332031
1766400138761453600,0.18845361328125,0.4276280403137207,-4.829431533813477,-8.524324417114258
1766400138831674400,0.25867431640625,-0.6804004311561584,-3.3938515186309814,-9.175468444824219
1766400138911874600,0.33887451171875,-1.2344763278961182,-1.3014695644378662,-9.641195297241211
1766400138961984500,0.388984619140625,-1.2949825525283813,-0.39452582597732544,-9.712763786315918
1766400138971994000,0.398994140625,-1.341377854347229,-0.2918037176132202,-9.710094451904297
1766400138992074800,0.41907470703125,-1.4602234363555908,-0.15978051722049713,-9.696011543273926
1766400139002084600,0.429084716796875,-1.60531747341156,-0.09418006986379623,-9.673907279968262
1766400139012094200,0.43909423828125,-1.6467840671539307,-0.08485855162143707,-9.667021751403809
1766400139022134500,0.449134521484375,-1.8252800703048706,-0.05860519036650658,-9.635106086730957
1766400139032114000,0.459114013671875,-1.926360845565796,-0.06835340708494186,-9.615344047546387
1766400139052133400,0.47913330078125,-2.1243016719818115,-0.0607471689581871,-9.57361125946045
1766400139072183600,0.49918359375,-2.392965316772461,-0.049296822398900986,-9.510083198547363
1766400139112283600,0.53928369140625,-2.8668034076690674,-0.018148673698306084,-9.378246307373047
1766400139122323700,0.54932373046875,-3.032966136932373,0.01009929645806551,-9.325847625732422
1766400139132333600,0.55933349609375,-3.1363160610198975,0.031260158866643906,-9.291553497314453
1766400139142374000,0.569373779296875,-3.181978702545166,0.040456585586071014,-9.27597713470459
1766400139152475100,0.57947509765625,-3.3225159645080566,0.0769057646393776,-9.226339340209961
1766400139162454500,0.58945458984375,-3.3545634746551514,0.08630970120429993,-9.214654922485352
1766400139172464000,0.599464111328125,-3.4199604988098145,0.1049037054181099,-9.190390586853027
1766400139182474000,0.609473876953125,-3.4880759716033936,0.12210837751626968,-9.16454029083252
1766400139192483800,0.61948388671875,-3.5838282108306885,0.14403152465820312,-9.127204895019531
1766400139202493400,0.629493408203125,-3.60272479057312,0.1547485888004303,-9.119584083557129
1766400139212503300,0.63950341796875,-3.692843437194824,0.17865286767482758,-9.083026885986328
1766400139222513200,0.64951318359375,-3.7154040336608887,0.18760442733764648,-9.07364273071289
1766400139232492300,0.6594921875,-3.771970748901367,0.2086206078529358,-9.049812316894531
1766400139242532600,0.66953271484375,-3.827946901321411,0.2312832623720169,-9.025727272033691
1766400139262582500,0.68958251953125,-3.934288263320923,0.27789372205734253,-8.978562355041504
1766400139272592400,0.69959228515625,-3.9842498302459717,0.3025898039340973,-8.955699920654297
1766400139282663200,0.7096630859375,-4.030885696411133,0.33097130060195923,-8.933801651000977
1766400139292673000,0.719673095703125,-4.074766635894775,0.36305317282676697,-8.912625312805176
1766400139302713300,0.72971337890625,-4.1194987297058105,0.3942229449748993,-8.890707015991211
1766400139312692500,0.7396923828125,-4.186742782592773,0.4291927218437195,-8.857617378234863
1766400139322732800,0.74973291015625,-4.206283092498779,0.43836840987205505,-8.847904205322266
1766400139332742700,0.75974267578125,-4.269760608673096,0.457864910364151,-8.816457748413086
1766400139342782700,0.76978271484375,-4.288782596588135,0.46333304047584534,-8.806933403015137
1766400139362802400,0.789802490234375,-4.390041351318359,0.49818792939186096,-8.754982948303223
1766400139372812000,0.79981201171875,-4.428450584411621,0.5125570893287659,-8.734785079956055
1766400139382822000,0.80982177734375,-4.446433067321777,0.5187800526618958,-8.7252779006958
1766400139392831700,0.819831787109375,-4.485360145568848,0.5302577018737793,-8.704639434814453
1766400139402841300,0.82984130859375,-4.523766994476318,0.5399283766746521,-8.684148788452148
1766400139412851200,0.839851318359375,-4.581779479980469,0.5565048456192017,-8.652630805969238
1766400139422861000,0.849861083984375,-4.599267959594727,0.5625762343406677,-8.642955780029297
1766400139432840200,0.859840087890625,-4.635313034057617,0.579616904258728,-8.62254810333252
1766400139442880500,0.869880615234375,-4.669349193572998,0.5999165773391724,-8.60277271270752
1766400139452951300,0.879951416015625,-4.703417778015137,0.6179226636886597,-8.582917213439941
1766400139472940300,0.899940185546875,-4.785928726196289,0.6366667151451111,-8.535804748535156
1766400139482980600,0.909980712890625,-4.81563663482666,0.6373723745346069,-8.519025802612305
1766400139493021000,0.92002099609375,-4.828079700469971,0.6360700726509094,-8.512079238891602
1766400139503030500,0.930030517578125,-4.855642795562744,0.6371586322784424,-8.49630069732666
1766400139513010000,0.940010009765625,-4.880250930786133,0.6390977501869202,-8.482047080993652
1766400139523080700,0.950080810546875,-4.9014739990234375,0.6421787142753601,-8.469564437866211
1766400139533090300,0.96009033203125,-4.919535160064697,0.6465171575546265,-8.458757400512695
1766400139543130600,0.970130615234375,-4.9471964836120605,0.6557909250259399,-8.441896438598633
1766400139573190400,1.0001904296875,-4.969446659088135,0.6737276911735535,-8.427399635314941
1766400139583230700,1.010230712890625,-4.974041938781738,0.6800215840339661,-8.42418384552002
1766400139593240600,1.020240478515625,-4.975801467895508,0.684386670589447,-8.422791481018066
1766400139603250400,1.03025048828125,-4.974227428436279,0.6868314743041992,-8.423523902893066
1766400139613260000,1.040260009765625,-4.969995498657227,0.6894270181655884,-8.425809860229492
1766400139623270000,1.050269775390625,-4.962641716003418,0.6834933757781982,-8.430624961853027
1766400139633279700,1.06027978515625,-4.952433109283447,0.6712275147438049,-8.437609672546387
1766400139643319800,1.07031982421875,-4.9400858879089355,0.6534755229949951,-8.446239471435547
1766400139653329700,1.08032958984375,-4.925004959106445,0.631596028804779,-8.45670223236084
1766400139673349000,1.10034912109375,-4.887753963470459,0.5939216613769531,-8.481008529663086
1766400139683389400,1.110389404296875,-4.8566365242004395,0.5735471248626709,-8.500266075134277
1766400139693399300,1.1203994140625,-4.841086387634277,0.5629516243934631,-8.50984001159668
1766400139703470000,1.130469970703125,-4.816410064697266,0.5474976301193237,-8.5248384475708
1766400139713480000,1.14047998046875,-4.790925025939941,0.5223308205604553,-8.540762901306152
1766400139723550700,1.15055078125,-4.759620189666748,0.4850935935974121,-8.560436248779297
1766400139733591000,1.160591064453125,-4.719481468200684,0.4366491436958313,-8.585233688354492
1766400139743600600,1.1706005859375,-4.6462626457214355,0.3522678315639496,-8.628937721252441
1766400139753610500,1.180610595703125,-4.583948135375977,0.2878916561603546,-8.664578437805176
1766400139773660400,1.200660400390625,-4.427639961242676,0.12154285609722137,-8.749378204345703
1766400139783731200,1.210731201171875,-4.380111217498779,0.06758040934801102,-8.773849487304688
1766400139793710600,1.220710693359375,-4.233584403991699,-0.12402191758155823,-8.844870567321777
1766400139803781400,1.230781494140625,-4.11716365814209,-0.28046563267707825,-8.89610767364502
1766400139813821700,1.24082177734375,-3.985365629196167,-0.4516439139842987,-8.948925971984863
1766400139823862000,1.250862060546875,-3.9102509021759033,-0.5422512292861938,-8.976985931396484
1766400139833841200,1.260841064453125,-3.6812095642089844,-0.8144697546958923,-9.052942276000977
1766400139843881500,1.270881591796875,-3.510796308517456,-1.002851963043213,-9.101593017578125
1766400139853891300,1.280891357421875,-3.327803611755371,-1.1952457427978516,-9.146995544433594
1766400139883920400,1.31092041015625,-2.7124130725860596,-1.780466914176941,-9.254359245300293
1766400139903940000,1.330940185546875,-2.283505439758301,-2.16646671295166,-9.287755966186523
1766400139913949700,1.34094970703125,-2.0656330585479736,-2.3608932495117188,-9.291379928588867
1766400139923959600,1.35095947265625,-1.845986247062683,-2.556002616882324,-9.28598690032959
1766400139933969400,1.360969482421875,-1.6268962621688843,-2.7511870861053467,-9.271171569824219
1766400139944009700,1.371009765625,-1.4099305868148804,-2.945852756500244,-9.246862411499023
1766400139953988900,1.38098876953125,-1.1983364820480347,-3.137587785720825,-9.213574409484863
1766400139964029200,1.391029296875,-0.9898983836174011,-3.328857660293579,-9.171107292175293
1766400139994058500,1.42105859375,-0.5088701248168945,-3.793755292892456,-9.028779983520508
1766400140004098800,1.431098876953125,-0.26878654956817627,-4.067763805389404,-8.919161796569824
1766400140014108400,1.4411083984375,-0.1325625479221344,-4.245284557342529,-8.83913803100586
1766400140024118300,1.4511181640625,-0.014015666209161282,-4.418491840362549,-8.754836082458496
1766400140034128100,1.461128173828125,0.03954290598630905,-4.501386642456055,-8.71242618560791
1766400140044168200,1.471168212890625,0.14042320847511292,-4.66687536239624,-8.623859405517578
1766400140054178000,1.481177978515625,0.26333004236221313,-4.908065319061279,-8.48598575592041
1766400140064218400,1.49121826171875,0.32164543867111206,-5.064851760864258,-8.391318321228027
1766400140094278100,1.521278076171875,0.34599077701568604,-5.401691913604736,-8.177556037902832
1766400140124429600,1.5514296875,-0.011674655601382256,-5.793888568878174,-7.912085056304932
1766400140134408700,1.56140869140625,-0.10090543329715729,-5.8363494873046875,-7.880178928375244
1766400140144418600,1.57141845703125,-0.28649112582206726,-5.924121379852295,-7.809808731079102
1766400140154428400,1.581428466796875,-0.48521456122398376,-6.001586437225342,-7.740537166595459
1766400140164468500,1.591468505859375,-0.6965882182121277,-6.071241855621338,-7.669758319854736
1766400140174478300,1.601478271484375,-0.9230892658233643,-6.13566780090332,-7.594202041625977
1766400140224618800,1.65161865234375,-2.103954315185547,-6.359631538391113,-7.16232442855835
1766400140234628600,1.661628662109375,-2.2213919162750244,-6.374536514282227,-7.1134467124938965
1766400140244638200,1.67163818359375,-2.515869379043579,-6.420960426330566,-6.972235679626465
1766400140254648000,1.68164794921875,-2.531026601791382,-6.4446492195129395,-6.944839000701904
1766400140264688400,1.6916884765625,-2.752725124359131,-6.496881008148193,-6.810538291931152
1766400140274667500,1.70166748046875,-2.8772435188293457,-6.536258220672607,-6.720802307128906
1766400140284707800,1.711707763671875,-3.001199722290039,-6.5841240882873535,-6.619102478027344
1766400140304788500,1.73178857421875,-3.1595163345336914,-6.663670063018799,-6.4640069007873535
1766400140334848300,1.76184814453125,-3.3593590259552,-6.845675945281982,-6.16618537902832
1766400140344888600,1.771888671875,-3.392271041870117,-6.916252613067627,-6.068637847900391
1766400140354929000,1.781928955078125,-3.4169023036956787,-7.016452312469482,-5.938397407531738
1766400140364969200,1.79196923828125,-3.4164130687713623,-7.017073154449463,-5.937945365905762
1766400140374978800,1.801978759765625,-3.496558666229248,-7.087092399597168,-5.806687355041504
1766400140384988700,1.81198876953125,-3.5787353515625,-7.116384506225586,-5.720150470733643
1766400140394998300,1.821998291015625,-3.657892942428589,-7.142192363739014,-5.6373138427734375
1766400140425088800,1.8520888671875,-3.901658058166504,-7.2778239250183105,-5.289684295654297
1766400140445138700,1.872138671875,-3.9922704696655273,-7.390988349914551,-5.060185432434082
1766400140455148500,1.8821484375,-3.979511022567749,-7.46820592880249,-4.955780506134033
1766400140465188900,1.89218896484375,-3.9310319423675537,-7.567960739135742,-4.8418354988098145
1766400140475198500,1.902198486328125,-3.8441953659057617,-7.721890926361084,-4.665289878845215
1766400140485238800,1.91223876953125,-3.838005781173706,-7.795751094818115,-4.546030044555664
1766400140495218200,1.92221826171875,-3.8454017639160156,-7.827962875366211,-4.484004974365234
1766400140525369600,1.95236962890625,-3.991814613342285,-7.985396862030029,-4.058234691619873
1766400140535409700,1.96240966796875,-3.991722822189331,-8.046891212463379,-3.934985399246216
1766400140545419500,1.97241943359375,-3.9641895294189453,-8.14652156829834,-3.75364089012146
1766400140555429400,1.982429443359375,-3.9674792289733887,-8.203634262084961,-3.6235148906707764
1766400140565500200,1.992500244140625,-3.9696080684661865,-8.231643676757812,-3.557058811187744
1766400140575509800,2.002509765625,-3.975393533706665,-8.305153846740723,-3.375067710876465
1766400140585550000,2.012550048828125,-3.9746367931365967,-8.361542701721191,-3.2337770462036133
1766400140625680600,2.0526806640625,-4.039444446563721,-8.534234046936035,-2.6495628356933594
1766400140635690500,2.0626904296875,-4.125913143157959,-8.556549072265625,-2.4357168674468994
1766400140645730800,2.072730712890625,-4.183640480041504,-8.570788383483887,-2.2823548316955566
1766400140655740700,2.08274072265625,-4.249146938323975,-8.576445579528809,-2.135357618331909
1766400140665750300,2.092750244140625,-4.314523696899414,-8.579381942749023,-1.987329125404358
1766400140675790600,2.10279052734375,-4.385075569152832,-8.576667785644531,-1.8390917778015137
1766400140685861400,2.112861328125,-4.458608150482178,-8.569880485534668,-1.6877026557922363
1766400140695871200,2.122871337890625,-4.495617389678955,-8.56698226928711,-1.6020702123641968
1766400140715890700,2.142890625,-4.642649173736572,-8.547613143920898,-1.246814489364624
1766400140755990800,2.18299072265625,-4.693341255187988,-8.580718994140625,-0.7171005010604858
1766400140766031000,2.193031005859375,-4.677365303039551,-8.598515510559082,-0.5985182523727417
1766400140776041000,2.203041015625,-4.66811466217041,-8.607405662536621,-0.5400561690330505
1766400140786081300,2.213081298828125,-4.6310272216796875,-8.635968208312988,-0.3795557916164398
1766400140796121300,2.223121337890625,-4.618868827819824,-8.644601821899414,-0.3276151716709137
1766400140806161700,2.23316162109375,-4.581786632537842,-8.668380737304688,-0.19190379977226257
1766400140836252200,2.263252197265625,-4.4837822914123535,-8.721558570861816,0.02203735150396824
1766400140846323000,2.273322998046875,-4.440990447998047,-8.743118286132812,0.07699994742870331
1766400140856332500,2.28333251953125,-4.400553226470947,-8.762922286987305,0.12922552227973938
1766400140866372900,2.293372802734375,-4.409045696258545,-8.758566856384277,0.1348617672920227
1766400140876413200,2.3034130859375,-4.294585227966309,-8.813838005065918,0.2077823430299759
1766400140886453500,2.31345361328125,-4.23430871963501,-8.842192649841309,0.23793168365955353
1766400140896432600,2.3234326171875,-4.1757073402404785,-8.869236946105957,0.2655488848686218
1766400140906473000,2.333472900390625,-4.148759365081787,-8.881442070007324,0.2796761989593506
1766400140926492400,2.353492431640625,-4.012838840484619,-8.941987037658691,0.32930296659469604
1766400140956552400,2.383552490234375,-3.95556378364563,-8.965669631958008,0.375089168548584
1766400140966592500,2.393592529296875,-3.95090389251709,-8.967284202575684,0.38545331358909607
1766400140976602400,2.403602294921875,-3.948112726211548,-8.968019485473633,0.39679041504859924
1766400140986612200,2.4136123046875,-3.943321466445923,-8.969273567199707,0.4156482517719269
1766400140996621800,2.423621826171875,-3.9357409477233887,-8.9719820022583,0.42884647846221924
1766400141006662100,2.433662109375,-3.9207613468170166,-8.978142738342285,0.43702977895736694
1766400141016672000,2.443672119140625,-3.902139663696289,-8.986032485961914,0.44155076146125793
1766400141056772000,2.483772216796875,-3.82633113861084,-9.019007682800293,0.43249067664146423
1766400141066812400,2.4938125,-3.8284084796905518,-9.017763137817383,0.44002780318260193
1766400141076791600,2.50379150390625,-3.8243045806884766,-9.019875526428223,0.43238574266433716
1766400141086801400,2.513801513671875,-3.8245115280151367,-9.01977825164795,0.43254590034484863
1766400141096841700,2.523841796875,-3.8291351795196533,-9.018487930297852,0.41830840706825256
1766400141106882000,2.533882080078125,-3.8379783630371094,-9.015020370483398,0.4119470715522766
1766400141116891600,2.5438916015625,-3.8550283908843994,-9.007827758789062,0.41010582447052
1766400141126932000,2.553931884765625,-3.8792672157287598,-8.99704360961914,0.41817542910575867
1766400141177042000,2.6040419921875,-3.921128273010254,-8.977315902709961,0.4505445063114166
1766400141187082200,2.614082275390625,-3.9530351161956787,-8.962869644165039,0.4592305123806
1766400141197061400,2.624061279296875,-3.9767613410949707,-8.9520845413208,0.4647241234779358
1766400141207132200,2.634132080078125,-4.0000505447387695,-8.941020011901855,0.4776455760002136
1766400141217142000,2.64414208984375,-4.014835834503174,-8.933709144592285,0.49028119444847107
1766400141227151600,2.654151611328125,-4.049724578857422,-8.917218208312988,0.5033870339393616
1766400141257211600,2.684211669921875,-4.08747673034668,-8.898853302001953,0.5228206515312195
1766400141267221200,2.69422119140625,-4.091046333312988,-8.897366523742676,0.520191490650177
1766400141277231000,2.704231201171875,-4.09619140625,-8.895231246948242,0.5162123441696167
1766400141287302000,2.714302001953125,-4.0946478843688965,-8.896014213562012,0.5149617195129395
1766400141297311700,2.724311767578125,-4.102996349334717,-8.8928861618042,0.5023884177207947
1766400141307351800,2.734351806640625,-4.117340087890625,-8.886833190917969,0.49203768372535706
1766400141317392100,2.74439208984375,-4.132473468780518,-8.880328178405762,0.4825415313243866
1766400141327432400,2.754432373046875,-4.141265869140625,-8.876422882080078,0.47899845242500305
1766400141337442300,2.7644423828125,-4.156379699707031,-8.8700532913208,0.4659501612186432
1766400141367532500,2.794532470703125,-4.105000972747803,-8.894037246704102,0.46421122550964355
1766400141387582700,2.814582763671875,-4.0423665046691895,-8.921599388122559,0.4844871163368225
1766400141397622800,2.824622802734375,-3.9858758449554443,-8.94645881652832,0.49403324723243713
1766400141407632600,2.834632568359375,-3.9144489765167236,-8.977283477783203,0.5058560371398926
1766400141417642500,2.844642578125,-3.8939738273620605,-8.985921859741211,0.5104702711105347
1766400141427682800,2.854682861328125,-3.8766567707061768,-8.99323844909668,0.5134221315383911
1766400141437723000,2.864722900390625,-3.8728818893432617,-8.994759559631348,0.515277087688446
1766400141457773000,2.88477294921875,-3.8552849292755127,-9.00218391418457,0.5175430178642273
1766400141487863300,2.91486328125,-3.8217859268188477,-9.016569137573242,0.5155877470970154
1766400141497903600,2.924903564453125,-3.8066117763519287,-9.022801399230957,0.5188166499137878
1766400141507944000,2.93494384765625,-3.802241802215576,-9.024497032165527,0.5213441252708435
1766400141517953800,2.944953857421875,-3.800077438354492,-9.025296211242676,0.5233063697814941
1766400141527963400,2.95496337890625,-3.7976131439208984,-9.026241302490234,0.5249360203742981
1766400141537973200,2.96497314453125,-3.7927615642547607,-9.02819538116455,0.5263368487358093
1766400141548013600,2.975013671875,-3.787710666656494,-9.030365943908691,0.5254857540130615
1766400141588113700,3.01511376953125,-3.7498581409454346,-9.044488906860352,0.5533320903778076
1766400141598123300,3.025123291015625,-3.739776372909546,-9.048020362854004,0.5637070536613464
1766400141608133000,3.035133056640625,-3.734018325805664,-9.050046920776367,0.5693675875663757
1766400141618143000,3.04514306640625,-3.721142292022705,-9.054291725158691,0.5859183073043823
1766400141628152600,3.055152587890625,-3.713146209716797,-9.056901931762695,0.5962319374084473
1766400141638162400,3.065162353515625,-3.7093613147735596,-9.058075904846191,0.6019143462181091
1766400141648202800,3.07520263671875,-3.701172113418579,-9.060794830322266,0.611294150352478
1766400141668222200,3.09522216796875,-3.6831841468811035,-9.067028045654297,0.627358615398407
1766400141678232000,3.105232177734375,-3.6721465587615967,-9.071096420288086,0.6332076191902161
1766400141688302800,3.115302734375,-3.658189296722412,-9.076263427734375,0.6398948431015015
1766400141698312700,3.125312744140625,-3.641514778137207,-9.082468032836914,0.6469359993934631
1766400141708322300,3.135322265625,-3.62436842918396,-9.088907241821289,0.652811586856842
1766400141718332200,3.145332275390625,-3.607429027557373,-9.0950927734375,0.6604305505752563
1766400141728342000,3.155342041015625,-3.5925726890563965,-9.100517272949219,0.6666314601898193
1766400141738351600,3.1653515625,-3.5819461345672607,-9.104300498962402,0.6721549034118652
1766400141748361500,3.175361572265625,-3.5724680423736572,-9.107608795166016,0.6777668595314026
1766400141758371000,3.18537109375,-3.567737579345703,-9.10896110534668,0.684442400932312
1766400141768381000,3.195380859375,-3.56609845161438,-9.109241485595703,0.6892562508583069
1766400141798410200,3.22541015625,-3.5651211738586426,-9.109151840209961,0.6954442858695984
1766400141808420000,3.235420166015625,-3.564244508743286,-9.109440803527832,0.6961541771888733
1766400141818429700,3.2454296875,-3.5609548091888428,-9.110718727111816,0.6962950825691223
1766400141828470000,3.255469970703125,-3.556889295578003,-9.112194061279297,0.6977431774139404
1766400141838449400,3.265449462890625,-3.5507876873016357,-9.114461898803711,0.6991940140724182
1766400141848489500,3.275489501953125,-3.5429046154022217,-9.117430686950684,0.7005006670951843
1766400141858499300,3.285499267578125,-3.534510374069214,-9.120455741882324,0.7034867405891418
1766400141888589800,3.31558984375,-3.5157525539398193,-9.127420425415039,0.7071660161018372
1766400141898599400,3.325599365234375,-3.5064609050750732,-9.130982398986816,0.7073302268981934
1766400141908609300,3.335609375,-3.5013926029205322,-9.132770538330078,0.7093547582626343
1766400141918649600,3.345649658203125,-3.490518808364868,-9.136696815490723,0.7123448848724365
1766400141928690000,3.35568994140625,-3.4809279441833496,-9.140304565429688,0.7129954099655151
1766400141938699500,3.365699462890625,-3.4682490825653076,-9.145236015319824,0.7115423083305359
1766400141948739800,3.37573974609375,-3.449885606765747,-9.152122497558594,0.7122989892959595
1766400141958749700,3.385749755859375,-3.429964542388916,-9.159573554992676,0.7126917839050293
1766400141978769200,3.40576904296875,-3.378775119781494,-9.178468704223633,0.7141442894935608
1766400141998788600,3.42578857421875,-3.3117806911468506,-9.202397346496582,0.7200093865394592
1766400142008798500,3.435798583984375,-3.2745471000671387,-9.215459823608398,0.7232336401939392
1766400142018777600,3.445777587890625,-3.240536689758301,-9.227287292480469,0.7255918979644775
1766400142028787500,3.455787353515625,-3.2032976150512695,-9.240077018737793,0.7282128930091858
1766400142038797300,3.46579736328125,-3.1631717681884766,-9.253775596618652,0.7296449542045593
1766400142048837400,3.47583740234375,-3.1192848682403564,-9.268465995788574,0.7321022748947144
1766400142058877700,3.485877685546875,-3.0660102367401123,-9.285907745361328,0.7361331582069397
1766400142068887600,3.495887451171875,-2.999171257019043,-9.307504653930664,0.7387328147888184
1766400142088907000,3.515906982421875,-2.821546792984009,-9.362250328063965,0.7466983795166016
1766400142118966800,3.545966796875,-2.521735668182373,-9.446337699890137,0.7602218985557556
1766400142139017000,3.566016845703125,-2.3453643321990967,-9.491294860839844,0.7648466229438782
1766400142149026800,3.57602685546875,-2.259326219558716,-9.512125015258789,0.7650766372680664
1766400142159067000,3.58606689453125,-2.1116771697998047,-9.546021461486816,0.7646671533584595
1766400142169076700,3.59607666015625,-2.058934450149536,-9.557557106018066,0.7643918395042419
1766400142179086600,3.606086669921875,-1.8844670057296753,-9.593639373779297,0.7624211311340332
1766400142199106000,3.62610595703125,-1.7128981351852417,-9.625832557678223,0.7614075541496277
1766400142209146400,3.636146484375,-1.6092811822891235,-9.643960952758789,0.7580360770225525
1766400142219186700,3.646186767578125,-1.5193822383880615,-9.658780097961426,0.7548907399177551
1766400142229227000,3.65622705078125,-1.3997663259506226,-9.677513122558594,0.7462044358253479
1766400142239236600,3.666236572265625,-1.3605366945266724,-9.683348655700684,0.7430117726325989
1766400142249246500,3.67624658203125,-1.2429039478302002,-9.70024585723877,0.7285857796669006
1766400142259256300,3.68625634765625,-1.2033354043960571,-9.705571174621582,0.7240926027297974
1766400142269296400,3.69629638671875,-1.085991382598877,-9.720267295837402,0.7123547792434692
1766400142279306200,3.70630615234375,-1.0485124588012695,-9.724580764770508,0.709601104259491
1766400142309335600,3.73633544921875,-0.8966554403305054,-9.740636825561523,0.6974272727966309
1766400142319406300,3.74640625,-0.8839368224143982,-9.742232322692871,0.6913654804229736
1766400142329416200,3.756416259765625,-0.8892536163330078,-9.741814613342285,0.6904054284095764
1766400142339425800,3.76642578125,-0.9164450168609619,-9.739153861999512,0.6923901438713074
1766400142349466000,3.776466064453125,-0.9684984087944031,-9.733938217163086,0.6948787569999695
1766400142359476000,3.78647607421875,-0.9994354248046875,-9.730714797973633,0.6962225437164307
1766400142369485600,3.796485595703125,-1.0788929462432861,-9.721943855285645,0.7001198530197144
1766400142379495400,3.806495361328125,-1.1998528242111206,-9.706781387329102,0.7135366797447205
1766400142389535700,3.81653564453125,-1.2402607202529907,-9.701207160949707,0.7202335596084595
1766400142439645700,3.866645751953125,-1.7099229097366333,-9.624526977539062,0.7842299342155457
1766400142459665200,3.8866650390625,-1.903196930885315,-9.58583927154541,0.8123603463172913
1766400142469705500,3.89670556640625,-1.9953157901763916,-9.566056251525879,0.8244351148605347
1766400142479745800,3.906745849609375,-2.0973236560821533,-9.543356895446777,0.8342550992965698
1766400142489786000,3.9167861328125,-2.199737787246704,-9.519551277160645,0.842408299446106
1766400142499795700,3.926795654296875,-2.2935025691986084,-9.496594429016113,0.8514420986175537
1766400142529855500,3.95685546875,-2.508603811264038,-9.440119743347168,0.8726192712783813
1766400142539865300,3.966865234375,-2.5573008060455322,-9.42645263671875,0.8789718747138977
1766400142549875200,3.976875244140625,-2.6021909713745117,-9.413551330566406,0.88548344373703
1766400142559884800,3.986884765625,-2.641896963119507,-9.401854515075684,0.892166018486023
1766400142569894700,3.996894775390625,-2.6749932765960693,-9.39161491394043,0.9013237357139587
1766400142579935000,4.00693505859375,-2.7038002014160156,-9.382416725158691,0.9111252427101135
1766400142590005800,4.017005859375,-2.7296197414398193,-9.373839378356934,0.9223407506942749
1766400142600015400,4.027015380859375,-2.7488112449645996,-9.367000579833984,0.9347440600395203
1766400142660135200,4.08713525390625,-2.70900821685791,-9.369274139404297,1.0238970518112183
1766400142670144800,4.097144775390625,-2.646726369857788,-9.384181022644043,1.0499507188796997
1766400142680185000,4.10718505859375,-2.600182056427002,-9.395254135131836,1.0670753717422485
1766400142690195000,4.11719482421875,-2.5553386211395264,-9.40582275390625,1.082187294960022
1766400142700204800,4.127204833984375,-2.5079286098480225,-9.416876792907715,1.096869707107544
1766400142730264600,4.1572646484375,-2.375411033630371,-9.446252822875977,1.1384820938110352
1766400142740274200,4.167274169921875,-2.3462493419647217,-9.45202922821045,1.1509473323822021
1766400142750314500,4.177314453125,-2.323925256729126,-9.456326484680176,1.160872459411621
1766400142760324400,4.187324462890625,-2.3046207427978516,-9.460003852844238,1.1693874597549438
1766400142770334200,4.197334228515625,-2.2844927310943604,-9.463869094848633,1.177578091621399
1766400142780343800,4.20734375,-2.2636878490448,-9.46799087524414,1.1846022605895996
1766400142790353700,4.217353759765625,-2.2464983463287354,-9.47141170501709,1.1899720430374146
1766400142800455000,4.227454833984375,-2.2393882274627686,-9.472960472106934,1.1910306215286255
1766400142810464800,4.23746484375,-2.236588954925537,-9.473161697387695,1.1946873664855957
1766400142840494000,4.267494140625,-2.257209062576294,-9.468698501586914,1.1912950277328491
1766400142850564900,4.27756494140625,-2.258260726928711,-9.468727111816406,1.1890560388565063
1766400142860574500,4.287574462890625,-2.2558388710021973,-9.469756126403809,1.1854673624038696
1766400142870645200,4.297645263671875,-2.2523066997528076,-9.470840454101562,1.1834925413131714
1766400142880655000,4.307655029296875,-2.246554374694824,-9.473230361938477,1.1752984523773193
1766400142890726000,4.317725830078125,-2.2445478439331055,-9.474231719970703,1.1710495948791504
1766400142900735700,4.32773583984375,-2.244382381439209,-9.475077629089355,1.1644903421401978
1766400142910715000,4.33771484375,-2.2460317611694336,-9.475327491760254,1.1592764854431152
1766400142920755200,4.347755126953125,-2.2480740547180176,-9.47570514678955,1.1522074937820435
1766400142950845400,4.377845458984375,-2.2547576427459717,-9.477326393127441,1.1254901885986328
1766400142960885800,4.3878857421875,-2.2504520416259766,-9.479268074035645,1.1177555322647095
1766400142970956500,4.39795654296875,-2.240471363067627,-9.48286247253418,1.1072487831115723
1766400142980936000,4.40793603515625,-2.2320103645324707,-9.485209465026855,1.1042407751083374
1766400142990976300,4.417976318359375,-2.221797466278076,-9.487931251525879,1.101438283920288
1766400143001047000,4.428047119140625,-2.20869779586792,-9.491336822509766,1.0984455347061157
1766400143011056600,4.438056640625,-2.1951797008514404,-9.494771957397461,1.095872163772583
1766400143041086000,4.4680859375,-2.1695663928985596,-9.500876426696777,1.0939478874206543
1766400143051095800,4.478095703125,-2.1602625846862793,-9.503533363342285,1.089250087738037
1766400143061136100,4.48813623046875,-2.1509757041931152,-9.505925178527832,1.0867489576339722
1766400143071145700,4.498145751953125,-2.1454617977142334,-9.507265090942383,1.0859534740447998
1766400143081155600,4.508155517578125,-2.129905939102173,-9.51130485534668,1.0811752080917358
1766400143091196000,4.51819580078125,-2.1250433921813965,-9.51265811920166,1.078861117362976
1766400143101205800,4.528205810546875,-2.119128704071045,-9.514177322387695,1.0770868062973022
1766400143111245800,4.538245849609375,-2.1122019290924072,-9.515816688537598,1.0762269496917725
1766400143121255700,4.548255615234375,-2.1049041748046875,-9.517330169677734,1.0771431922912598
1766400143131296000,4.5582958984375,-2.0980045795440674,-9.5186128616333,1.0792498588562012
1766400143151315500,4.5783154296875,-2.084909439086914,-9.520928382873535,1.0841773748397827
1766400143161325300,4.5883251953125,-2.0788393020629883,-9.521923065185547,1.0871121883392334
1766400143171335200,4.598335205078125,-2.0717670917510986,-9.522931098937988,1.0917705297470093
1766400143181375200,4.608375244140625,-2.0643062591552734,-9.523850440979004,1.0978598594665527
1766400143191385000,4.618385009765625,-2.0601806640625,-9.524023056030273,1.1041218042373657
1766400143201395000,4.62839501953125,-2.0569565296173096,-9.523996353149414,1.110327959060669
1766400143211404500,4.638404541015625,-2.0527725219726562,-9.523752212524414,1.1201245784759521
1766400143221414400,4.648414306640625,-2.0421926975250244,-9.524727821350098,1.1311033964157104
1766400143241464600,4.668464599609375,-2.0006442070007324,-9.531330108642578,1.1495853662490845
1766400143251474200,4.67847412109375,-1.9882266521453857,-9.533534049987793,1.1528692245483398
1766400143261484000,4.688484130859375,-1.9619389772415161,-9.538067817687988,1.160367488861084
1766400143271463200,4.698463134765625,-1.9208424091339111,-9.545182228088379,1.1705994606018066
1766400143281503500,4.70850341796875,-1.8936656713485718,-9.549955368041992,1.1759060621261597
1766400143291543800,4.718543701171875,-1.8687416315078735,-9.554293632507324,1.1805226802825928
1766400143301523000,4.72852294921875,-1.8543291091918945,-9.556905746459961,1.182114839553833
1766400143311532800,4.73853271484375,-1.8359780311584473,-9.55998706817627,1.1858490705490112
1766400143321634000,4.748634033203125,-1.8265029191970825,-9.561439514160156,1.188785433769226
1766400143331644000,4.758643798828125,-1.8268886804580688,-9.561312675476074,1.1891860961914062
1766400143341653800,4.76865380859375,-1.8300673961639404,-9.560904502868652,1.1876072883605957
1766400143351693800,4.77869384765625,-1.832209587097168,-9.560501098632812,1.1875301599502563
1766400143361764900,4.788764892578125,-1.8331618309020996,-9.559941291809082,1.190550684928894
1766400143371805000,4.798804931640625,-1.8362141847610474,-9.559335708618164,1.1907254457473755
1766400143381814800,4.808814697265625,-1.8418992757797241,-9.5582275390625,1.1908490657806396
1766400143391824600,4.81882470703125,-1.850537896156311,-9.556496620178223,1.1913392543792725
1766400143401834200,4.828834228515625,-1.8604040145874023,-9.554646492004395,1.1908178329467773
1766400143411874600,4.83887451171875,-1.8655191659927368,-9.553833961486816,1.1893296241760254
1766400143421884400,4.848884521484375,-1.8701012134552002,-9.552952766418457,1.1892094612121582
1766400143451913700,4.878913818359375,-1.8677496910095215,-9.55350399017334,1.1884713172912598
1766400143461923300,4.88892333984375,-1.870291829109192,-9.552556991577148,1.1920809745788574
1766400143471963600,4.898963623046875,-1.8722277879714966,-9.551721572875977,1.195730447769165
1766400143482034400,4.909034423828125,-1.8707470893859863,-9.551342964172363,1.201068639755249
1766400143492074800,4.91907470703125,-1.8656483888626099,-9.55180549621582,1.2053133249282837
1766400143502084600,4.929084716796875,-1.8587679862976074,-9.552556037902832,1.2099804878234863
1766400143512094200,4.93909423828125,-1.8475878238677979,-9.554015159606934,1.215579867362976
1766400143522134500,4.949134521484375,-1.8439573049545288,-9.554357528686523,1.2183914184570312
1766400143532174800,4.9591748046875,-1.8377199172973633,-9.555130004882812,1.221748948097229
1766400143562234600,4.989234619140625,-1.844677448272705,-9.553093910217285,1.2271674871444702
1766400143572244500,4.999244384765625,-1.8478525876998901,-9.552437782287598,1.2274974584579468
1766400143582254300,5.00925439453125,-1.8503695726394653,-9.551898956298828,1.227914810180664
1766400143592233500,5.0192333984375,-1.852681279182434,-9.551294326782227,1.2291203737258911
1766400143602273800,5.029273681640625,-1.857524037361145,-9.550251007080078,1.229911208152771
1766400143612344600,5.039344482421875,-1.86561918258667,-9.548700332641602,1.229711651802063
1766400143622385000,5.049385009765625,-1.8744887113571167,-9.546819686889648,1.2308032512664795
1766400143642404400,5.069404296875,-1.8927812576293945,-9.543195724487305,1.2309297323226929
1766400143692605700,5.119605712890625,-1.9172897338867188,-9.538627624511719,1.228411078453064
1766400143702585000,5.129585205078125,-1.913736343383789,-9.53968334197998,1.2257611751556396
1766400143712625400,5.13962548828125,-1.8916642665863037,-9.544448852539062,1.2228955030441284
1766400143722635000,5.149635009765625,-1.8842473030090332,-9.546148300170898,1.2210990190505981
1766400143732675300,5.15967529296875,-1.875038743019104,-9.548727989196777,1.215094804763794
1766400143742685200,5.169685302734375,-1.8730021715164185,-9.54980754852295,1.2097235918045044
1766400143752695000,5.179695068359375,-1.8785698413848877,-9.549957275390625,1.1998761892318726
1766400143772745000,5.199744873046875,-1.8989111185073853,-9.547945022583008,1.183767557144165
1766400143782754800,5.2097548828125,-1.909043788909912,-9.54702091217041,1.174849271774292
1766400143792825600,5.21982568359375,-1.9141385555267334,-9.54655933380127,1.1703367233276367
1766400143802835200,5.229835205078125,-1.9182775020599365,-9.547327041625977,1.1572153568267822
1766400143812845000,5.239844970703125,-1.919137954711914,-9.548026084899902,1.1500176191329956
1766400143822855000,5.24985498046875,-1.9215947389602661,-9.548238754272461,1.1441247463226318
1766400143832864500,5.259864501953125,-1.9239766597747803,-9.548089981079102,1.1413486003875732
1766400143842874400,5.269874267578125,-1.928745150566101,-9.547895431518555,1.1349270343780518
1766400143852945200,5.279945068359375,-1.939699649810791,-9.546695709228516,1.1263128519058228
1766400143862955000,5.289955078125,-1.9480664730072021,-9.545552253723145,1.1215578317642212
1766400143903055000,5.33005517578125,-1.9742811918258667,-9.542120933532715,1.10478937625885
1766400143913095400,5.340095458984375,-1.9764958620071411,-9.54201602935791,1.1017136573791504
1766400143923135500,5.350135498046875,-1.977877140045166,-9.542046546936035,1.0989651679992676
1766400143933175800,5.36017578125,-1.9809482097625732,-9.541680335998535,1.096630573272705
1766400143943185700,5.370185546875,-1.9822932481765747,-9.541470527648926,1.0960148572921753
1766400143953226000,5.38022607421875,-1.98971426486969,-9.540205955505371,1.0935840606689453
1766400143963235600,5.390235595703125,-2.0033628940582275,-9.537903785705566,1.0887459516525269
1766400143973306400,5.400306396484375,-2.0124399662017822,-9.536428451538086,1.0848890542984009
1766400144013376000,5.4403759765625,-2.04582142829895,-9.531145095825195,1.0687856674194336
1766400144023385900,5.4503857421875,-2.051726818084717,-9.530238151550293,1.0655333995819092
1766400144033395700,5.460395751953125,-2.0581862926483154,-9.529109001159668,1.0631929636001587
1766400144043435800,5.470435791015625,-2.0635435581207275,-9.528294563293457,1.0601073503494263
1766400144053445600,5.480445556640625,-2.0664825439453125,-9.527793884277344,1.0588856935501099
1766400144063486000,5.49048583984375,-2.0713212490081787,-9.527103424072266,1.0556161403656006
1766400144073495800,5.500495849609375,-2.075993776321411,-9.526531219482422,1.0515998601913452
1766400144113626400,5.54062646484375,-2.100891590118408,-9.523261070251465,1.0315853357315063
1766400144123666700,5.550666748046875,-2.100163221359253,-9.523702621459961,1.028961420059204
1766400144133676300,5.56067626953125,-2.094841241836548,-9.525632858276367,1.0219274759292603
1766400144143686100,5.57068603515625,-2.0903375148773193,-9.527128219604492,1.0172165632247925
1766400144153696000,5.580696044921875,-2.087695360183716,-9.527934074401855,1.0150907039642334
1766400144163736000,5.590736083984375,-2.0840368270874023,-9.529095649719238,1.0116931200027466
1766400144173776400,5.6007763671875,-2.0843005180358887,-9.529580116271973,1.006569743156433
1766400144203836200,5.630836181640625,-2.083796501159668,-9.52989387512207,1.0046226978302002
1766400144223916800,5.650916748046875,-2.0800187587738037,-9.53110408782959,1.001000165939331
1766400144233957000,5.66095703125,-2.0801117420196533,-9.5313138961792,0.9987857341766357
1766400144243967000,5.670967041015625,-2.0827035903930664,-9.531037330627441,0.9960431456565857
1766400144253976600,5.6809765625,-2.0863234996795654,-9.530610084533691,0.9925619959831238
1766400144274026800,5.70102685546875,-2.0900497436523438,-9.530526161193848,0.9854714870452881
1766400144284036400,5.711036376953125,-2.0888428688049316,-9.531088829040527,0.9825707674026489
1766400144324075500,5.751075439453125,-2.0683178901672363,-9.5368013381958,0.9705156087875366
1766400144334115800,5.76111572265625,-2.068610668182373,-9.536964416503906,0.9682739973068237
1766400144344156200,5.77115625,-2.069807767868042,-9.536928176879883,0.9660642147064209
1766400144354165800,5.781165771484375,-2.0748026371002197,-9.536369323730469,0.960861086845398
1766400144364175600,5.791175537109375,-2.077899932861328,-9.536067962646484,0.9571373462677002
1766400144374216000,5.8012158203125,-2.080057382583618,-9.535873413085938,0.9543991684913635
1766400144384225800,5.811225830078125,-2.0763001441955566,-9.537298202514648,0.9483256936073303
1766400144414285600,5.84128564453125,-2.0673434734344482,-9.5400390625,0.9402803182601929
1766400144424295200,5.851295166015625,-2.0552759170532227,-9.543067932128906,0.9359887838363647
1766400144434335500,5.86133544921875,-2.0484890937805176,-9.54486083984375,0.9325833320617676
1766400144444345300,5.871345458984375,-2.0470004081726074,-9.54559326171875,0.9283493757247925
1766400144454355200,5.881355224609375,-2.0506670475006104,-9.545269966125488,0.9235668182373047
1766400144464364800,5.89136474609375,-2.052280902862549,-9.545343399047852,0.9192171096801758
1766400144474435600,5.901435546875,-2.0502350330352783,-9.54617691040039,0.9151076078414917
1766400144484445400,5.911445556640625,-2.0442490577697754,-9.547840118408203,0.9111465811729431
1766400144514474800,5.941474853515625,-2.007370948791504,-9.556050300598145,0.9070552587509155
1766400144524484400,5.951484375,-1.990204095840454,-9.559797286987305,0.9054206013679504
1766400144534494200,5.961494140625,-1.975996732711792,-9.563026428222656,0.9024170637130737
1766400144544504000,5.971504150390625,-1.9664316177368164,-9.565223693847656,0.9000290036201477
1766400144554513700,5.981513671875,-1.9622856378555298,-9.56668758392334,0.8935048580169678
1766400144564523500,5.9915234375,-1.9610686302185059,-9.567139625549316,0.8913044333457947
1766400144574563800,6.001563720703125,-1.9627152681350708,-9.567201614379883,0.8870280385017395
1766400144584604200,6.011604248046875,-1.9659639596939087,-9.567166328430176,0.8801751136779785
1766400144594613800,6.02161376953125,-1.9720325469970703,-9.566813468933105,0.8704089522361755
1766400144604623600,6.03162353515625,-1.9751865863800049,-9.566661834716797,0.8648691177368164
1766400144614664000,6.041663818359375,-1.9781728982925415,-9.566246032714844,0.862654983997345
1766400144624673800,6.051673828125,-1.980942964553833,-9.566142082214355,0.8574331402778625
1766400144634683400,6.061683349609375,-1.9896131753921509,-9.565040588378906,0.8496224284172058
1766400144644693200,6.071693359375,-1.9917625188827515,-9.564798355102539,0.8472896218299866
1766400144654703000,6.081703125,-1.9997605085372925,-9.563445091247559,0.8437383770942688
1766400144664712700,6.091712646484375,-2.0085551738739014,-9.56189250946045,0.8404217958450317
1766400144674722600,6.10172265625,-2.017606496810913,-9.560189247131348,0.8380959630012512
1766400144684732200,6.111732177734375,-2.0243337154388428,-9.558767318725586,0.8381029963493347
1766400144694742000,6.121741943359375,-2.026728630065918,-9.558238983154297,0.8383333086967468
1766400144704751900,6.131751953125,-2.0261270999908447,-9.558342933654785,0.8386480808258057
1766400144734781200,6.16178125,-2.025892734527588,-9.558110237121582,0.8418138027191162
1766400144744790800,6.171790771484375,-2.0283401012420654,-9.557525634765625,0.8425778150558472
1766400144754800600,6.181800537109375,-2.031451463699341,-9.556819915771484,0.8430956602096558
1766400144764841000,6.191841064453125,-2.0327608585357666,-9.556471824645996,0.8438739776611328
1766400144774850600,6.2018505859375,-2.032731533050537,-9.5563325881958,0.8455454111099243
1766400144784860400,6.2118603515625,-2.028444766998291,-9.556891441345215,0.8494842052459717
1766400144794870300,6.221870361328125,-2.022676706314087,-9.557783126831055,0.8531798720359802
1766400144804880000,6.2318798828125,-2.0141940116882324,-9.559267044067383,0.8566715121269226
1766400144844919000,6.2719189453125,-1.995283603668213,-9.562687873840332,0.8626978993415833
1766400144854959400,6.28195947265625,-1.9927935600280762,-9.563271522521973,0.8619883060455322
1766400144864969200,6.29196923828125,-1.9856717586517334,-9.564696311950684,0.8625950217247009
1766400144875009300,6.30200927734375,-1.9696762561798096,-9.567938804626465,0.8633154630661011
1766400144885049600,6.312049560546875,-1.9622184038162231,-9.5693941116333,0.8641828894615173
1766400144895059500,6.3220595703125,-1.9489374160766602,-9.571900367736816,0.8664706945419312
1766400144905099800,6.332099853515625,-1.9381518363952637,-9.573883056640625,0.868746817111969
1766400144915109400,6.342109375,-1.9292776584625244,-9.57542896270752,0.8714599013328552
1766400144925119200,6.352119140625,-1.9209861755371094,-9.576910018920898,0.8735136389732361
1766400144945199900,6.372199951171875,-1.9057395458221436,-9.579634666442871,0.8770219087600708
1766400144955209500,6.38220947265625,-1.8973733186721802,-9.581052780151367,0.8796519637107849
1766400144965219300,6.39221923828125,-1.8755004405975342,-9.585619926452637,0.876778781414032
1766400144975229200,6.402229248046875,-1.8685920238494873,-9.58714771270752,0.8748270273208618
1766400144985238800,6.41223876953125,-1.857991099357605,-9.589152336120605,0.8754717707633972
1766400144995279000,6.422279052734375,-1.8522107601165771,-9.590163230895996,0.8766428828239441
1766400145005289000,6.4322890625,-1.8544243574142456,-9.589390754699707,0.8803969621658325
1766400145015329300,6.442329345703125,-1.8632431030273438,-9.587539672851562,0.8819348216056824
1766400145045450000,6.472449951171875,-1.8890730142593384,-9.58254337310791,0.8812780976295471
1766400145055459800,6.4824599609375,-1.8838772773742676,-9.583558082580566,0.8814008831977844
1766400145065500200,6.492500244140625,-1.8745495080947876,-9.585488319396973,0.8802785873413086
1766400145075540500,6.50254052734375,-1.8609288930892944,-9.588134765625,0.880341112613678
1766400145085550000,6.512550048828125,-1.8474568128585815,-9.590755462646484,0.8801473379135132
1766400145095590400,6.52259033203125,-1.8406319618225098,-9.592061042785645,0.8802490830421448
1766400145105600300,6.532600341796875,-1.8347382545471191,-9.593257904052734,0.8795266151428223
1766400145115671000,6.542671142578125,-1.8351047039031982,-9.593255996704102,0.8787760734558105
1766400145125650200,6.552650146484375,-1.8338427543640137,-9.593684196472168,0.8767369389533997
1766400145155771100,6.582771240234375,-1.8124089241027832,-9.598074913024902,0.8732412457466125
1766400145165780700,6.59278076171875,-1.8087486028671265,-9.598794937133789,0.8728934526443481
1766400145175821000,6.602821044921875,-1.797094464302063,-9.601189613342285,0.8706552982330322
1766400145185831000,6.612830810546875,-1.793639898300171,-9.601841926574707,0.8705533146858215
1766400145195840800,6.6228408203125,-1.7698603868484497,-9.606443405151367,0.8684627413749695
1766400145205850400,6.632850341796875,-1.7536264657974243,-9.609707832336426,0.8652864694595337
1766400145215921200,6.642921142578125,-1.7309049367904663,-9.614096641540527,0.8622516393661499
1766400145225931000,6.652930908203125,-1.7186311483383179,-9.616538047790527,0.8596125245094299
1766400145266031000,6.693031005859375,-1.5465666055679321,-9.646659851074219,0.8488304018974304
1766400145276071400,6.703071533203125,-1.5263433456420898,-9.650124549865723,0.846036434173584
1766400145286081000,6.7130810546875,-1.4600427150726318,-9.660721778869629,0.8421040177345276
1766400145296182500,6.7231826171875,-1.411340355873108,-9.668194770812988,0.8393865823745728
1766400145306192100,6.733192138671875,-1.386798620223999,-9.671871185302734,0.8379203081130981
1766400145316202000,6.743201904296875,-1.2976946830749512,-9.684503555297852,0.8347241878509521
1766400145326242300,6.7532421875,-1.232322335243225,-9.69330883026123,0.8315937519073486
1766400145366312000,6.79331201171875,-1.1248469352722168,-9.708702087402344,0.8038903474807739
1766400145376321500,6.803321533203125,-1.1246107816696167,-9.709545135498047,0.7939587235450745
1766400145386331400,6.813331298828125,-1.1268126964569092,-9.710006713867188,0.7851418256759644
1766400145396371700,6.823371826171875,-1.1303554773330688,-9.710272789001465,0.7767162322998047
1766400145406381600,6.833381591796875,-1.1312830448150635,-9.71052074432373,0.7722527980804443
1766400145416391200,6.84339111328125,-1.1213287115097046,-9.712441444396973,0.7625538110733032
1766400145426401000,6.853401123046875,-1.1030402183532715,-9.71513843536377,0.75483638048172
1766400145436441300,6.86344140625,-1.083521842956543,-9.717877388000488,0.7478294372558594
1766400145466470700,6.893470703125,-1.0717097520828247,-9.720955848693848,0.7244651913642883
1766400145476510700,6.9035107421875,-1.078973650932312,-9.72048282623291,0.7200412750244141
1766400145486520600,6.9135205078125,-1.0859774351119995,-9.720222473144531,0.712949812412262
1766400145496530400,6.923530517578125,-1.0905308723449707,-9.720067024230957,0.7081289887428284
1766400145506540000,6.9335400390625,-1.0959218740463257,-9.719806671142578,0.7033554911613464
1766400145516580400,6.943580322265625,-1.0997551679611206,-9.719407081604004,0.7029089331626892
1766400145526651100,6.953651123046875,-1.1028963327407837,-9.719508171081543,0.6965376138687134
1766400145536661000,6.963660888671875,-1.1087656021118164,-9.719427108764648,0.6882988214492798
1766400145566751200,6.993751220703125,-1.1380571126937866,-9.716986656188965,0.6748226284980774
1766400145586771000,7.01377099609375,-1.156606912612915,-9.71511173248291,0.6702937483787537
1766400145596811000,7.02381103515625,-1.1619020700454712,-9.714468002319336,0.6704589128494263
1766400145606820900,7.03382080078125,-1.175143837928772,-9.713047981262207,0.6679483652114868
1766400145616830700,7.043830810546875,-1.1802847385406494,-9.712507247924805,0.6667267084121704
1766400145626840300,7.05384033203125,-1.179732322692871,-9.71252727508545,0.6674240827560425
1766400145636880600,7.063880615234375,-1.1738935708999634,-9.713014602661133,0.6706143617630005
1766400145646890500,7.073890380859375,-1.1647253036499023,-9.713890075683594,0.6739242076873779
1766400145686929700,7.1139296875,-1.1385020017623901,-9.716653823852539,0.6788684129714966
1766400145697000400,7.12400048828125,-1.1343085765838623,-9.717103004455566,0.6794772148132324
1766400145707010000,7.134010009765625,-1.1330395936965942,-9.717251777648926,0.6794281005859375
1766400145717020000,7.14402001953125,-1.1318833827972412,-9.717487335205078,0.6779991984367371
1766400145727029800,7.15402978515625,-1.1296353340148926,-9.717830657958984,0.6768307685852051
1766400145737039400,7.164039306640625,-1.1224439144134521,-9.71884822845459,0.6741867065429688
1766400145747049200,7.17404931640625,-1.1190911531448364,-9.719322204589844,0.6729136109352112
1766400145757058800,7.184058837890625,-1.1167553663253784,-9.719695091247559,0.6713941097259521
1766400145767068700,7.194068603515625,-1.1177046298980713,-9.719676971435547,0.6700813174247742
1766400145787088100,7.214088134765625,-1.1066232919692993,-9.720924377441406,0.67039954662323
1766400145807107800,7.23410791015625,-1.0439666509628296,-9.727553367614746,0.6747127771377563
1766400145817117400,7.244117431640625,-0.994361162185669,-9.732569694519043,0.6773021817207336
1766400145827127300,7.254127197265625,-0.9367881417274475,-9.738066673278809,0.6803635954856873
1766400145837137200,7.26413720703125,-0.8713111281394958,-9.743880271911621,0.6841244101524353
1766400145847146800,7.274146728515625,-0.7965285778045654,-9.749933242797852,0.6890127658843994
1766400145867227400,7.294227294921875,-0.6646639704704285,-9.759408950805664,0.6946680545806885
1766400145897287200,7.324287109375,-0.33111003041267395,-9.776116371154785,0.6988219618797302
1766400145907297000,7.334297119140625,-0.28577685356140137,-9.777573585510254,0.6984127759933472
1766400145917337300,7.34433740234375,-0.1656295359134674,-9.780574798583984,0.6952031850814819
1766400145927377700,7.354377685546875,-0.09766893088817596,-9.781686782836914,0.6924462914466858
1766400145937387300,7.36438720703125,-0.03717150166630745,-9.782408714294434,0.6881242990493774
1766400145947427600,7.374427490234375,-0.00802022498100996,-9.78262710571289,0.6859709620475769
1766400145957437400,7.3844375,0.05118541419506073,-9.782916069030762,0.6799497604370117
1766400145977487400,7.4044873046875,0.20092180371284485,-9.781763076782227,0.6686953902244568
1766400145987497200,7.414497314453125,0.2551882266998291,-9.780799865722656,0.6642574071884155
1766400145997537500,7.42453759765625,0.2997153699398041,-9.779870986938477,0.659318208694458
1766400146007516700,7.4345166015625,0.3275742530822754,-9.779175758361816,0.6563605070114136
1766400146017526500,7.444526611328125,0.3324117660522461,-9.779160499572754,0.6541627049446106
1766400146027536100,7.4545361328125,0.31896600127220154,-9.779851913452148,0.6505024433135986
1766400146037546000,7.4645458984375,0.28669747710227966,-9.781413078308105,0.641984760761261
1766400146047525000,7.474525146484375,0.23292788863182068,-9.783595085144043,0.6304144859313965
1766400146057535000,7.484534912109375,0.19710078835487366,-9.784784317016602,0.6241425275802612
1766400146067544800,7.494544921875,0.050452422350645065,-9.787205696105957,0.6151993870735168
1766400146087594800,7.5145947265625,-0.0861491784453392,-9.787452697753906,0.6072487235069275
1766400146127694800,7.55469482421875,-0.282854825258255,-9.784928321838379,0.5878562927246094
1766400146137735200,7.564735107421875,-0.28040802478790283,-9.785058975219727,0.5868722796440125
1766400146147775500,7.574775390625,-0.243551567196846,-9.786234855651855,0.5837158560752869
1766400146157785300,7.584785400390625,-0.22653087973594666,-9.786704063415527,0.5826680660247803
1766400146177835300,7.604835205078125,-0.17853987216949463,-9.787568092346191,0.5848278999328613
1766400146207895000,7.63489501953125,-0.20868074893951416,-9.786742210388184,0.5886562466621399
1766400146217905000,7.64490478515625,-0.2300187200307846,-9.786219596862793,0.5894178748130798
1766400146227945200,7.6549453125,-0.23138825595378876,-9.786089897155762,0.5910159349441528
1766400146237985500,7.664985595703125,-0.22638124227523804,-9.786123275756836,0.592422604560852
1766400146247964700,7.674964599609375,-0.2252461016178131,-9.786006927490234,0.5947492718696594
1766400146258005000,7.6850048828125,-0.22596213221549988,-9.785863876342773,0.5968251824378967
1766400146298044200,7.725044189453125,-0.2371615767478943,-9.785319328308105,0.601386547088623
1766400146308053800,7.7350537109375,-0.23781800270080566,-9.785282135009766,0.6017583012580872
1766400146318124500,7.74512451171875,-0.23948095738887787,-9.785236358642578,0.6018208265304565
1766400146328104000,7.75510400390625,-0.23971067368984222,-9.785229682922363,0.6018587946891785
1766400146338144300,7.765144287109375,-0.24048049747943878,-9.78524398803711,0.6013210415840149
1766400146348153900,7.77515380859375,-0.24393267929553986,-9.78524112701416,0.5999553203582764
1766400146358224600,7.785224609375,-0.24999533593654633,-9.785154342651367,0.5989040732383728
1766400146408273400,7.8352734375,-0.23791620135307312,-9.785018920898438,0.6059773564338684
1766400146418313700,7.845313720703125,-0.23398703336715698,-9.7849760055542,0.6082049608230591
1766400146428323600,7.855323486328125,-0.2344605028629303,-9.784749984741211,0.6116364002227783
1766400146438333400,7.86533349609375,-0.23407763242721558,-9.784485816955566,0.6160165071487427
1766400146448343000,7.875343017578125,-0.2328513115644455,-9.78449821472168,0.6162646412849426
1766400146458353000,7.885352783203125,-0.2350911945104599,-9.78442668914795,0.6165539622306824
1766400146468362800,7.89536279296875,-0.24073709547519684,-9.784335136413574,0.6158347129821777
1766400146478402800,7.90540283203125,-0.25177404284477234,-9.784107208251953,0.6150131821632385
1766400146528512800,7.9555126953125,-0.2573451101779938,-9.785041809082031,0.5976341962814331
1766400146538522600,7.965522705078125,-0.2609761655330658,-9.785272598266602,0.5922185778617859
1766400146548532200,7.9755322265625,-0.26399871706962585,-9.785439491271973,0.5881368517875671
1766400146558542000,7.9855419921875,-0.2663257122039795,-9.785680770874023,0.5830234885215759
1766400146568552000,7.995552001953125,-0.27748188376426697,-9.785757064819336,0.5765203833580017
1766400146578592300,8.00559228515625,-0.2833002209663391,-9.78575611114502,0.5736746191978455
1766400146608652000,8.035652099609376,-0.33087795972824097,-9.78509521484375,0.559289276599884
1766400146618722800,8.045722900390626,-0.3382762670516968,-9.784984588623047,0.5568065047264099
1766400146628732400,8.055732421875,-0.34449031949043274,-9.784904479980469,0.5544382929801941
1766400146638772700,8.065772705078125,-0.34649816155433655,-9.78502082824707,0.5510963201522827
1766400146648782600,8.075782470703125,-0.34682783484458923,-9.78519344329834,0.5478259325027466
1766400146658792400,8.08579248046875,-0.34680503606796265,-9.78543758392334,0.5434542894363403
1766400146668802000,8.095802001953125,-0.3455383777618408,-9.785587310791016,0.5415545701980591
1766400146688821500,8.115821533203125,-0.3502630591392517,-9.785727500915527,0.5359457731246948
1766400146728891100,8.15589111328125,-0.34789514541625977,-9.786049842834473,0.5316171050071716
1766400146738931500,8.165931396484375,-0.3457832932472229,-9.78608226776123,0.5324114561080933
1766400146748880100,8.175880126953125,-0.346314013004303,-9.786105155944824,0.5316279530525208
1766400146758920400,8.18592041015625,-0.3496300280094147,-9.786038398742676,0.5306678414344788
1766400146768930300,8.195930419921876,-0.3497638702392578,-9.785930633544922,0.5325397849082947
1766400146778970600,8.205970703125,-0.3520394265651703,-9.785868644714355,0.5322267413139343
1766400146788949800,8.21594970703125,-0.35653966665267944,-9.785758972167969,0.5312447547912598
1766400146829080300,8.256080322265625,-0.3703150749206543,-9.785574913024902,0.5251680612564087
1766400146839120600,8.26612060546875,-0.37984395027160645,-9.785250663757324,0.5244020819664001
1766400146849161000,8.276160888671875,-0.3872136175632477,-9.784954071044922,0.524552583694458
1766400146859170800,8.2861708984375,-0.39207157492637634,-9.784700393676758,0.5256336331367493
1766400146869150000,8.29614990234375,-0.39330431818962097,-9.78455638885498,0.5274015665054321
1766400146879220700,8.306220703125,-0.39798519015312195,-9.784296989440918,0.5286986231803894
1766400146889230600,8.316230712890626,-0.40007075667381287,-9.784136772155762,0.5301371216773987
1766400146909219600,8.336219482421875,-0.39813482761383057,-9.784093856811523,0.5323153138160706
1766400146929300200,8.35630029296875,-0.3968968093395233,-9.784258842468262,0.5302446484565735
1766400146939340500,8.366340576171876,-0.40025487542152405,-9.784073829650879,0.5311384201049805
1766400146949350100,8.37635009765625,-0.40490591526031494,-9.783914566040039,0.5305179357528687
1766400146959360000,8.386360107421876,-0.41177991032600403,-9.78366756439209,0.529798686504364
1766400146969369600,8.39636962890625,-0.4169716238975525,-9.783493995666504,0.5289490818977356
1766400146979410000,8.406409912109375,-0.42787060141563416,-9.783019065856934,0.5290437340736389
1766400146989419800,8.416419677734375,-0.4394160807132721,-9.782564163208008,0.5279895663261414
1766400146999429600,8.4264296875,-0.45450785756111145,-9.782033920288086,0.5249807238578796
1766400147029489400,8.456489501953126,-0.46674951910972595,-9.781837463378906,0.5179024934768677
1766400147049508900,8.4765087890625,-0.4649783968925476,-9.781997680664062,0.5164388418197632
1766400147059518700,8.486518798828126,-0.4701584279537201,-9.7818021774292,0.5154621005058289
1766400147069528300,8.4965283203125,-0.47337329387664795,-9.781635284423828,0.5157079100608826
1766400147079568600,8.506568603515625,-0.4885813891887665,-9.78103256225586,0.5129626989364624
1766400147089578500,8.51657861328125,-0.49484512209892273,-9.780815124511719,0.5110656023025513
1766400147099588400,8.52658837890625,-0.5201134085655212,-9.779670715332031,0.5078583359718323
1766400147139749400,8.566749267578125,-0.5840536952018738,-9.776399612426758,0.5012409687042236
1766400147149759200,8.57675927734375,-0.5995458364486694,-9.775527000427246,0.4999783933162689
1766400147159799300,8.58679931640625,-0.6147054433822632,-9.77458667755127,0.4999985694885254
1766400147169809200,8.59680908203125,-0.6276900172233582,-9.773823738098145,0.49879884719848633
1766400147179849500,8.606849365234375,-0.6405267119407654,-9.773050308227539,0.49763330817222595
1766400147189859300,8.616859375,-0.6452338695526123,-9.772783279418945,0.4967772662639618
1766400147199899400,8.6268994140625,-0.6467623710632324,-9.772767066955566,0.4951157569885254
1766400147209909200,8.6369091796875,-0.6490016579627991,-9.772627830505371,0.49491965770721436
1766400147229898200,8.656898193359375,-0.6405535936355591,-9.773209571838379,0.4944421052932739
1766400147239969000,8.666968994140625,-0.6364543437957764,-9.773467063903809,0.49462154507637024
1766400147249979000,8.676978759765625,-0.6263725161552429,-9.77412223815918,0.4945686459541321
1766400147259988700,8.68698876953125,-0.6238204836845398,-9.774311065673828,0.4940589666366577
1766400147269998300,8.696998291015625,-0.6201871037483215,-9.774638175964355,0.4921899437904358
1766400147280069000,8.707069091796875,-0.619185209274292,-9.77479362487793,0.49033671617507935
1766400147290079000,8.717078857421875,-0.6202017068862915,-9.774816513061523,0.4885863661766052
1766400147300180200,8.72718017578125,-0.6187035441398621,-9.774944305419922,0.4879331588745117
1766400147330240000,8.757239990234375,-0.6369394659996033,-9.774129867553711,0.4807213246822357
1766400147340280300,8.7672802734375,-0.6420119404792786,-9.7738676071167,0.4792819321155548
1766400147350290200,8.777290283203126,-0.6478109955787659,-9.773612976074219,0.47667351365089417
1766400147360330500,8.78733056640625,-0.6501491069793701,-9.773422241210938,0.4774424433708191
1766400147370370800,8.797370849609376,-0.6543529629707336,-9.773187637329102,0.47647127509117126
1766400147380411000,8.807410888671875,-0.6598790287971497,-9.77292251586914,0.47428953647613525
1766400147390420700,8.817420654296875,-0.6687976717948914,-9.772354125976562,0.4735080301761627
1766400147400522000,8.82752197265625,-0.6774234771728516,-9.771700859069824,0.4747188687324524
1766400147410531800,8.83753173828125,-0.6839210391044617,-9.771154403686523,0.4766472280025482
1766400147420572200,8.847572265625,-0.6849334239959717,-9.770927429199219,0.47982057929039
1766400147450601500,8.8776015625,-0.6801865100860596,-9.77075481414795,0.489971399307251
1766400147460611000,8.887611083984375,-0.6823188662528992,-9.77040958404541,0.4938651919364929
1766400147470621000,8.897620849609375,-0.6860130429267883,-9.769979476928711,0.49726271629333496
1766400147480661200,8.9076611328125,-0.6926970481872559,-9.769325256347656,0.5008750557899475
1766400147490671000,8.917671142578126,-0.7011755108833313,-9.768450736999512,0.5061004161834717
1766400147500680700,8.9276806640625,-0.7043278217315674,-9.768134117126465,0.5078411102294922
1766400147510690600,8.937690673828126,-0.7090911269187927,-9.767694473266602,0.5096490383148193
1766400147540780800,8.96778076171875,-0.7169979214668274,-9.766733169555664,0.5169724822044373
1766400147550821000,8.977821044921875,-0.7170891165733337,-9.766783714294434,0.5158894062042236
1766400147560831000,8.9878310546875,-0.7161860466003418,-9.76686954498291,0.5154662132263184
1766400147570840600,8.997840576171875,-0.7144097089767456,-9.766956329345703,0.5162932872772217
1766400147580881000,9.007880859375,-0.7124719619750977,-9.767012596130371,0.5179135799407959
1766400147590921200,9.017921142578125,-0.7119529247283936,-9.767077445983887,0.517431378364563
1766400147600992000,9.027991943359375,-0.7135942578315735,-9.766982078552246,0.5169546604156494
1766400147611001900,9.038001953125,-0.7182523012161255,-9.766504287719727,0.5195160508155823
1766400147621011500,9.048011474609375,-0.7210246920585632,-9.766160011291504,0.5221458077430725
1766400147661111600,9.088111572265625,-0.7213380336761475,-9.765654563903809,0.5310933589935303
1766400147671121400,9.098121337890625,-0.7239344716072083,-9.765327453613281,0.5335483551025391
1766400147681161700,9.10816162109375,-0.727298378944397,-9.765059471130371,0.5339306592941284
1766400147691171600,9.118171630859376,-0.730052649974823,-9.76489543914795,0.5331409573554993
1766400147701211600,9.128211669921875,-0.729908287525177,-9.764949798583984,0.5323392748832703
1766400147711221500,9.138221435546875,-0.7248480916023254,-9.765401840209961,0.5309872627258301
1766400147721261800,9.14826171875,-0.7209066152572632,-9.76572036743164,0.5304843187332153
1766400147731302100,9.15830224609375,-0.7180044651031494,-9.765978813171387,0.5296706557273865
1766400147771402200,9.19840234375,-0.7152449488639832,-9.766284942626953,0.527742326259613
1766400147781442600,9.208442626953126,-0.7165396809577942,-9.766164779663086,0.5281962156295776
1766400147791452200,9.2184521484375,-0.7176999449729919,-9.766057014465332,0.5286407470703125
1766400147801523000,9.22852294921875,-0.7207488417625427,-9.765859603881836,0.5281365513801575
1766400147811532800,9.23853271484375,-0.7205799221992493,-9.76591968536377,0.5272577404975891
1766400147821573000,9.248572998046875,-0.720269501209259,-9.765861511230469,0.528786838054657
1766400147831583000,9.2585830078125,-0.7182926535606384,-9.765885353088379,0.5309925675392151
1766400147841653800,9.26865380859375,-0.7155319452285767,-9.766081809997559,0.5311042070388794
1766400147851663400,9.278663330078125,-0.7119131684303284,-9.766288757324219,0.5321633219718933
1766400147871744000,9.298743896484375,-0.7059212327003479,-9.766763687133789,0.5314034819602966
1766400147881784300,9.308784423828126,-0.7048954367637634,-9.766868591308594,0.5308437943458557
1766400147891794000,9.3187939453125,-0.7056319117546082,-9.766839981079102,0.5303863883018494
1766400147901865000,9.328864990234376,-0.709217369556427,-9.76671314239502,0.5279591679573059
1766400147911905000,9.338905029296875,-0.7146575450897217,-9.766390800476074,0.5265429019927979
1766400147921915000,9.348914794921875,-0.7191746830940247,-9.766129493713379,0.5252802968025208
1766400147931955200,9.358955078125,-0.7217717170715332,-9.766018867492676,0.5237178802490234
1766400147941995500,9.36899560546875,-0.7221055030822754,-9.766013145446777,0.5234025120735168
1766400147962106600,9.389106689453126,-0.7243260741233826,-9.765815734863281,0.5240010619163513
1766400147972116200,9.3991162109375,-0.7245926260948181,-9.765738487243652,0.5251251459121704
1766400147982187000,9.40918701171875,-0.7211702466011047,-9.765897750854492,0.5268351435661316
1766400147992196900,9.41919677734375,-0.7187690734863281,-9.766053199768066,0.5272150635719299
1766400148002267600,9.429267578125,-0.7177203893661499,-9.766109466552734,0.5276193022727966
1766400148012308000,9.439307861328125,-0.7162655591964722,-9.766201972961426,0.527866542339325
1766400148022317800,9.44931787109375,-0.7174187898635864,-9.766144752502441,0.5273650288581848
1766400148032358000,9.45935791015625,-0.7206535339355469,-9.766067504882812,0.5243585109710693
1766400148042398200,9.469398193359375,-0.7249696254730225,-9.766014099121094,0.5193880200386047
1766400148052438500,9.4794384765625,-0.7289671897888184,-9.765965461730957,0.5147197842597961
1766400148072488700,9.49948876953125,-0.7348299622535706,-9.766107559204102,0.5035881400108337
1766400148092538600,9.51953857421875,-0.7434306144714355,-9.765973091125488,0.4934466779232025
1766400148122629000,9.549629150390626,-0.7463794946670532,-9.766459465026855,0.47916123270988464
1766400148142679000,9.569678955078125,-0.7506482601165771,-9.766607284545898,0.46939796209335327
1766400148152689000,9.57968896484375,-0.753910481929779,-9.766529083251953,0.4657321572303772
1766400148172708400,9.599708251953125,-0.7667921781539917,-9.765984535217285,0.4560255706310272
1766400148182748700,9.609748779296876,-0.7714011669158936,-9.76574993133545,0.45331311225891113
1766400148192789000,9.6197890625,-0.7818997502326965,-9.765129089355469,0.44863635301589966
1766400148202829300,9.629829345703126,-0.7970107793807983,-9.764202117919922,0.4421873092651367
1766400148212808400,9.639808349609375,-0.8033762574195862,-9.763808250427246,0.4393555819988251
1766400148222848800,9.649848876953126,-0.8144903779029846,-9.763052940368652,0.4356731176376343
1766400148232858400,9.6598583984375,-0.8245306611061096,-9.762312889099121,0.43334904313087463
1766400148242898700,9.669898681640625,-0.8301455974578857,-9.76213264465332,0.42662206292152405
1766400148252908500,9.679908447265625,-0.8336766958236694,-9.76202392578125,0.4221969544887543
1766400148262918400,9.68991845703125,-0.834958553314209,-9.762060165405273,0.4188227951526642
1766400148282968300,9.70996826171875,-0.8371347188949585,-9.762053489685059,0.41462212800979614
1766400148293008600,9.720008544921875,-0.8446171879768372,-9.761460304260254,0.41340282559394836
1766400148303049000,9.730049072265626,-0.8489636778831482,-9.761066436767578,0.41378217935562134
1766400148313058800,9.740058837890626,-0.8565694689750671,-9.760457992553711,0.4125140607357025
1766400148323099000,9.750098876953125,-0.863802969455719,-9.759817123413086,0.4125765860080719
1766400148333169700,9.760169677734375,-0.865663468837738,-9.75960922241211,0.41360390186309814
1766400148343179500,9.770179443359375,-0.8663555383682251,-9.759547233581543,0.4136401414871216
1766400148353189400,9.780189453125,-0.8674538731575012,-9.759422302246094,0.414257675409317
1766400148363199000,9.790198974609375,-0.8708160519599915,-9.759108543395996,0.4146125018596649
1766400148413369900,9.840369873046875,-0.8914134502410889,-9.757129669189453,0.41741088032722473
1766400148423410200,9.85041015625,-0.8909457921981812,-9.75719165802002,0.4169234037399292
1766400148433420000,9.860419921875,-0.8920674920082092,-9.757142066955566,0.4156959056854248
1766400148443460400,9.87046044921875,-0.8946844339370728,-9.756919860839844,0.41530632972717285
1766400148453470000,9.880469970703125,-0.8991478085517883,-9.756536483764648,0.41462066769599915
1766400148463541000,9.890541015625,-0.9046943783760071,-9.756020545959473,0.41475188732147217
1766400148483591000,9.9105908203125,-0.9128677248954773,-9.755248069763184,0.41499972343444824
1766400148493600800,9.920600830078126,-0.9144102931022644,-9.755064010620117,0.41593262553215027
1766400148523721500,9.950721435546875,-0.9202935099601746,-9.754212379455566,0.42280688881874084
1766400148533731300,9.9607314453125,-0.9231313467025757,-9.753885269165039,0.42420828342437744
1766400148543771600,9.970771728515626,-0.9277151823043823,-9.753340721130371,0.426728755235672
1766400148553781200,9.98078125,-0.9341098070144653,-9.75270938873291,0.4272121489048004
1766400148563821600,9.990821533203125,-0.9401865005493164,-9.752097129821777,0.42788639664649963
1766400148573831400,10.00083154296875,-0.9447796940803528,-9.751648902893066,0.42794135212898254
1766400148624002300,10.051002197265625,-0.9594950079917908,-9.750143051147461,0.42952248454093933
1766400148644052200,10.07105224609375,-0.9681512117385864,-9.749283790588379,0.4296095669269562
1766400148654062000,10.08106201171875,-0.9694470763206482,-9.749176025390625,0.4290721118450165
1766400148664072000,10.091072021484376,-0.9774112105369568,-9.748351097106934,0.42980536818504333
1766400148674112300,10.1011123046875,-0.9818792939186096,-9.747870445251465,0.4304834306240082
1766400148714303700,10.1413037109375,-0.9962427616119385,-9.746274948120117,0.4336617588996887
1766400148724313600,10.151313720703126,-1.0004945993423462,-9.745857238769531,0.43321460485458374
1766400148734354000,10.16135400390625,-1.002447485923767,-9.745651245117188,0.4333654046058655
1766400148744363500,10.171363525390625,-1.0076234340667725,-9.745146751403809,0.4326508343219757
1766400148754403800,10.18140380859375,-1.0180705785751343,-9.744112968444824,0.43150779604911804
1766400148764444200,10.191444091796875,-1.0253151655197144,-9.743407249450684,0.43030309677124023
1766400148774423600,10.201423583984376,-1.0321955680847168,-9.742724418640137,0.4293292760848999
1766400148814493000,10.241492919921875,-1.0417518615722656,-9.741796493530273,0.4272562861442566
1766400148844552700,10.271552734375,-1.0373107194900513,-9.74221134185791,0.4286307990550995
1766400148854593000,10.281593017578125,-1.0387556552886963,-9.741995811462402,0.4299827814102173
1766400148864603000,10.291602783203125,-1.039247751235962,-9.741914749145508,0.43065643310546875
1766400148874643200,10.301643310546876,-1.0412544012069702,-9.741621017456055,0.43242785334587097
1766400148884683500,10.31168359375,-1.0424854755401611,-9.741410255432129,0.4342123866081238
1766400148914773800,10.341773681640625,-1.0391021966934204,-9.741584777832031,0.4384151101112366
1766400148924783600,10.35178369140625,-1.037623405456543,-9.741726875305176,0.4387354254722595
1766400148934824000,10.361823974609376,-1.036498785018921,-9.741798400878906,0.43979281187057495
1766400148944864000,10.371864013671875,-1.0370441675186157,-9.741687774658203,0.4410057067871094
1766400148964914200,10.3919140625,-1.0353888273239136,-9.741884231567383,0.4405190944671631
1766400148974924000,10.401924072265626,-1.031456708908081,-9.742351531982422,0.43938305974006653
