time,seconds_elapsed,z,y,x
1766400711800661200,-1.2553388671875,10.232817649841309,1.0749965906143188,-2.2194249629974365
1766400711840761300,-1.21523876953125,9.526528358459473,0.2849099934101105,-2.3080103397369385
1766400711850801700,-1.2051982421875,9.440337181091309,0.8906430602073669,-1.98958158493042
1766400711860811300,-1.195188720703125,9.641449928283691,1.7501614093780518,-1.5610195398330688
1766400711870821000,-1.185178955078125,9.634267807006836,1.4197616577148438,-2.10210919380188
1766400711880831000,-1.1751689453125,9.837775230407715,1.3287819623947144,-1.8195933103561401
1766400711890871300,-1.165128662109375,9.742006301879883,0.8020575642585754,-1.9105730056762695
1766400711900881000,-1.155119140625,9.742006301879883,0.38546648621559143,-2.145204782485962
1766400711910921200,-1.145078857421875,9.773131370544434,0.8355764150619507,-1.944091796875
1766400711940981000,-1.11501904296875,9.897629737854004,0.6991068720817566,-1.922544002532959
1766400711950990800,-1.105009033203125,10.070012092590332,0.6512228846549988,-1.8267759084701538
1766400711961000400,-1.09499951171875,10.036493301391602,0.790086567401886,-1.766920804977417
1766400711971040800,-1.084959228515625,9.983820915222168,0.9433154463768005,-1.6711528301239014
1766400711981050600,-1.074949462890625,9.883264541625977,0.9217676520347595,-1.599326729774475
1766400711991060500,-1.064939453125,9.804255485534668,0.912190854549408,-1.824381709098816
1766400712001070000,-1.054929931640625,9.706093788146973,0.8451532125473022,-1.8722656965255737
1766400712011110400,-1.0448896484375,9.713275909423828,0.730231523513794,-1.8483237028121948
1766400712041139700,-1.0148603515625,9.794678688049316,0.5051765441894531,-1.9369091987609863
1766400712051149600,-1.004850341796875,9.816226959228516,0.5315127968788147,-1.9847931861877441
1766400712061159200,-0.9948408203125,9.794678688049316,0.6775590777397156,-1.8770540952682495
1766400712071169000,-0.9848310546875,9.765948295593262,0.7469909191131592,-1.946485996246338
1766400712091188500,-0.9648115234375,9.715670585632324,0.751779317855835,-1.821987509727478
1766400712111208200,-0.944791748046875,9.737217903137207,0.6847416758537292,-1.8770540952682495
1766400712121217800,-0.9347822265625,9.643844604492188,0.6248866319656372,-1.965639591217041
1766400712151308300,-0.904691650390625,9.691728591918945,0.7876923680305481,-1.922544002532959
1766400712161318000,-0.89468212890625,9.75397777557373,0.7613561153411865,-1.9345149993896484
1766400712171327700,-0.88467236328125,9.792284965515137,0.8020575642585754,-1.8148049116134644
1766400712181337600,-0.874662353515625,9.849745750427246,0.8762778043746948,-1.7310078144073486
1766400712191347200,-0.86465283203125,9.81143856048584,0.5650315880775452,-1.8579005002975464
1766400712201326600,-0.85467333984375,9.739612579345703,0.7230489253997803,-1.8531121015548706
1766400712211366700,-0.84463330078125,9.725247383117676,0.5913678407669067,-1.7381904125213623
1766400712221376500,-0.83462353515625,9.816226959228516,0.7254431247711182,-1.7884687185287476
1766400712261415700,-0.794584228515625,9.78989028930664,0.7158663272857666,-1.7717092037200928
1766400712281435100,-0.77456494140625,9.794678688049316,0.5003881454467773,-1.8818424940109253
1766400712331545000,-0.724454833984375,9.801861763000488,0.8140285611152649,-1.723825216293335
1766400712401643800,-0.654356201171875,9.75397777557373,0.6919242739677429,-1.7381904125213623
1766400712491884300,-0.56411572265625,9.648633003234863,0.6703764796257019,-1.9297266006469727
1766400712501894100,-0.55410595703125,9.749189376831055,0.4812345504760742,-1.9393033981323242
1766400712511904000,-0.544095947265625,9.734824180603027,0.6320692300796509,-1.8602946996688843
1766400712521913600,-0.53408642578125,9.734824180603027,0.6320692300796509,-1.8602946996688843
1766400712531954000,-0.524046142578125,9.821015357971191,0.7374141216278076,-1.9129672050476074
1766400712541963800,-0.5140361328125,9.775525093078613,0.7230489253997803,-1.8770540952682495
1766400712551973400,-0.504026611328125,9.667786598205566,0.5746083855628967,-1.8698714971542358
1766400712561983200,-0.494016845703125,9.600749015808105,0.6967126727104187,-1.8986018896102905
1766400712572023600,-0.4839765625,9.636661529541016,0.7948749661445618,-1.7621324062347412
1766400712622072300,-0.433927734375,9.619902610778809,0.6488286852836609,-1.824381709098816
1766400712632173600,-0.423826416015625,9.634267807006836,0.6009446382522583,-1.8914192914962769
1766400712642153000,-0.413846923828125,9.619902610778809,0.5913678407669067,-1.8148049116134644
1766400712652193300,-0.403806640625,9.718064308166504,0.5841852426528931,-1.845929503440857
1766400712662203000,-0.393797119140625,9.818621635437012,0.6440402865409851,-1.6855180263519287
1766400712672273700,-0.383726318359375,9.911994934082031,0.689530074596405,-1.742978811264038
1766400712682253000,-0.373746826171875,9.72285270690918,0.3663128614425659,-1.7836803197860718
1766400712692262700,-0.3637373046875,9.75397777557373,0.14365209639072418,-1.623268723487854
1766400712702272500,-0.3537275390625,9.86889934539795,0.5817909836769104,-2.0470423698425293
1766400712712282400,-0.343717529296875,9.761159896850586,0.6272808313369751,-1.6519991159439087
1766400712732301800,-0.3236982421875,9.715670585632324,0.6440402865409851,-1.8722656965255737
1766400712742311700,-0.313688232421875,9.775525093078613,0.4836287498474121,-1.889025092124939
1766400712752321300,-0.3036787109375,9.679757118225098,0.6392518281936646,-2.032677173614502
1766400712762331100,-0.2936689453125,9.655815124511719,0.6943184733390808,-1.86508309841156
1766400712772341000,-0.283658935546875,9.588777542114258,0.6368576288223267,-1.9752163887023926
1766400712782350600,-0.2736494140625,9.653421401977539,0.727837324142456,-1.9273324012756348
1766400712822420200,-0.233579833984375,9.423578262329102,0.29209262132644653,-1.8770540952682495
1766400712832430000,-0.22356982421875,9.500192642211914,0.5602431893348694,-1.9800047874450684
1766400712852449500,-0.203550537109375,9.751583099365234,0.5746083855628967,-1.721431016921997
1766400712862459400,-0.19354052734375,9.828198432922363,0.4405331015586853,-1.8794482946395874
1766400712872469000,-0.183531005859375,9.93354320526123,0.4189853072166443,-2.008735179901123
1766400712882509300,-0.17349072265625,9.99100399017334,0.524330198764801,-1.9991583824157715
1766400712902528800,-0.15347119140625,9.971850395202637,0.44532153010368347,-1.9823989868164062
1766400712912538600,-0.14346142578125,9.962273597717285,0.5171475410461426,-1.946485996246338
1766400712922548500,-0.133451416015625,10.02691650390625,0.4596867263317108,-1.9177556037902832
1766400712932588800,-0.1234111328125,9.976638793945312,0.3471592366695404,-1.9536685943603516
1766400712942598400,-0.113401611328125,10.017339706420898,0.42377370595932007,-1.9608511924743652
1766400712952608300,-0.103391845703125,9.938331604003906,0.43335050344467163,-1.9728221893310547
1766400712962618000,-0.0933818359375,9.96945571899414,0.49799394607543945,-1.9560627937316895
1766400712972627700,-0.083372314453125,9.947908401489258,0.5746083855628967,-1.9943699836730957
1766400712982637600,-0.073362548828125,9.904812812805176,0.5051765441894531,-1.889025092124939
1766400712992647200,-0.063352783203125,9.837775230407715,0.6057330369949341,-1.8579005002975464
1766400713002626600,-0.05337353515625,9.830592155456543,0.5315127968788147,-1.9584569931030273
1766400713012636400,-0.043363525390625,9.847352027893066,0.5770025849342346,-1.9536685943603516
1766400713022646000,-0.03335400390625,9.832986831665039,0.5482721924781799,-1.8770540952682495
1766400713032686300,-0.023313720703125,9.828198432922363,0.5099649429321289,-1.9369091987609863
1766400713042665700,-0.013334228515625,9.787496566772461,0.6009446382522583,-1.9249382019042969
1766400713052675300,-0.00332470703125,9.765948295593262,0.5363011956214905,-1.941697597503662
1766400713062685200,0.006685302734375,9.746794700622559,0.6009446382522583,-2.008735179901123
1766400713072694800,0.01669482421875,9.68694019317627,0.4908113479614258,-1.965639591217041
1766400713092714500,0.036714599609375,9.773131370544434,0.40701428055763245,-1.9393033981323242
1766400713112734000,0.05673388671875,9.883264541625977,0.5386953949928284,-1.8339585065841675
1766400713122743800,0.066743896484375,9.840168952941895,0.4812345504760742,-1.9608511924743652
1766400713132814600,0.076814697265625,9.835380554199219,0.40462008118629456,-2.0039467811584473
1766400713152834000,0.096833984375,9.751583099365234,0.4141969084739685,-2.0159177780151367
1766400713162844000,0.106843994140625,9.651026725769043,0.4572925269603729,-1.9608511924743652
1766400713172853500,0.116853515625,9.674968719482422,0.3878606855869293,-1.946485996246338
1766400713182863400,0.12686328125,9.68933391571045,0.49320554733276367,-2.0159177780151367
1766400713202882800,0.1468828125,9.68933391571045,0.5913678407669067,-1.9129672050476074
1766400713212892700,0.156892578125,9.715670585632324,0.6009446382522583,-1.9105730056762695
1766400713222902500,0.166902587890625,9.545681953430176,0.4429273009300232,-2.011129379272461
1766400713232912100,0.176912109375,9.545681953430176,0.4429273009300232,-2.011129379272461
1766400713242922000,0.186921875,9.591172218322754,0.4836287498474121,-1.965639591217041
1766400713252962300,0.19696240234375,9.696516990661621,0.5099649429321289,-1.9919757843017578
1766400713262972000,0.206971923828125,9.801861763000488,0.45010992884635925,-1.9752163887023926
1766400713272981800,0.216981689453125,9.737217903137207,0.40940847992897034,-2.013523578643799
1766400713282991600,0.22699169921875,9.804255485534668,0.5171475410461426,-1.9177556037902832
1766400713303041500,0.24704150390625,9.6989107131958,0.4381389021873474,-1.8914192914962769
1766400713313081900,0.257081787109375,9.672574996948242,0.4596867263317108,-1.9560627937316895
1766400713323091700,0.267091796875,9.684545516967773,0.40940847992897034,-1.8746598958969116
1766400713333101300,0.277101318359375,9.816226959228516,0.3711012601852417,-1.764526605606079
1766400713343111200,0.287111083984375,9.818621635437012,0.3232172429561615,-2.027888774871826
1766400713353151500,0.2971513671875,9.943120002746582,0.36152446269989014,-1.8938134908676147
1766400713363161000,0.3071611328125,9.885659217834473,0.38546648621559143,-1.867477297782898
1766400713373201400,0.317201416015625,9.943120002746582,0.5195417404174805,-1.8842366933822632
1766400713383211300,0.327211181640625,9.797073364257812,0.5889736413955688,-1.922544002532959
1766400713393251600,0.33725146484375,9.682151794433594,0.5434837937355042,-1.9967641830444336
1766400713413271000,0.35727099609375,9.708487510681152,0.4836287498474121,-1.9369091987609863
1766400713423281000,0.367281005859375,9.742006301879883,0.4118026793003082,-1.9776105880737305
1766400713433321200,0.3773212890625,9.744400978088379,0.4572925269603729,-1.8938134908676147
1766400713443330800,0.387330810546875,9.696516990661621,0.4141969084739685,-1.968033790588379
1766400713453371100,0.39737109375,9.612719535827637,0.4692635238170624,-2.0183119773864746
1766400713463381000,0.407381103515625,9.691728591918945,0.524330198764801,-1.9943699836730957
1766400713473421300,0.41742138671875,9.672574996948242,0.5530605912208557,-1.9847931861877441
1766400713483400400,0.427400390625,9.660603523254395,0.47405192255973816,-1.9321208000183105
1766400713493410300,0.437410400390625,9.708487510681152,0.45489832758903503,-1.9560627937316895
1766400713503389400,0.447389404296875,9.703699111938477,0.4381389021873474,-1.946485996246338
1766400713513399300,0.4573994140625,9.715670585632324,0.507570743560791,-2.008735179901123
1766400713533418800,0.477418701171875,9.516951560974121,0.36152446269989014,-2.0422539710998535
1766400713543428600,0.4874287109375,9.5624418258667,0.31364041566848755,-1.8746598958969116
1766400713553438200,0.497438232421875,9.445125579833984,0.4381389021873474,-2.140416383743286
1766400713563448000,0.507447998046875,9.461885452270508,0.5267243981361389,-1.944091796875
1766400713573488400,0.51748828125,9.44752025604248,0.5746083855628967,-2.011129379272461
1766400713583467500,0.527467529296875,9.533711433410645,0.586579442024231,-1.946485996246338
1766400713593507800,0.5375078125,9.47146224975586,0.4429273009300232,-1.9393033981323242
1766400713603578600,0.54757861328125,9.385271072387695,0.4405331015586853,-1.9728221893310547
1766400713613588500,0.55758837890625,9.411606788635254,0.7565677165985107,-1.889025092124939
1766400713643587300,0.58758740234375,7.960720539093018,2.2194249629974365,-4.970362663269043
1766400713653597000,0.597596923828125,7.718906402587891,0.33279404044151306,-4.807557106018066
1766400713663606800,0.607606689453125,7.304709434509277,1.1540051698684692,-3.3255462646484375
1766400713673616600,0.61761669921875,7.412448406219482,1.5682021379470825,-3.5003228187561035
1766400713683626200,0.627626220703125,7.043741226196289,0.40462008118629456,-3.509899616241455
1766400713693697000,0.637697021484375,7.1251444816589355,0.002394201699644327,-3.2848446369171143
1766400713703676400,0.647676513671875,7.592013359069824,0.2585737705230713,-3.2345664501190186
1766400713713686000,0.65768603515625,8.307879447937012,0.7613561153411865,-3.093308687210083
1766400713723665400,0.66766552734375,8.87051773071289,0.8044517636299133,-3.1076738834381104
1766400713753725200,0.69772509765625,9.081207275390625,2.118868589401245,-3.7900211811065674
1766400713763704300,0.707704345703125,8.492233276367188,2.408566951751709,-4.089296340942383
1766400713773744600,0.71774462890625,7.781155586242676,2.5091233253479004,-4.390965938568115
1766400713783754500,0.72775439453125,6.950367450714111,2.1284453868865967,-4.458003520965576
1766400713793764400,0.737764404296875,6.19379997253418,0.6847416758537292,-4.503493309020996
1766400713803743500,0.747743408203125,5.837063789367676,-1.2473790645599365,-4.46518611907959
1766400713813814300,0.757814208984375,5.837063789367676,-2.4851813316345215,-4.668693542480469
1766400713823824100,0.76782421875,5.9974751472473145,-2.9688100814819336,-4.857835292816162
1766400713833833700,0.777833740234375,6.086060523986816,-3.4093432426452637,-4.534617900848389
1766400713843813000,0.787813232421875,5.9735331535339355,-4.242525577545166,-4.170699596405029
1766400713853853400,0.797853515625,5.6670756340026855,-5.130774021148682,-3.648763418197632
1766400713863863000,0.807863037109375,5.322310447692871,-5.992686748504639,-3.028665065765381
1766400713873873000,0.817872802734375,5.147533416748047,-7.400477409362793,-2.3271639347076416
1766400713883852000,0.82785205078125,5.327098846435547,-8.51138687133789,-1.5921441316604614
1766400713893892400,0.837892333984375,5.240907669067383,-9.129091262817383,-0.8906430602073669
1766400713903902200,0.847902099609375,4.790797710418701,-9.141061782836914,-0.5937620401382446
1766400713913912000,0.857912109375,4.292803764343262,-9.481039047241211,-0.6584054827690125
1766400713953951000,0.897950927734375,1.886630892753601,-10.407594680786133,0.6105214357376099
1766400713963960800,0.9079609375,1.3311761617660522,-10.35252857208252,0.8547300100326538
1766400713973970400,0.917970458984375,0.9816226959228516,-10.474632263183594,0.9097966551780701
1766400713983980300,0.927980224609375,0.7326257228851318,-11.18092155456543,0.7541735172271729
1766400713993990100,0.937990234375,0.6392518281936646,-11.678915977478027,0.5578489899635315
1766400714003969300,0.94796923828125,0.6943184733390808,-12.469002723693848,0.6129156351089478
1766400714014040000,0.9580400390625,0.5650315880775452,-12.84968090057373,0.7374141216278076
1766400714024019500,0.96801953125,0.6512228846549988,-12.856863021850586,1.070208191871643
1766400714034029000,0.978029052734375,0.40462008118629456,-13.022063255310059,1.259350061416626
1766400714044008400,0.988008544921875,0.016759412363171577,-13.053187370300293,1.656787633895874
1766400714054048800,0.998048828125,-0.38067805767059326,-13.084312438964844,1.8171991109848022
1766400714064028000,1.00802783203125,-0.6823474764823914,-13.328520774841309,1.680729627609253
1766400714074068200,1.018068115234375,-0.8020575642585754,-13.24472427368164,1.5849615335464478
1766400714084047400,1.02804736328125,-0.7709329724311829,-12.823344230651855,1.5610195398330688
1766400714094087700,1.038087646484375,-0.8786720037460327,-12.09550666809082,1.3694833517074585
1766400714104097500,1.04809765625,-0.667982280254364,-11.868058204650879,0.912190854549408
1766400714114137900,1.058137939453125,-0.5410895943641663,-11.240777015686035,0.6033388376235962
1766400714124117000,1.068116943359375,-0.5602431893348694,-11.188104629516602,0.47644615173339844
1766400714134157300,1.0781572265625,-0.7086837291717529,-11.597513198852539,0.27054479718208313
1766400714144136400,1.088136474609375,-1.1276689767837524,-12.073959350585938,0.05027823522686958
1766400714164125400,1.10812548828125,-1.280897855758667,-12.301408767700195,-0.363918662071228
1766400714184175600,1.128175537109375,-1.8267759084701538,-11.88002872467041,-0.3998316824436188
1766400714224184000,1.16818408203125,-1.8387469053268433,-10.486603736877441,-0.5363011956214905
1766400714234163500,1.17816357421875,-2.2409727573394775,-10.125079154968262,-0.38546648621559143
1766400714294283000,1.238282958984375,-1.9249382019042969,-9.545681953430176,-0.3471592366695404
1766400714334444300,1.2784443359375,-2.7964274883270264,-9.581595420837402,-0.7613561153411865
1766400714354463700,1.298463623046875,-3.0765492916107178,-10.319009780883789,-0.9050082564353943
1766400714394563800,1.338563720703125,-2.31758713722229,-9.224859237670898,-0.730231523513794
1766400714444612600,1.388612548828125,-2.935291290283203,-8.827422142028809,-0.5889736413955688
1766400714504763000,1.448762939453125,-3.1914708614349365,-9.097966194152832,-0.5817909836769104
1766400714564852000,1.50885205078125,-3.7205893993377686,-9.107542991638184,-0.035913024097681046
1766400714584871400,1.528871337890625,-3.84269380569458,-9.191340446472168,-0.07182604819536209
1766400714594881300,1.53888134765625,-3.7253777980804443,-9.366117477416992,-0.0933738648891449
1766400714604891000,1.548890869140625,-3.7158010005950928,-9.026140213012695,0.047884032130241394
1766400714614961700,1.558961669921875,-3.6320040225982666,-8.956708908081055,0.05746084079146385
1766400714624941000,1.568941162109375,-3.4141316413879395,-8.75080680847168,0.1173158809542656
1766400714634981400,1.5789814453125,-3.3303346633911133,-7.908048152923584,0.07182604819536209
1766400714645021400,1.589021484375,-3.4165258407592773,-8.348581314086914,0.17717093229293823
1766400714655061800,1.599061767578125,-3.4165258407592773,-8.348581314086914,0.17717093229293823
1766400714665071600,1.609071533203125,-3.552995204925537,-8.678980827331543,0.10295066982507706
1766400714675081500,1.61908154296875,-3.773261785507202,-8.983044624328613,-0.011971008032560349
1766400714685060600,1.629060546875,-3.950432777404785,-9.311050415039062,0.13168109953403473
1766400714695101000,1.639100830078125,-3.995922565460205,-9.581595420837402,0.11971008777618408
1766400714705110800,1.64911083984375,-4.027047157287598,-9.445125579833984,0.13168109953403473
1766400714715120400,1.659120361328125,-3.9815573692321777,-9.385271072387695,0.2585737705230713
1766400714725160700,1.66916064453125,-3.912125587463379,-8.973467826843262,0.18914192914962769
1766400714735170600,1.679170654296875,-3.7660791873931885,-8.736441612243652,0.33997663855552673
1766400714765200000,1.709199951171875,-3.6966474056243896,-8.911218643188477,0.29209262132644653
1766400714775209500,1.71920947265625,-3.8522706031799316,-9.311050415039062,0.40462008118629456
1766400714785219300,1.72921923828125,-3.9264907836914062,-9.485827445983887,0.43095630407333374
1766400714795259600,1.739259765625,-3.8283286094665527,-9.272743225097656,0.3256114423274994
1766400714805269200,1.749269287109375,-3.598485231399536,-8.877699851989746,0.40940847992897034
1766400714815279000,1.759279052734375,-3.555389642715454,-8.212111473083496,0.5530605912208557
1766400714825289000,1.7692890625,-3.801992416381836,-8.034940719604492,0.38307225704193115
1766400714835329300,1.779329345703125,-3.6990416049957275,-8.17141056060791,0.44532153010368347
1766400714865358600,1.809358642578125,-3.7612907886505127,-9.23682975769043,0.21547815203666687
1766400714875368200,1.8193681640625,-4.039018154144287,-9.543288230895996,0.19871874153614044
1766400714885378000,1.8293779296875,-4.050989151000977,-9.694122314453125,0.1364694982767105
1766400714895387600,1.8393876953125,-3.9671921730041504,-9.792284965515137,0.0071826050989329815
1766400714905397500,1.8493974609375,-4.041412353515625,-9.694122314453125,-0.004788403399288654
1766400714915407400,1.859407470703125,-4.2544965744018555,-9.361329078674316,0.026336219161748886
1766400714925417000,1.8694169921875,-4.302380561828613,-9.069235801696777,0.17238251864910126
1766400714935457300,1.879457275390625,-4.532223701477051,-9.042900085449219,0.2322375625371933
1766400714945436700,1.889436767578125,-4.479551315307617,-9.181763648986816,0.019153613597154617
1766400714965486600,1.909486572265625,-3.751713991165161,-7.5968017578125,-0.26336219906806946
1766400714985506300,1.92950634765625,-4.565742492675781,-7.163451671600342,-0.07422025501728058
1766400714995516000,1.939515869140625,-4.932055473327637,-7.931990146636963,0.009576806798577309
1766400715005525800,1.94952587890625,-5.1810526847839355,-8.425195693969727,-0.24899697303771973
1766400715015566000,1.959566162109375,-4.778826713562012,-8.329427719116211,-0.33518823981285095
1766400715025545200,1.969545166015625,-4.345476150512695,-7.999027729034424,-0.3280056416988373
1766400715035555000,1.97955517578125,-4.125209331512451,-7.532158374786377,-0.363918662071228
1766400715045564700,1.989564697265625,-4.484339714050293,-7.931990146636963,-0.272938996553421
1766400715055574500,1.999574462890625,-4.491522312164307,-9.030928611755371,-0.3687070608139038
1766400715075594000,2.019593994140625,-3.952826976776123,-8.02536392211914,-0.7924807667732239
1766400715105653800,2.04965380859375,-2.808398485183716,-8.99740982055664,-0.751779317855835
1766400715115663600,2.05966357421875,-2.561795711517334,-9.136273384094238,-0.7829039692878723
1766400715135713800,2.0797138671875,-2.6575639247894287,-10.144232749938965,-0.6775590777397156
1766400715145723400,2.089723388671875,-3.294421434402466,-10.505757331848145,-0.5267243981361389
1766400715155763700,2.099763671875,-3.4117374420166016,-10.666168212890625,-0.5482721924781799
1766400715165773600,2.109773681640625,-3.201047658920288,-9.885659217834473,-0.730231523513794
1766400715175783200,2.119783203125,-2.6815059185028076,-9.8784761428833,-0.6512228846549988
1766400715185762600,2.129762451171875,-2.434903144836426,-9.95748519897461,-0.8140285611152649
1766400715195772400,2.1397724609375,-2.1787235736846924,-10.170568466186523,-0.9409212470054626
1766400715205751600,2.14975146484375,-2.3726539611816406,-10.797849655151367,-0.768538773059845
1766400715215791900,2.1597919921875,-2.3080103397369385,-11.12106704711914,-0.8547300100326538
1766400715225832200,2.169832275390625,-1.9919757843017578,-10.975020408630371,-0.9888052940368652
1766400715235872500,2.17987255859375,-1.7334020137786865,-10.517727851867676,-1.0414776802062988
1766400715245912600,2.18991259765625,-1.7549498081207275,-10.625467300415039,-1.0654197931289673
1766400715275911400,2.219911376953125,-3.0095114707946777,-11.403582572937012,-1.1085153818130493
1766400715285921300,2.22992138671875,-3.4332852363586426,-11.35809326171875,-1.216254472732544
1766400715295931000,2.239930908203125,-3.5434184074401855,-10.910377502441406,-1.048660397529602
1766400715305940700,2.249940673828125,-3.3063924312591553,-10.24239444732666,-0.9888052940368652
1766400715315981000,2.25998095703125,-3.375824451446533,-9.639056205749512,-0.8738836050033569
1766400715325991000,2.269990966796875,-3.5434184074401855,-9.624691009521484,-0.8188169598579407
1766400715336000500,2.28000048828125,-3.8139634132385254,-10.11550235748291,-0.727837324142456
1766400715346010400,2.29001025390625,-3.9815573692321777,-9.914389610290527,-0.7134721279144287
1766400715356020200,2.300020263671875,-4.460397720336914,-9.461885452270508,-0.5291185975074768
1766400715366029800,2.31002978515625,-4.460397720336914,-9.461885452270508,-0.5291185975074768
1766400715376039700,2.320039794921875,-4.659116744995117,-9.445125579833984,-0.395043283700943
1766400715386110500,2.3301103515625,-4.903325080871582,-9.442731857299805,-0.3064578175544739
1766400715396120300,2.340120361328125,-4.946420669555664,-9.224859237670898,-0.3016694188117981
1766400715406130000,2.3501298828125,-4.730942726135254,-8.810662269592285,-0.3232172429561615
1766400715416139800,2.360139892578125,-4.6471452713012695,-8.195352554321289,-0.35434186458587646
1766400715426149400,2.3701494140625,-4.220977783203125,-8.190564155578613,-0.395043283700943
1766400715436189700,2.380189697265625,-3.9408559799194336,-8.65743350982666,-0.5937620401382446
1766400715446169000,2.390169189453125,-3.955221176147461,-9.38048267364502,-0.6512228846549988
1766400715456209400,2.40020947265625,-3.9432501792907715,-9.751583099365234,-0.5674257874488831
1766400715466219000,2.410218994140625,-4.122815132141113,-9.84256362915039,-0.35434186458587646
1766400715496248300,2.440248291015625,-4.654327869415283,-8.22887134552002,-0.1412578970193863
1766400715506258200,2.450258056640625,-4.975151062011719,-8.463502883911133,-0.09576806426048279
1766400715516267800,2.460267822265625,-4.774038314819336,-8.403648376464844,-0.33039984107017517
1766400715526277600,2.470277587890625,-4.666299343109131,-7.977479934692383,-0.6033388376235962
1766400715536287500,2.48028759765625,-4.5609540939331055,-8.544905662536621,-0.9026140570640564
1766400715546297000,2.490297119140625,-4.649539470672607,-8.999804496765137,-0.811634361743927
1766400715556307000,2.500306884765625,-4.704606533050537,-8.942343711853027,-0.6272808313369751
1766400715566316800,2.51031689453125,-4.668693542480469,-8.729259490966797,-0.47165772318840027
1766400715576357000,2.520357177734375,-4.78122091293335,-8.856152534484863,-0.47405192255973816
1766400715606447400,2.550447265625,-4.2760443687438965,-8.030152320861816,-0.5171475410461426
1766400715616487700,2.56048779296875,-4.235342979431152,-8.135497093200684,-0.5363011956214905
1766400715626497300,2.570497314453125,-4.20421838760376,-8.544905662536621,-0.3663128614425659
1766400715636507100,2.580507080078125,-3.9624037742614746,-8.60236644744873,-0.24899697303771973
1766400715666536400,2.610536376953125,-3.8331170082092285,-9.241618156433105,-0.19153612852096558
1766400715676607200,2.620607177734375,-3.957615375518799,-9.193734169006348,-0.24181437492370605
1766400715696626700,2.640626708984375,-3.754108190536499,-8.75080680847168,-0.29209262132644653
1766400715706606000,2.650606201171875,-3.7876269817352295,-8.956708908081055,-0.4189853072166443
1766400715716646400,2.660646484375,-3.7660791873931885,-9.083600997924805,-0.5123591423034668
1766400715726656000,2.670656005859375,-3.799597978591919,-9.222464561462402,-0.6320692300796509
1766400715736665900,2.680665771484375,-3.8570590019226074,-9.375694274902344,-0.6440402865409851
1766400715746675700,2.69067578125,-3.6846764087677,-9.20091724395752,-0.7110779285430908
1766400715756685300,2.700685302734375,-3.641580820083618,-9.275136947631836,-0.730231523513794
1766400715766695200,2.710695068359375,-3.450044631958008,-9.308655738830566,-0.7709329724311829
1766400715776705000,2.720705078125,-3.4093432426452637,-9.330204010009766,-0.7661445140838623
1766400715786684200,2.73068408203125,-3.35667085647583,-9.481039047241211,-0.8738836050033569
1766400715806673200,2.750673095703125,-3.19865345954895,-9.639056205749512,-1.0606313943862915
1766400715816683000,2.76068310546875,-3.141192674636841,-9.536105155944824,-1.05105459690094
1766400715826692600,2.770692626953125,-3.2321722507476807,-9.583989143371582,-1.0534487962722778
1766400715836702500,2.780702392578125,-3.2800562381744385,-9.5624418258667,-0.8810662031173706
1766400715846612200,2.7906123046875,-3.0861260890960693,-9.315838813781738,-0.7374141216278076
1766400715856622000,2.8006220703125,-3.069366693496704,-9.246406555175781,-0.6775590777397156
1766400715866631700,2.810631591796875,-2.8443117141723633,-9.232041358947754,-0.689530074596405
1766400715876641500,2.8206416015625,-2.6408045291900635,-9.17697525024414,-0.8259995579719543
1766400715886651400,2.8306513671875,-2.5498247146606445,-9.263166427612305,-0.8475474119186401
1766400715906701300,2.850701416015625,-2.233790159225464,-9.612719535827637,-1.0869675874710083
1766400715916711200,2.860711181640625,-1.9919757843017578,-9.50737476348877,-1.194706678390503
1766400715936730600,2.880730712890625,-1.9273324012756348,-9.378087997436523,-1.3455413579940796
1766400715946740500,2.890740478515625,-2.0614075660705566,-9.35654067993164,-1.3646949529647827
1766400715956750000,2.90075,-2.207453966140747,-9.241618156433105,-1.4963760375976562
1766400715966760000,2.910760009765625,-2.231395959854126,-9.07641887664795,-1.4413094520568848
1766400715976769800,2.920769775390625,-2.4372973442077637,-9.253589630126953,-1.3718775510787964
1766400716016839200,2.960839111328125,-2.209848165512085,-9.181763648986816,-1.4987702369689941
1766400716026818600,2.970818603515625,-2.185906171798706,-9.406818389892578,-1.6160861253738403
1766400716036859000,2.98085888671875,-2.054224967956543,-9.57441234588623,-1.8052281141281128
1766400716056848000,3.000847900390625,-1.8938134908676147,-9.701305389404297,-1.7549498081207275
1766400716066857500,3.010857421875,-1.8938134908676147,-9.701305389404297,-1.7549498081207275
1766400716076867300,3.020867431640625,-1.9033904075622559,-9.648633003234863,-1.7334020137786865
1766400716086877200,3.030877197265625,-1.889025092124939,-9.533711433410645,-1.7956513166427612
1766400716106927000,3.050927001953125,-1.656787633895874,-9.21288776397705,-1.7190368175506592
1766400716126946800,3.07094677734375,-1.4915876388549805,-9.497797966003418,-1.8962076902389526
1766400716146996700,3.090996826171875,-1.2545616626739502,-9.337387084960938,-1.968033790588379
1766400716157037000,3.101037109375,-1.3335703611373901,-9.555258750915527,-1.9345149993896484
1766400716167047000,3.111046875,-1.2976573705673218,-9.667786598205566,-2.013523578643799
1766400716177026000,3.121026123046875,-1.170764684677124,-9.787496566772461,-2.0183119773864746
1766400716187036000,3.131035888671875,-1.0965443849563599,-9.643844604492188,-1.922544002532959
1766400716197076200,3.141076171875,-0.9864110946655273,-9.59596061706543,-1.9847931861877441
1766400716207085800,3.1510859375,-0.9265560507774353,-9.404424667358398,-1.8579005002975464
1766400716237145600,3.1811455078125,-0.7422025203704834,-9.198522567749023,-1.8698714971542358
1766400716247125000,3.191125,-0.6751648783683777,-9.21288776397705,-1.8626888990402222
1766400716257165300,3.201165283203125,-0.5027823448181152,-9.516951560974121,-1.886630892753601
1766400716267205400,3.211205322265625,-0.395043283700943,-9.550470352172852,-1.9105730056762695
1766400716277215200,3.22121533203125,-0.4572925269603729,-9.5408935546875,-1.900996208190918
1766400716287225000,3.23122509765625,-0.4405331015586853,-9.607931137084961,-2.0159177780151367
1766400716327294700,3.271294677734375,-0.5961562395095825,-9.880870819091797,-1.8148049116134644
1766400716337304300,3.28130419921875,-0.7015010714530945,-9.914389610290527,-1.922544002532959
1766400716347314200,3.291314208984375,-0.7661445140838623,-9.744400978088379,-1.922544002532959
1766400716357324000,3.301323974609375,-0.38307225704193115,-9.744400978088379,-2.1499931812286377
1766400716367333600,3.311333740234375,-0.5363011956214905,-10.065223693847656,-2.030282974243164
1766400716377343500,3.321343505859375,-0.7972691655158997,-10.127472877502441,-2.030282974243164
1766400716387353000,3.33135302734375,-0.7015010714530945,-9.679757118225098,-2.2625205516815186
1766400716397393400,3.341393310546875,-0.9361328482627869,-9.469067573547363,-2.0877439975738525
1766400716427453200,3.371453125,-1.070208191871643,-9.473855972290039,-1.6280571222305298
1766400716437493500,3.381493408203125,-1.015141487121582,-8.954314231872559,-1.6950948238372803
1766400716447503400,3.39150341796875,-0.993593692779541,-9.121908187866211,-1.8052281141281128
1766400716457513200,3.40151318359375,-1.0582371950149536,-9.512163162231445,-1.8722656965255737
1766400716467492400,3.411492431640625,-0.9433154463768005,-9.775525093078613,-1.9800047874450684
1766400716477532700,3.42153271484375,-0.8571242094039917,-9.466673851013184,-1.8195933103561401
1766400716487511800,3.43151171875,-0.8307880163192749,-9.296685218811035,-1.8770540952682495
1766400716497521700,3.441521728515625,-0.8571242094039917,-9.215282440185547,-1.8722656965255737
1766400716537560800,3.481560791015625,-0.7637503147125244,-9.411606788635254,-1.824381709098816
1766400716547570400,3.4915703125,-0.768538773059845,-9.445125579833984,-1.824381709098816
1766400716557610800,3.50161083984375,-0.8307880163192749,-9.378087997436523,-1.9273324012756348
1766400716567620600,3.51162060546875,-0.7781155705451965,-9.363722801208496,-2.008735179901123
1766400716577630200,3.521630126953125,-0.9074024558067322,-9.514557838439941,-2.006340980529785
1766400716587640000,3.53164013671875,-0.9983820915222168,-9.588777542114258,-1.9512743949890137
1766400716597650000,3.54164990234375,-0.8810662031173706,-9.557653427124023,-1.9967641830444336
1766400716607659500,3.551659423828125,-0.7589619159698486,-9.583989143371582,-2.051830768585205
1766400716617669400,3.56166943359375,-0.6631938815116882,-9.617507934570312,-2.0398597717285156
1766400716647698700,3.59169873046875,-0.47405192255973816,-9.627084732055664,-1.965639591217041
1766400716657708500,3.60170849609375,-0.5746083855628967,-9.710882186889648,-1.9081788063049316
1766400716667718100,3.61171826171875,-0.5650315880775452,-9.720458984375,-1.886630892753601
1766400716677728000,3.62172802734375,-0.45010992884635925,-9.749189376831055,-1.944091796875
1766400716687737600,3.631737548828125,-0.4596867263317108,-9.50498104095459,-1.824381709098816
1766400716697747500,3.64174755859375,-0.4692635238170624,-9.47146224975586,-1.699883222579956
1766400716707757300,3.65175732421875,-0.4165911078453064,-9.59835433959961,-1.6879122257232666
1766400716747857400,3.691857421875,-0.5793967843055725,-9.567230224609375,-1.5442601442337036
1766400716757867000,3.701866943359375,-0.5770025849342346,-9.768342971801758,-1.4867992401123047
1766400716767907300,3.7119072265625,-0.6392518281936646,-9.720458984375,-1.5490485429763794
1766400716777917200,3.721917236328125,-0.6392518281936646,-9.720458984375,-1.5490485429763794
1766400716787927000,3.731927001953125,-0.6943184733390808,-9.75637149810791,-1.5107412338256836
1766400716797967000,3.741967041015625,-0.7493851184844971,-9.727641105651855,-1.5418659448623657
1766400716808007400,3.75200732421875,-0.8212111592292786,-9.823410034179688,-1.4700398445129395
1766400716818017300,3.762017333984375,-0.8858546018600464,-10.007762908935547,-1.5538369417190552
1766400716848046600,3.792046630859375,-0.790086567401886,-9.682151794433594,-1.479616641998291
1766400716858087000,3.8020869140625,-0.9744400978088379,-9.77791976928711,-1.4700398445129395
1766400716868066000,3.812066162109375,-1.0127472877502441,-9.883264541625977,-1.5825673341751099
1766400716878076000,3.822075927734375,-0.8212111592292786,-9.564835548400879,-1.5705963373184204
1766400716888085500,3.83208544921875,-0.8978256583213806,-9.320627212524414,-1.4532804489135742
1766400716898095400,3.842095458984375,-0.9768342971801758,-9.466673851013184,-1.4748282432556152
1766400716908105200,3.852105224609375,-1.0558429956436157,-9.775525093078613,-1.5418659448623657
1766400716918114800,3.86211474609375,-1.0989385843276978,-9.718064308166504,-1.4317326545715332
1766400716948144000,3.89214404296875,-1.280897855758667,-10.017339706420898,-1.4987702369689941
1766400716958184400,3.902184326171875,-1.381454348564148,-9.68933391571045,-1.335964560508728
1766400716968163800,3.912163818359375,-1.5825673341751099,-9.605537414550781,-1.2545616626739502
1766400716978204200,3.9222041015625,-1.436521053314209,-9.531316757202148,-1.3287819623947144
1766400716988213800,3.9322138671875,-1.50355863571167,-9.512163162231445,-1.3000515699386597
1766400716998223600,3.9422236328125,-1.5442601442337036,-9.641449928283691,-1.237802267074585
1766400717008233200,3.952233154296875,-1.7310078144073486,-9.6989107131958,-1.2401964664459229
1766400717018304300,3.96230419921875,-1.8626888990402222,-9.873687744140625,-1.3886369466781616
1766400717078454300,4.022454345703125,-1.6950948238372803,-9.512163162231445,-1.2473790645599365
1766400717088464100,4.032464111328125,-1.6855180263519287,-9.658209800720215,-1.0821791887283325
1766400717098473700,4.0424736328125,-1.6974890232086182,-9.648633003234863,-1.115697979927063
1766400717108483600,4.052483642578125,-1.5945383310317993,-9.469067573547363,-1.036689281463623
1766400717118524000,4.06252392578125,-1.6136919260025024,-9.500192642211914,-0.9433154463768005
1766400717128564200,4.072564208984375,-1.8148049116134644,-9.445125579833984,-0.8858546018600464
1766400717148583700,4.092583740234375,-1.8818424940109253,-9.311050415039062,-0.6991068720817566
1766400717158562800,4.102562744140625,-2.2697031497955322,-9.524134635925293,-0.4668693244457245
1766400717168603100,4.11260302734375,-2.8443117141723633,-9.938331604003906,-0.304063618183136
1766400717178643500,4.1226435546875,-3.1435868740081787,-10.469843864440918,-0.42856210470199585
1766400717188622800,4.132622802734375,-3.224989652633667,-10.572794914245605,-0.3734954595565796
1766400717198632400,4.142632568359375,-3.2178070545196533,-10.740388870239258,-0.3902548849582672
1766400717208642300,4.152642333984375,-2.4827871322631836,-10.984597206115723,-0.5554547905921936
1766400717218652000,4.16265185546875,-1.7310078144073486,-10.438719749450684,-0.6200982332229614
1766400717228661800,4.172661865234375,-0.8236053586006165,-9.9000244140625,-0.5746083855628967
1766400717248712000,4.1927119140625,0.4812345504760742,-9.691728591918945,-0.6224924325942993
1766400717258721500,4.202721435546875,0.6799532771110535,-9.72285270690918,-0.5027823448181152
1766400717268731400,4.2127314453125,1.0630255937576294,-9.607931137084961,-0.667982280254364
1766400717278741200,4.2227412109375,0.9074024558067322,-9.964667320251465,-0.5889736413955688
1766400717288750800,4.232750732421875,0.5386953949928284,-10.02452278137207,-0.2968810200691223
1766400717298760700,4.2427607421875,-0.17238251864910126,-9.53849983215332,-0.42377370595932007
1766400717308770600,4.2527705078125,-0.3016694188117981,-8.609549522399902,-0.5817909836769104
1766400717318780200,4.2627802734375,-0.7541735172271729,-8.999804496765137,-0.2944868206977844
1766400717328790000,4.2727900390625,-1.0678139925003052,-9.988609313964844,-0.09576806426048279
1766400717378838800,4.3228388671875,0.2322375625371933,-9.17697525024414,-0.4189853072166443
1766400717388848600,4.3328486328125,0.2825157940387726,-9.227252960205078,-0.27054479718208313
1766400717398858200,4.342858154296875,0.42377370595932007,-8.882488250732422,-0.16759411990642548
1766400717408868000,4.3528681640625,0.15083470940589905,-9.14585018157959,0.014365210197865963
1766400717418878000,4.3628779296875,0.047884032130241394,-9.617507934570312,0.043095629662275314
1766400717428887600,4.372887451171875,0.021547814831137657,-9.548076629638672,0.1364694982767105
1766400717438897400,4.3828974609375,0.07661445438861847,-9.567230224609375,0.15322890877723694
1766400717458916900,4.402916748046875,0.05506663769483566,-9.840168952941895,0.24420857429504395
1766400717468926700,4.4129267578125,0,-9.919178009033203,0.31603461503982544
1766400717478936600,4.4229365234375,-0.031124621629714966,-9.9000244140625,0.23702596127986908
1766400717488946200,4.4329462890625,-0.031124621629714966,-9.9000244140625,0.23702596127986908
1766400717498956000,4.4429560546875,-0.10773907601833344,-9.916783332824707,0.12689268589019775
1766400717508965600,4.452965576171875,-0.28730419278144836,-9.677363395690918,0.05985504388809204
1766400717518975500,4.4629755859375,-0.26336219906806946,-9.579200744628906,0.09816227108240128
1766400717528985300,4.4729853515625,-0.16519992053508759,-9.3828763961792,0.07661445438861847
1766400717538995000,4.482994873046875,-0.05506663769483566,-9.239224433898926,-0.011971008032560349
1766400717569024300,4.513024169921875,-0.9217676520347595,-9.636661529541016,0.5051765441894531
1766400717589044000,4.5330439453125,-0.9744400978088379,-10.560823440551758,0.272938996553421
1766400717599053600,4.543053466796875,-0.9026140570640564,-11.034875869750977,0.23702596127986908
1766400717609063400,4.5530634765625,-0.5985504388809204,-10.948684692382812,0.14844051003456116
1766400717619073300,4.5630732421875,-0.3280056416988373,-10.666168212890625,0.019153613597154617
1766400717629083000,4.573082763671875,-0.35913026332855225,-10.450690269470215,0.08619125932455063
1766400717639092700,4.5830927734375,-0.689530074596405,-10.481815338134766,0.16759411990642548
1766400717669152500,4.613152587890625,-0.15562310814857483,-9.569623947143555,0.1173158809542656
1766400717679192800,4.62319287109375,0.28730419278144836,-9.078812599182129,0.07900865375995636
1766400717689233200,4.633233154296875,0.20111294090747833,-8.995016098022461,0.13407529890537262
1766400717699273500,4.6432734375,0.05267243832349777,-9.162610054016113,0.3256114423274994
1766400717709252600,4.653252685546875,0.026336219161748886,-9.248801231384277,0.40222588181495667
1766400717719293000,4.66329296875,0.090979665517807,-9.404424667358398,0.4189853072166443
1766400717729272000,4.67327197265625,0.13407529890537262,-9.825803756713867,0.3878606855869293
1766400717739373600,4.68337353515625,0.0454898327589035,-9.856928825378418,0.40701428055763245
1766400717769341700,4.713341796875,-0.033518824726343155,-9.713275909423828,0.304063618183136
1766400717779382000,4.723382080078125,-0.24660277366638184,-9.945513725280762,0.26815059781074524
1766400717789392000,4.733391845703125,-0.30885201692581177,-10.04846477508545,0.17956513166427612
1766400717799401500,4.7434013671875,-0.7110779285430908,-10.438719749450684,0.1604115068912506
1766400717809441800,4.75344189453125,-0.7996633648872375,-10.800244331359863,0.014365210197865963
1766400717819451600,4.76345166015625,-0.8690952062606812,-10.72841739654541,-0.002394201699644327
1766400717829430800,4.7734306640625,-0.36152446269989014,-10.02691650390625,-0.15083470940589905
1766400717839440600,4.783440673828125,0.26575639843940735,-9.557653427124023,-0.2801215946674347
1766400717849481000,4.79348095703125,0.6823474764823914,-9.10993766784668,-0.4357447028160095
1766400717859490600,4.803490478515625,1.2832920551300049,-9.248801231384277,-0.689530074596405
1766400717869500400,4.81350048828125,1.5610195398330688,-9.452308654785156,-0.8834604024887085
1766400717879510300,4.82351025390625,1.414973258972168,-9.509769439697266,-0.9169792532920837
1766400717889519900,4.833519775390625,1.2880805730819702,-9.495404243469238,-0.8355764150619507
1766400717899529700,4.84352978515625,1.161187767982483,-9.5408935546875,-0.6320692300796509
1766400717909539600,4.85353955078125,1.1420341730117798,-9.370905876159668,-0.5434837937355042
1766400717919549200,4.863549072265625,0.6057330369949341,-9.883264541625977,-0.36152446269989014
1766400717929559000,4.87355908203125,0.31364041566848755,-10.714052200317383,-0.395043283700943
1766400717939569000,4.88356884765625,0.5961562395095825,-10.359710693359375,-0.3974374830722809
1766400717949578500,4.89357861328125,0.7924807667732239,-9.526528358459473,-0.5913678407669067
1766400717959588400,4.90358837890625,0.8331822156906128,-9.246406555175781,-0.5626373887062073
1766400717979607800,4.92360791015625,0.22505496442317963,-10.405200958251953,-0.4381389021873474
1766400717989617700,4.93361767578125,0.16998831927776337,-10.278307914733887,-0.43095630407333374
1766400717999627300,4.943627197265625,0.16519992053508759,-9.782708168029785,-0.5578489899635315
1766400718009637000,4.95363720703125,0.28969839215278625,-9.832986831665039,-0.44532153010368347
1766400718019708000,4.9637080078125,0.181959331035614,-10.307038307189941,-0.5578489899635315
1766400718029717800,4.9737177734375,-0.004788403399288654,-10.376470565795898,-0.43095630407333374
1766400718039727400,4.983727294921875,-0.10295066982507706,-9.974244117736816,-0.3519476354122162
1766400718049737200,4.9937373046875,-0.1604115068912506,-9.864110946655273,-0.2298433631658554
1766400718059747000,5.0037470703125,-0.033518824726343155,-9.59835433959961,-0.28730419278144836
1766400718069756700,5.013756591796875,0.35434186458587646,-9.337387084960938,-0.2585737705230713
1766400718079766500,5.0237666015625,0.5650315880775452,-9.102754592895508,-0.37828385829925537
1766400718109795800,5.0537958984375,0.31842881441116333,-9.703699111938477,-0.49559974670410156
1766400718119866600,5.06386669921875,0.5386953949928284,-9.617507934570312,-0.3663128614425659
1766400718129876500,5.07387646484375,0.7637503147125244,-9.765948295593262,-0.608127236366272
1766400718139886000,5.083885986328125,0.706289529800415,-10.187328338623047,-0.5817909836769104
1766400718149896000,5.09389599609375,0.6871358752250671,-10.220847129821777,-0.608127236366272
1766400718159905800,5.10390576171875,0.6177040338516235,-10.086771965026855,-0.6057330369949341
1766400718169915400,5.113915283203125,0.706289529800415,-9.86889934539795,-0.5817909836769104
1766400718179925200,5.12392529296875,0.6607996821403503,-9.622296333312988,-0.5554547905921936
1766400718209954600,5.15395458984375,0.6607996821403503,-10.156203269958496,-0.47644615173339844
1766400718219964200,5.163964111328125,0.5770025849342346,-10.26394271850586,-0.545877993106842
1766400718229974000,5.17397412109375,0.45010992884635925,-10.237606048583984,-0.6200982332229614
1766400718240044800,5.184044921875,0.3447650372982025,-10.218452453613281,-0.5626373887062073
1766400718250054700,5.1940546875,0.4620809257030487,-10.168174743652344,-0.629675030708313
1766400718260125400,5.20412548828125,0.629675030708313,-9.775525093078613,-0.6751648783683777
1766400718270104600,5.2141044921875,0.730231523513794,-9.564835548400879,-0.629675030708313
1766400718280145000,5.224144775390625,0.8212111592292786,-9.703699111938477,-0.7230489253997803
1766400718290154800,5.23415478515625,0.9744400978088379,-9.634267807006836,-0.7733271718025208
1766400718300195000,5.244195068359375,1.0103530883789062,-9.773131370544434,-0.8355764150619507
1766400718320184000,5.26418408203125,0.9696516990661621,-9.964667320251465,-0.7733271718025208
1766400718330254800,5.2742548828125,0.9169792532920837,-9.804255485534668,-0.6584054827690125
1766400718340264700,5.2842646484375,0.9624691009521484,-9.837775230407715,-0.8379706144332886
1766400718350274300,5.2942744140625,0.9888052940368652,-9.68933391571045,-0.7254431247711182
1766400718360284200,5.3042841796875,1.0247182846069336,-9.75397777557373,-0.768538773059845
1766400718370293800,5.314293701171875,0.8667010068893433,-9.636661529541016,-0.8020575642585754
1766400718380334000,5.324333984375,0.6584054827690125,-9.734824180603027,-0.7948749661445618
1766400718390313500,5.3343134765625,0.5650315880775452,-9.603142738342285,-0.7469909191131592
1766400718400353800,5.344353759765625,0.5746083855628967,-9.658209800720215,-0.8403648138046265
1766400718440484400,5.384484375,0.9576807022094727,-9.607931137084961,-0.8379706144332886
1766400718450524700,5.394524658203125,0.9217676520347595,-9.8784761428833,-0.8738836050033569
1766400718460534300,5.4045341796875,0.9217676520347595,-9.988609313964844,-0.828393816947937
1766400718470544100,5.414544189453125,0.8331822156906128,-9.99339771270752,-0.7948749661445618
1766400718480554000,5.424553955078125,0.9050082564353943,-9.75637149810791,-0.7972691655158997
1766400718490563600,5.4345634765625,0.7996633648872375,-9.691728591918945,-0.8212111592292786
1766400718500604000,5.44460400390625,0.7948749661445618,-9.555258750915527,-0.8236053586006165
1766400718510583300,5.454583251953125,0.7110779285430908,-9.435548782348633,-0.7398083209991455
1766400718530602800,5.474602783203125,0.6272808313369751,-9.725247383117676,-0.7733271718025208
1766400718540643000,5.48464306640625,0.5961562395095825,-9.715670585632324,-0.7852981686592102
1766400718550652700,5.494652587890625,0.6248866319656372,-9.813833236694336,-0.7422025203704834
1766400718560723500,5.504723388671875,0.6943184733390808,-9.911994934082031,-0.6344634294509888
1766400718570763800,5.514763671875,0.6799532771110535,-9.96945571899414,-0.5937620401382446
1766400718580804000,5.52480419921875,0.8954314589500427,-9.995792388916016,-0.7350199222564697
1766400718590814000,5.53481396484375,0.7134721279144287,-10.010157585144043,-0.7206547260284424
1766400718600823600,5.544823486328125,0.28969839215278625,-10.407594680786133,-0.5219359993934631
1766400718610833400,5.55483349609375,1.2449848651885986,-9.86889934539795,-0.8547300100326538
1766400718630852900,5.574852783203125,1.316810965538025,-8.367734909057617,-0.8858546018600464
1766400718640862700,5.58486279296875,1.3479355573654175,-9.682151794433594,-1.0845733880996704
1766400718650872600,5.59487255859375,1.290474772453308,-9.880870819091797,-1.2234370708465576
1766400718660882200,5.604882080078125,1.1300631761550903,-9.543288230895996,-1.455674648284912
1766400718670892000,5.61489208984375,0.9217676520347595,-10.426748275756836,-1.403002142906189
1766400718690911500,5.634911376953125,-0.08858546614646912,-11.537657737731934,-0.9481038451194763
1766400718700921300,5.64492138671875,0.090979665517807,-10.608707427978516,-0.6871358752250671
1766400718710931200,5.65493115234375,0.31603461503982544,-9.981427192687988,-0.49799394607543945
1766400718720971300,5.66497119140625,0.4884171485900879,-9.607931137084961,-0.3711012601852417
1766400718740991000,5.684990966796875,0.6224924325942993,-9.6989107131958,-0.43335050344467163
1766400718751000600,5.69500048828125,0.7637503147125244,-9.787496566772461,-0.42616790533065796
1766400718761071400,5.7050712890625,0.8834604024887085,-9.66539192199707,-0.6153098344802856
1766400718771020300,5.715020263671875,0.8643068075180054,-9.564835548400879,-0.5363011956214905
1766400718781030000,5.72502978515625,0.586579442024231,-9.674968719482422,-0.524330198764801
1766400718791039700,5.735039794921875,0.42856210470199585,-9.945513725280762,-0.48602294921875
1766400718801049600,5.745049560546875,0.49559974670410156,-9.854534149169922,-0.5410895943641663
1766400718811089700,5.755089599609375,0.646434485912323,-9.765948295593262,-0.6631938815116882
1766400718821099500,5.765099609375,0.7781155705451965,-9.557653427124023,-0.6033388376235962
1766400718841119000,5.785118896484375,0.8188169598579407,-9.591172218322754,-0.7134721279144287
1766400718851159300,5.7951591796875,0.8475474119186401,-9.639056205749512,-0.751779317855835
1766400718861199600,5.80519970703125,0.9026140570640564,-9.703699111938477,-0.8164227604866028
1766400718871209500,5.81520947265625,0.8978256583213806,-9.835380554199219,-0.8020575642585754
1766400718881188600,5.825188720703125,0.7972691655158997,-10.050858497619629,-0.8236053586006165
1766400718891229000,5.83522900390625,0.7374141216278076,-10.139444351196289,-0.7805097699165344
1766400718901238800,5.84523876953125,0.7565677165985107,-9.888052940368652,-0.8044517636299133
1766400718911248400,5.855248291015625,0.8355764150619507,-9.555258750915527,-0.7398083209991455
1766400718921258200,5.86525830078125,0.8355764150619507,-9.555258750915527,-0.7398083209991455
1766400718961358300,5.9053583984375,0.9744400978088379,-9.96945571899414,-0.8595184087753296
1766400718971368200,5.9153681640625,0.9193734526634216,-9.904812812805176,-0.9648633003234863
1766400718981377800,5.925377685546875,0.7948749661445618,-9.914389610290527,-0.9528923034667969
1766400718991357200,5.935357177734375,0.6512228846549988,-10.079588890075684,-0.9528923034667969
1766400719001366800,5.94536669921875,0.4118026793003082,-9.923966407775879,-0.7996633648872375
1766400719011376600,5.955376708984375,0.15801730751991272,-9.773131370544434,-0.6344634294509888
1766400719021386500,5.965386474609375,0.13407529890537262,-9.68694019317627,-0.5602431893348694
1766400719051415800,5.995415771484375,0.8619126081466675,-9.586383819580078,-0.689530074596405
1766400719061425400,6.00542529296875,0.9433154463768005,-9.830592155456543,-0.7374141216278076
1766400719071404800,6.01540478515625,0.8738836050033569,-9.780313491821289,-0.7565677165985107
1766400719081445000,6.025445068359375,0.9600749015808105,-10.02452278137207,-0.7469909191131592
1766400719091454700,6.035454833984375,0.9361328482627869,-10.204087257385254,-0.6919242739677429
1766400719101464600,6.045464599609375,0.8786720037460327,-10.292673110961914,-0.6320692300796509
1766400719111474200,6.05547412109375,0.768538773059845,-10.273519515991211,-0.43095630407333374
1766400719121453600,6.06545361328125,0.7374141216278076,-10.02691650390625,-0.33518823981285095
1766400719151483000,6.09548291015625,0.9983820915222168,-9.342175483703613,-0.44771572947502136
1766400719161462000,6.1054619140625,1.0462661981582642,-9.725247383117676,-0.524330198764801
1766400719171502300,6.11550244140625,1.0055646896362305,-10.08198356628418,-0.6488286852836609
1766400719181542700,6.125542724609375,0.8523358106613159,-10.196905136108398,-0.6943184733390808
1766400719191521800,6.135521728515625,0.4596867263317108,-10.553641319274902,-0.5147533416748047
1766400719201531600,6.14553173828125,0.3902548849582672,-10.556035041809082,-0.3256114423274994
1766400719211572000,6.155572021484375,0.689530074596405,-10.132261276245117,-0.272938996553421
1766400719221581800,6.165581787109375,0.9169792532920837,-9.579200744628906,-0.3974374830722809
1766400719231591400,6.17559130859375,1.0989385843276978,-9.17697525024414,-0.507570743560791
1766400719271630600,6.215630615234375,0.5554547905921936,-10.180145263671875,-0.6320692300796509
1766400719281609700,6.225609619140625,0.5506663918495178,-10.125079154968262,-0.7206547260284424
1766400719291650000,6.235650146484375,0.6512228846549988,-9.926360130310059,-0.5841852426528931
1766400719301629400,6.24562939453125,0.8355764150619507,-9.804255485534668,-0.6224924325942993
1766400719311639000,6.25563916015625,0.8044517636299133,-9.742006301879883,-0.790086567401886
1766400719321618400,6.265618408203125,0.6105214357376099,-9.775525093078613,-0.950498104095459
1766400719331658500,6.275658447265625,0.4836287498474121,-9.35893440246582,-0.9792284965515137
1766400719341668400,6.28566845703125,0.49559974670410156,-8.995016098022461,-0.9672574996948242
1766400719361687800,6.305687744140625,0.17956513166427612,-9.952696800231934,-1.2497732639312744
1766400719381768400,6.3257685546875,0.35434186458587646,-10.08437728881836,-1.1013327836990356
1766400719391778300,6.3357783203125,0.38067805767059326,-9.782708168029785,-1.1803414821624756
1766400719401788000,6.345787841796875,0.48602294921875,-10.27591323852539,-1.1994950771331787
1766400719411797800,6.3557978515625,0.689530074596405,-9.797073364257812,-0.9528923034667969
1766400719421807600,6.3658076171875,0.828393816947937,-9.035717010498047,-1.0797849893569946
1766400719431756300,6.37575634765625,0.8619126081466675,-9.071630477905273,-1.048660397529602
1766400719441796600,6.385796630859375,0.7565677165985107,-9.50737476348877,-0.9600749015808105
1766400719491845400,6.435845458984375,0.24181437492370605,-10.007762908935547,-0.6775590777397156
1766400719501855200,6.445855224609375,0.22266076505184174,-10.146626472473145,-0.49559974670410156
1766400719511864800,6.45586474609375,0.33279404044151306,-10.110713958740234,-0.49320554733276367
1766400719521874700,6.465874755859375,0.507570743560791,-9.895236015319824,-0.6177040338516235
1766400719531915000,6.4759150390625,0.6512228846549988,-9.713275909423828,-0.6775590777397156
1766400719541955300,6.485955322265625,0.5746083855628967,-9.859322547912598,-0.6009446382522583
1766400719551934500,6.4959345703125,0.689530074596405,-10.041281700134277,-0.5913678407669067
1766400719561944300,6.5059443359375,0.5841852426528931,-10.046070098876953,-0.5650315880775452
1766400719571984600,6.515984619140625,0.6129156351089478,-9.99100399017334,-0.5602431893348694
1766400719581994200,6.525994140625,0.6991068720817566,-9.75637149810791,-0.47405192255973816
1766400719592004000,6.536004150390625,0.727837324142456,-9.734824180603027,-0.4189853072166443
1766400719602014000,6.546013916015625,0.6224924325942993,-9.72285270690918,-0.5219359993934631
1766400719612023600,6.5560234375,0.6224924325942993,-9.72285270690918,-0.5219359993934631
1766400719622033400,6.566033447265625,0.7422025203704834,-9.86889934539795,-0.6272808313369751
1766400719632043300,6.576043212890625,0.8092401623725891,-9.804255485534668,-0.7206547260284424
1766400719642083300,6.586083251953125,0.7972691655158997,-9.694122314453125,-0.7110779285430908
1766400719682153000,6.626153076171875,0.6057330369949341,-10.070012092590332,-0.5961562395095825
1766400719692162800,6.636162841796875,0.5578489899635315,-10.06043529510498,-0.6536170840263367
1766400719702203100,6.646203125,0.6105214357376099,-10.043676376342773,-0.5602431893348694
1766400719712212700,6.656212646484375,0.7422025203704834,-9.794678688049316,-0.5363011956214905
1766400719722222600,6.66622265625,0.8930372595787048,-9.433155059814453,-0.5219359993934631
1766400719732232400,6.676232421875,0.8954314589500427,-9.433155059814453,-0.5171475410461426
1766400719742272500,6.6862724609375,0.8212111592292786,-9.806650161743164,-0.6512228846549988
1766400719752252000,6.696251953125,0.7350199222564697,-9.904812812805176,-0.7350199222564697
1766400719792321500,6.736321533203125,0.6488286852836609,-10.038887977600098,-0.706289529800415
1766400719802331100,6.7463310546875,0.7996633648872375,-10.000580787658691,-0.7422025203704834
1766400719812371500,6.756371337890625,0.933738648891449,-9.600749015808105,-0.5650315880775452
1766400719822381300,6.76638134765625,1.01753568649292,-9.576807022094727,-0.6991068720817566
1766400719832391200,6.77639111328125,1.0271124839782715,-9.660603523254395,-0.7781155705451965
1766400719842370300,6.786370361328125,1.0438719987869263,-9.730035781860352,-0.790086567401886
1766400719852410600,6.79641064453125,1.0055646896362305,-9.524134635925293,-0.7876923680305481
1766400719882409500,6.826409423828125,0.5195417404174805,-10.019734382629395,-0.730231523513794
1766400719892449500,6.836449462890625,0.6248866319656372,-9.763554573059082,-0.5315127968788147
1766400719912438500,6.8564384765625,0.7134721279144287,-9.627084732055664,-0.6272808313369751
1766400719922418000,6.86641796875,0.7829039692878723,-9.732429504394531,-0.5410895943641663
1766400719932458200,6.876458251953125,0.7110779285430908,-9.77791976928711,-0.6177040338516235
1766400719942467800,6.8864677734375,0.7709329724311829,-9.653421401977539,-0.5817909836769104
1766400719952447200,6.896447265625,0.6823474764823914,-9.787496566772461,-0.6200982332229614
1766400719982507000,6.926507080078125,0.6416460275650024,-9.907206535339355,-0.6392518281936646
1766400719992516900,6.936516845703125,0.6009446382522583,-9.955090522766113,-0.5530605912208557
1766400720002557200,6.94655712890625,0.6727706789970398,-9.967061996459961,-0.706289529800415
1766400720012566800,6.95656689453125,0.7374141216278076,-10.019734382629395,-0.5841852426528931
1766400720022576600,6.96657666015625,0.7015010714530945,-9.964667320251465,-0.6200982332229614
1766400720032586200,6.976586181640625,0.7206547260284424,-9.835380554199219,-0.6272808313369751
1766400720042596000,6.98659619140625,0.8044517636299133,-9.725247383117676,-0.6129156351089478
1766400720052606000,6.99660595703125,0.8451532125473022,-9.751583099365234,-0.6631938815116882
1766400720092675600,7.036675537109375,0.8690952062606812,-9.801861763000488,-0.5482721924781799
1766400720102654700,7.04665478515625,0.8140285611152649,-9.660603523254395,-0.6512228846549988
1766400720112664600,7.05666455078125,0.6703764796257019,-9.591172218322754,-0.6344634294509888
1766400720122674200,7.066674072265625,0.5267243981361389,-9.701305389404297,-0.5506663918495178
1766400720132684000,7.07668408203125,0.29209262132644653,-9.971850395202637,-0.6272808313369751
1766400720142694000,7.08669384765625,0.20350714027881622,-9.998186111450195,-0.5386953949928284
1766400720152703500,7.096703369140625,0.2849099934101105,-9.919178009033203,-0.4213795065879822
1766400720162713300,7.10671337890625,0.47884035110473633,-9.852140426635742,-0.3280056416988373
1766400720202783000,7.146782958984375,0.5602431893348694,-9.524134635925293,-0.45489832758903503
1766400720212792600,7.15679248046875,0.395043283700943,-9.59835433959961,-0.3974374830722809
1766400720222772000,7.16677197265625,0.1843535304069519,-10.034099578857422,-0.3064578175544739
1766400720232781600,7.176781494140625,-0.07661445438861847,-10.309432983398438,0.014365210197865963
1766400720242822000,7.18682177734375,-0.17238251864910126,-10.182539939880371,0.12449848651885986
1766400720252831700,7.196831787109375,-0.011971008032560349,-10.089165687561035,0.15562310814857483
1766400720262841600,7.206841552734375,0.10534487664699554,-10.326191902160645,0.16998831927776337
1766400720292840200,7.236840087890625,0.9600749015808105,-9.01895809173584,-0.22026655077934265
1766400720302850000,7.24685009765625,0.9385270476341248,-9.160215377807617,-0.4118026793003082
1766400720312829200,7.2568291015625,0.9385270476341248,-9.160215377807617,-0.4118026793003082
1766400720322839000,7.266839111328125,0.7757213711738586,-9.674968719482422,-0.4908113479614258
1766400720332787700,7.27678759765625,0.8762778043746948,-9.876082420349121,-0.5291185975074768
1766400720342828000,7.286828125,1.2449848651885986,-9.397241592407227,-0.790086567401886
1766400720352838000,7.296837890625,1.4389152526855469,-9.464279174804688,-1.0630255937576294
1766400720362847500,7.306847412109375,1.5729905366897583,-9.974244117736816,-1.2617442607879639
1766400720372857300,7.316857421875,1.7980455160140991,-10.481815338134766,-1.2210428714752197
1766400720402886700,7.34688671875,1.9512743949890137,-9.801861763000488,-1.0630255937576294
1766400720412896500,7.356896484375,1.9847931861877441,-9.854534149169922,-0.9552865028381348
1766400720422936600,7.3669365234375,1.9800047874450684,-9.509769439697266,-1.1659762859344482
1766400720432946400,7.376946533203125,2.33913516998291,-9.62947940826416,-1.1516109704971313
1766400720442986800,7.38698681640625,2.52109432220459,-9.612719535827637,-1.0007762908935547
1766400720452966000,7.3969658203125,2.410961151123047,-9.464279174804688,-1.091755986213684
1766400720462975700,7.406975830078125,2.3104045391082764,-9.53849983215332,-1.115697979927063
1766400720493005000,7.437005126953125,1.3886369466781616,-9.655815124511719,-0.9169792532920837
1766400720503015000,7.447014892578125,1.316810965538025,-9.497797966003418,-0.8619126081466675
1766400720513024500,7.4570244140625,1.1779472827911377,-9.624691009521484,-0.8259995579719543
1766400720523034400,7.467034423828125,0.950498104095459,-10.031704902648926,-0.6416460275650024
1766400720533044200,7.477044189453125,0.8547300100326538,-10.156203269958496,-0.5291185975074768
1766400720553063700,7.497063720703125,0.8523358106613159,-9.840168952941895,-0.3758896589279175
1766400720563104000,7.50710400390625,0.7637503147125244,-9.72285270690918,-0.24420857429504395
1766400720573113600,7.517113525390625,0.7781155705451965,-9.63187313079834,-0.2849099934101105
1766400720593102600,7.5371025390625,0.768538773059845,-9.600749015808105,-0.181959331035614
1766400720623223600,7.5672236328125,1.1420341730117798,-9.746794700622559,-0.38307225704193115
1766400720633233400,7.5772333984375,1.1540051698684692,-9.658209800720215,-0.40701428055763245
1766400720643243000,7.587242919921875,1.0630255937576294,-9.617507934570312,-0.45250412821769714
1766400720653252900,7.5972529296875,0.9888052940368652,-9.856928825378418,-0.5027823448181152
1766400720663293200,7.607293212890625,0.9888052940368652,-9.849745750427246,-0.7134721279144287
1766400720673302800,7.617302734375,1.0223240852355957,-9.895236015319824,-0.5985504388809204
1766400720683312600,7.627312744140625,1.0007762908935547,-9.730035781860352,-0.5147533416748047
1766400720703362800,7.64736279296875,1.115697979927063,-9.931148529052734,-0.5363011956214905
1766400720713342000,7.657342041015625,1.1037269830703735,-10.019734382629395,-0.49559974670410156
1766400720723351800,7.667351806640625,1.0319008827209473,-9.871294021606445,-0.4908113479614258
1766400720733331000,7.6773310546875,1.1228805780410767,-9.694122314453125,-0.48602294921875
1766400720743371300,7.687371337890625,1.1516109704971313,-9.674968719482422,-0.5123591423034668
1766400720753381000,7.697381103515625,1.1252747774124146,-9.672574996948242,-0.629675030708313
1766400720763390700,7.707390625,1.173158884048462,-9.885659217834473,-0.6248866319656372
1766400720773370000,7.7173701171875,1.1204863786697388,-9.945513725280762,-0.6823474764823914
1766400720813439700,7.757439697265625,1.2689268589019775,-9.516951560974121,-0.7158663272857666
1766400720823449300,7.767449462890625,1.2761094570159912,-9.849745750427246,-0.6919242739677429
1766400720833428700,7.7774287109375,1.381454348564148,-10.029311180114746,-0.7709329724311829
1766400720843468800,7.78746875,1.3886369466781616,-9.904812812805176,-0.6488286852836609
1766400720853478700,7.797478759765625,1.3934253454208374,-9.732429504394531,-0.608127236366272
1766400720863519000,7.80751904296875,1.2545616626739502,-9.78989028930664,-0.4908113479614258
1766400720873528800,7.81752880859375,1.1061211824417114,-10.02691650390625,-0.5147533416748047
1766400720883538400,7.827538330078125,1.1037269830703735,-10.098742485046387,-0.5195417404174805
1766400720913537300,7.857537353515625,1.3718775510787964,-9.50498104095459,-0.42856210470199585
1766400720923547100,7.867547119140625,1.2282254695892334,-9.75397777557373,-0.4572925269603729
1766400720933556700,7.877556640625,1.0654197931289673,-9.871294021606445,-0.4357447028160095
1766400720943566600,7.887566650390625,1.0247182846069336,-9.77791976928711,-0.3519476354122162
1766400720953545700,7.897545654296875,1.05105459690094,-9.77791976928711,-0.5482721924781799
1766400720963586000,7.9075859375,1.01753568649292,-9.921571731567383,-0.5147533416748047
1766400720983636200,7.92763623046875,0.9409212470054626,-10.002974510192871,-0.43095630407333374
1766400720993645800,7.937645751953125,1.1013327836990356,-9.68694019317627,-0.48602294921875
1766400721023675100,7.967675048828125,1.2114660739898682,-9.818621635437012,-0.5937620401382446
1766400721033685000,7.97768505859375,1.2617442607879639,-9.691728591918945,-0.629675030708313
1766400721043694800,7.98769482421875,1.1875240802764893,-9.617507934570312,-0.5746083855628967
1766400721053704400,7.997704345703125,1.1300631761550903,-9.75637149810791,-0.5722141861915588
1766400721063714300,8.00771435546875,1.1563993692398071,-9.84256362915039,-0.5937620401382446
1766400721073724200,8.01772412109375,1.2425906658172607,-9.758766174316406,-0.6536170840263367
1766400721083764200,8.02776416015625,1.3670891523361206,-9.727641105651855,-0.667982280254364
1766400721093774000,8.037774169921875,1.4245500564575195,-9.6989107131958,-0.6799532771110535
1766400721123803400,8.067803466796875,1.3623007535934448,-9.921571731567383,-0.5746083855628967
1766400721133813200,8.077813232421875,1.3096283674240112,-9.81143856048584,-0.5554547905921936
1766400721143853600,8.087853515625,1.2641384601593018,-9.995792388916016,-0.5506663918495178
1766400721153863200,8.09786328125,1.3646949529647827,-9.835380554199219,-0.5913678407669067
1766400721163903500,8.107903564453125,1.4221558570861816,-9.624691009521484,-0.6057330369949341
1766400721173882600,8.117882568359375,1.5897499322891235,-9.50737476348877,-0.6871358752250671
1766400721183892500,8.127892578125,1.5059528350830078,-9.53849983215332,-0.6488286852836609
1766400721193902300,8.13790234375,1.2976573705673218,-9.80904483795166,-0.6416460275650024
1766400721223901000,8.16790087890625,1.2042834758758545,-9.885659217834473,-0.5339069962501526
1766400721233910800,8.177910888671875,1.2306196689605713,-9.832986831665039,-0.5099649429321289
1766400721243920600,8.187920654296875,1.1563993692398071,-9.828198432922363,-0.5339069962501526
1766400721253930200,8.19793017578125,1.1683704853057861,-9.746794700622559,-0.4812345504760742
1766400721264001000,8.2080009765625,1.2545616626739502,-9.53849983215332,-0.47884035110473633
1766400721273980400,8.21798046875,1.3120225667953491,-9.481039047241211,-0.5003881454467773
1766400721283990300,8.227990234375,1.3407529592514038,-9.617507934570312,-0.5674257874488831
1766400721293969400,8.237969482421875,1.2761094570159912,-9.696516990661621,-0.44532153010368347
1766400721303979300,8.247979248046875,1.2689268589019775,-9.746794700622559,-0.49799394607543945
1766400721334008600,8.278008544921875,1.3646949529647827,-10.007762908935547,-0.5674257874488831
1766400721344048600,8.288048583984375,1.2856862545013428,-9.799467086791992,-0.5482721924781799
1766400721354028000,8.298028076171875,1.3024457693099976,-9.797073364257812,-0.667982280254364
1766400721364068400,8.308068359375,1.359906554222107,-9.782708168029785,-0.7374141216278076
1766400721374078000,8.318077880859375,1.3958195447921753,-9.794678688049316,-0.6871358752250671
1766400721384087800,8.328087890625,1.2952631711959839,-9.758766174316406,-0.9002198576927185
1766400721394097700,8.33809765625,1.2282254695892334,-9.86889934539795,-0.8259995579719543
1766400721404107300,8.348107177734375,1.1994950771331787,-9.708487510681152,-0.7086837291717529
1766400721424127000,8.368126953125,1.3455413579940796,-9.694122314453125,-0.8164227604866028
1766400721434136600,8.378136474609375,1.259350061416626,-9.694122314453125,-0.7996633648872375
1766400721444146400,8.388146484375,1.259350061416626,-9.627084732055664,-0.7134721279144287
1766400721454156300,8.39815625,1.1899182796478271,-9.521739959716797,-0.7182605266571045
1766400721464166000,8.408165771484375,1.1779472827911377,-9.615114212036133,-0.7565677165985107
1766400721474175700,8.41817578125,1.2066776752471924,-9.615114212036133,-0.7374141216278076
1766400721484185600,8.428185546875,1.338358759880066,-9.732429504394531,-0.7613561153411865
1766400721494195200,8.4381953125,1.414973258972168,-9.701305389404297,-0.7493851184844971
1766400721504205000,8.448205078125,1.4484920501708984,-9.72285270690918,-0.6655880808830261
1766400721514214700,8.458214599609375,1.3503297567367554,-9.696516990661621,-0.6224924325942993
1766400721524285700,8.46828564453125,1.2832920551300049,-9.706093788146973,-0.6560112833976746
1766400721534295300,8.47829541015625,1.2832920551300049,-9.706093788146973,-0.6368576288223267
1766400721544305200,8.48830517578125,1.2856862545013428,-9.86889934539795,-0.7469909191131592
1766400721554284300,8.4982841796875,1.2856862545013428,-9.971850395202637,-0.7110779285430908
1766400721564355000,8.50835498046875,1.2425906658172607,-9.926360130310059,-0.5626373887062073
1766400721574365000,8.518364990234375,1.2617442607879639,-9.854534149169922,-0.5722141861915588
1766400721584374800,8.528374755859375,1.2042834758758545,-10.067618370056152,-0.608127236366272
1766400721594384400,8.53838427734375,1.072602391242981,-10.000580787658691,-0.43335050344467163
1766400721604394200,8.548394287109375,1.1228805780410767,-9.744400978088379,-0.4405331015586853
1766400721614404000,8.558404052734375,1.2545616626739502,-9.701305389404297,-0.4381389021873474
1766400721624413700,8.56841357421875,1.2665326595306396,-9.696516990661621,-0.5386953949928284
1766400721634423600,8.578423583984375,1.3215993642807007,-9.782708168029785,-0.5410895943641663
1766400721654443000,8.598443115234375,1.403002142906189,-9.701305389404297,-0.5817909836769104
1766400721664452900,8.608452880859375,1.2665326595306396,-9.742006301879883,-0.5841852426528931
1766400721674462500,8.61846240234375,1.216254472732544,-9.876082420349121,-0.5291185975074768
1766400721684502800,8.628502685546875,1.173158884048462,-9.859322547912598,-0.5195417404174805
1766400721694512600,8.6385126953125,1.2832920551300049,-9.801861763000488,-0.5506663918495178
1766400721704522500,8.6485224609375,1.2832920551300049,-9.801861763000488,-0.5506663918495178
1766400721714501600,8.658501708984375,1.3287819623947144,-9.694122314453125,-0.5674257874488831
1766400721724542000,8.6685419921875,1.2545616626739502,-9.68694019317627,-0.5793967843055725
1766400721734551800,8.6785517578125,1.2521674633026123,-9.761159896850586,-0.6200982332229614
1766400721754571300,8.6985712890625,1.2617442607879639,-9.892841339111328,-0.7086837291717529
1766400721764580900,8.708580810546875,1.2186486721038818,-9.974244117736816,-0.6703764796257019
1766400721784600600,8.7286005859375,1.3311761617660522,-9.806650161743164,-0.7422025203704834
1766400721794610200,8.738610107421875,1.3263877630233765,-9.749189376831055,-0.6224924325942993
1766400721804620000,8.7486201171875,1.1779472827911377,-9.765948295593262,-0.6344634294509888
1766400721814630000,8.7586298828125,1.0462661981582642,-9.782708168029785,-0.5889736413955688
1766400721824670200,8.768670166015625,1.0773907899856567,-9.797073364257812,-0.6584054827690125
1766400721834649300,8.7786494140625,1.139639973640442,-9.84495735168457,-0.6392518281936646
1766400721844689700,8.788689697265625,1.1252747774124146,-9.816226959228516,-0.6153098344802856
1766400721854668800,8.798668701171875,1.1348515748977661,-9.787496566772461,-0.5602431893348694
1766400721864678700,8.8086787109375,1.1180921792984009,-9.6989107131958,-0.6488286852836609
1766400721874657800,8.81865771484375,0.9983820915222168,-9.823410034179688,-0.507570743560791
1766400721884698000,8.828697998046875,0.9481038451194763,-9.813833236694336,-0.33518823981285095
1766400721894677500,8.838677490234375,0.9720458984375,-9.78989028930664,-0.3902548849582672
1766400721904717800,8.8487177734375,1.1540051698684692,-9.742006301879883,-0.5099649429321289
1766400721914727400,8.8587275390625,1.2856862545013428,-9.765948295593262,-0.629675030708313
1766400721944756700,8.8887568359375,0.9528923034667969,-9.99100399017334,-0.6009446382522583
1766400721954766600,8.8987666015625,0.9816226959228516,-10.067618370056152,-0.6727706789970398
1766400721964807000,8.908806884765625,1.0199298858642578,-9.66299819946289,-0.5817909836769104
1766400721974816500,8.91881640625,1.070208191871643,-9.536105155944824,-0.5746083855628967
1766400721984826400,8.928826416015625,1.1180921792984009,-9.5408935546875,-0.7398083209991455
1766400721994836200,8.938836181640625,1.1300631761550903,-9.725247383117676,-0.6871358752250671
1766400722004876300,8.948876220703125,1.1851298809051514,-9.746794700622559,-0.751779317855835
1766400722014886100,8.95888623046875,1.1085153818130493,-9.864110946655273,-0.7015010714530945
1766400722024896000,8.96889599609375,0.8930372595787048,-9.861717224121094,-0.6991068720817566
1766400722054955800,8.998955810546875,0.933738648891449,-9.718064308166504,-0.6272808313369751
1766400722065026600,9.009026611328125,0.9097966551780701,-9.813833236694336,-0.6440402865409851
1766400722075005700,9.019005615234375,0.9145850539207458,-9.880870819091797,-0.6919242739677429
1766400722085015600,9.029015625,0.9385270476341248,-9.794678688049316,-0.6200982332229614
1766400722095025400,9.039025390625,0.7924807667732239,-9.823410034179688,-0.586579442024231
1766400722115044900,9.059044921875,0.7972691655158997,-9.75397777557373,-0.5793967843055725
1766400722125085200,9.069085205078125,0.9002198576927185,-9.871294021606445,-0.5626373887062073
1766400722135094800,9.0790947265625,0.8475474119186401,-9.75637149810791,-0.5578489899635315
1766400722145104600,9.089104736328125,0.9097966551780701,-9.780313491821289,-0.5386953949928284
1766400722155114500,9.099114501953125,0.9983820915222168,-9.727641105651855,-0.6631938815116882
1766400722165124000,9.1091240234375,1.0319008827209473,-9.823410034179688,-0.7637503147125244
1766400722175134000,9.119134033203125,1.0007762908935547,-10.02452278137207,-0.7326257228851318
1766400722185143800,9.129143798828125,1.0055646896362305,-9.974244117736816,-0.689530074596405
1766400722195123000,9.139123046875,1.0414776802062988,-9.703699111938477,-0.6177040338516235
1766400722205163300,9.149163330078125,1.0414776802062988,-9.576807022094727,-0.6967126727104187
1766400722215173000,9.159173095703125,0.9624691009521484,-9.672574996948242,-0.706289529800415
1766400722225182700,9.1691826171875,0.9983820915222168,-9.5408935546875,-0.6919242739677429
1766400722235192600,9.179192626953125,1.170764684677124,-9.500192642211914,-0.6919242739677429
1766400722265282800,9.20928271484375,1.0749965906143188,-10.11789608001709,-1.0654197931289673
1766400722275292700,9.219292724609375,1.1276689767837524,-9.84256362915039,-0.9241618514060974
1766400722285333000,9.2293330078125,1.1085153818130493,-9.801861763000488,-1.036689281463623
1766400722295342600,9.239342529296875,1.137245774269104,-9.799467086791992,-1.0678139925003052
1766400722305383000,9.2493828125,0.8954314589500427,-10.079588890075684,-1.0414776802062988
1766400722315392800,9.259392822265625,0.9385270476341248,-10.036493301391602,-1.0797849893569946
1766400722325433000,9.26943310546875,1.0534487962722778,-9.617507934570312,-1.1803414821624756
1766400722335442700,9.279442626953125,1.094150185585022,-9.832986831665039,-1.0247182846069336
1766400722345483000,9.28948291015625,1.0247182846069336,-10.139444351196289,-0.9840168952941895
1766400722355492900,9.299492919921875,1.0079588890075684,-10.14902114868164,-0.9983820915222168
1766400722365533200,9.309533203125,1.1899182796478271,-9.830592155456543,-0.7996633648872375
1766400722375542800,9.319542724609375,1.1061211824417114,-9.694122314453125,-0.8092401623725891
1766400722385583000,9.3295830078125,1.0797849893569946,-9.730035781860352,-0.7972691655158997
1766400722395593000,9.339593017578125,1.2952631711959839,-9.603142738342285,-0.8619126081466675
1766400722405633300,9.34963330078125,1.3527239561080933,-9.378087997436523,-0.8906430602073669
1766400722425683200,9.36968310546875,1.3718775510787964,-9.579200744628906,-0.8571242094039917
1766400722435693000,9.379693115234375,1.2090718746185303,-9.718064308166504,-0.9313444495201111
1766400722445733400,9.3897333984375,1.0295066833496094,-9.837775230407715,-0.811634361743927
1766400722465814000,9.40981396484375,0.9457096457481384,-9.849745750427246,-0.7852981686592102
1766400722475823600,9.41982373046875,1.1252747774124146,-9.636661529541016,-0.790086567401886
1766400722485864000,9.429864013671875,1.3623007535934448,-9.524134635925293,-0.828393816947937
1766400722495873800,9.439873779296875,1.4101848602294922,-9.442731857299805,-0.8858546018600464
1766400722505883400,9.44988330078125,1.2306196689605713,-9.552865028381348,-0.9648633003234863
1766400722515893200,9.459893310546875,1.0127472877502441,-9.677363395690918,-0.933738648891449
1766400722525933600,9.46993359375,0.7134721279144287,-9.895236015319824,-0.8188169598579407
1766400722535943200,9.479943115234375,0.569819986820221,-10.089165687561035,-0.7374141216278076
1766400722545953000,9.489953125,0.5722141861915588,-10.15141487121582,-0.6703764796257019
1766400722576043300,9.520043212890625,0.7086837291717529,-10.170568466186523,-0.5315127968788147
1766400722586053000,9.53005322265625,0.7134721279144287,-10.005369186401367,-0.4836287498474121
1766400722596063000,9.54006298828125,0.751779317855835,-9.931148529052734,-0.5841852426528931
1766400722606103300,9.550103271484375,0.8786720037460327,-9.8784761428833,-0.5889736413955688
1766400722616113000,9.56011279296875,0.9696516990661621,-9.6989107131958,-0.689530074596405
1766400722626122800,9.570122802734375,1.0271124839782715,-9.727641105651855,-0.727837324142456
1766400722636132600,9.580132568359375,1.0797849893569946,-9.856928825378418,-0.8188169598579407
1766400722646203400,9.590203369140625,1.0845733880996704,-9.926360130310059,-0.7852981686592102
1766400722656182500,9.6001826171875,1.3407529592514038,-9.837775230407715,-0.8786720037460327
1766400722666192400,9.6101923828125,1.4939818382263184,-9.785101890563965,-0.9409212470054626
1766400722676202000,9.620201904296875,1.699883222579956,-9.720458984375,-0.9696516990661621
1766400722686242300,9.6302421875,1.6615760326385498,-9.694122314453125,-0.9289502501487732
1766400722696252200,9.640252197265625,1.6615760326385498,-9.528923034667969,-0.933738648891449
1766400722706292500,9.65029248046875,1.5107412338256836,-9.430760383605957,-1.0103530883789062
1766400722716302000,9.660302001953125,1.0630255937576294,-9.423578262329102,-1.1037269830703735
1766400722726312000,9.67031201171875,0.7254431247711182,-9.363722801208496,-0.9361328482627869
1766400722736291000,9.680291015625,0.047884032130241394,-9.437943458557129,-0.8595184087753296
1766400722746331400,9.690331298828125,-0.14844051003456116,-9.847352027893066,-0.828393816947937
1766400722766351000,9.71035107421875,0.5530605912208557,-9.967061996459961,-0.8954314589500427
1766400722776360700,9.720360595703125,0.8523358106613159,-9.861717224121094,-1.0199298858642578
1766400722786370600,9.73037060546875,0.9648633003234863,-9.93593692779541,-0.8643068075180054
1766400722796380400,9.74038037109375,0.7757213711738586,-9.914389610290527,-0.751779317855835
1766400722806420500,9.75042041015625,0.4836287498474121,-9.96945571899414,-0.6536170840263367
1766400722816430300,9.760430419921875,0.45010992884635925,-9.849745750427246,-0.7757213711738586
1766400722826501000,9.770501220703125,0.6272808313369751,-10.127472877502441,-0.8619126081466675
1766400722836480500,9.78048046875,1.0031704902648926,-10.02691650390625,-0.9481038451194763
1766400722846490000,9.790489990234375,0.9983820915222168,-9.667786598205566,-1.015141487121582
1766400722866509800,9.810509765625,0.5339069962501526,-9.713275909423828,-0.8834604024887085
1766400722876580600,9.82058056640625,0.24420857429504395,-10.187328338623047,-0.730231523513794
1766400722886590200,9.830590087890625,0.07422025501728058,-10.139444351196289,-0.6368576288223267
1766400722896600000,9.84060009765625,0.12689268589019775,-9.761159896850586,-0.5961562395095825
1766400722906610000,9.85060986328125,0.4572925269603729,-9.282320022583008,-0.6631938815116882
1766400722916619500,9.86061962890625,0.5889736413955688,-9.696516990661621,-0.7876923680305481
1766400722926629400,9.87062939453125,0.7206547260284424,-10.20648193359375,-0.8092401623725891
1766400722936639000,9.880638916015625,0.6655880808830261,-10.225635528564453,-0.6200982332229614
1766400722946648800,9.89064892578125,0.629675030708313,-9.828198432922363,-0.6703764796257019
1766400722956658700,9.90065869140625,0.667982280254364,-9.636661529541016,-0.6847416758537292
1766400722976678100,9.92067822265625,0.31603461503982544,-9.931148529052734,-0.5434837937355042
1766400722986688000,9.93068798828125,0.3016694188117981,-9.785101890563965,-0.6129156351089478
1766400722996697600,9.940697509765625,0.31842881441116333,-10.005369186401367,-0.569819986820221
1766400723006707500,9.95070751953125,0.33518823981285095,-9.93354320526123,-0.545877993106842
1766400723016717300,9.96071728515625,0.37828385829925537,-9.75397777557373,-0.5985504388809204
1766400723026757400,9.97075732421875,0.6033388376235962,-9.548076629638672,-0.5961562395095825
1766400723036767200,9.980767333984375,0.7326257228851318,-9.454702377319336,-0.5913678407669067
1766400723046777000,9.990777099609375,0.7445967197418213,-9.476250648498535,-0.6607996821403503
1766400723056786700,10.00078662109375,0.9169792532920837,-9.493009567260742,-0.7350199222564697
1766400723066796500,10.010796630859375,0.8547300100326538,-9.909601211547852,-0.706289529800415
1766400723086816000,10.03081591796875,0.5554547905921936,-10.436325073242188,-0.6344634294509888
1766400723096825900,10.040825927734375,0.5793967843055725,-10.089165687561035,-0.706289529800415
1766400723106835700,10.050835693359375,0.828393816947937,-9.564835548400879,-0.7038952708244324
1766400723116845300,10.06084521484375,0.912190854549408,-9.583989143371582,-0.6919242739677429
1766400723126855200,10.070855224609375,0.9840168952941895,-9.679757118225098,-0.730231523513794
1766400723136865000,10.080864990234375,1.0654197931289673,-9.821015357971191,-0.8690952062606812
1766400723146874600,10.09087451171875,1.0654197931289673,-9.821015357971191,-0.8690952062606812
1766400723156884500,10.100884521484375,1.0534487962722778,-9.8784761428833,-0.8236053586006165
1766400723166894300,10.110894287109375,0.9528923034667969,-10.014945983886719,-0.8355764150619507
1766400723196923400,10.14092333984375,0.871489405632019,-9.9000244140625,-0.7876923680305481
1766400723206963700,10.150963623046875,0.9002198576927185,-9.744400978088379,-0.7110779285430908
1766400723216973600,10.1609736328125,0.9145850539207458,-9.533711433410645,-0.6703764796257019
1766400723226983400,10.1709833984375,0.9457096457481384,-9.516951560974121,-0.811634361743927
1766400723237023500,10.1810234375,0.9409212470054626,-9.469067573547363,-0.9169792532920837
1766400723247063800,10.191063720703125,0.9361328482627869,-9.57441234588623,-0.9169792532920837
1766400723257073700,10.20107373046875,0.8547300100326538,-9.734824180603027,-0.9002198576927185
1766400723267083500,10.21108349609375,0.7996633648872375,-9.847352027893066,-0.9241618514060974
1766400723277093000,10.221093017578125,0.7924807667732239,-9.979032516479492,-0.9217676520347595
1766400723307183600,10.25118359375,0.7182605266571045,-9.940725326538086,-0.8236053586006165
1766400723327233500,10.271233642578125,0.8044517636299133,-9.768342971801758,-0.7374141216278076
1766400723337213000,10.281212890625,0.8379706144332886,-9.737217903137207,-0.751779317855835
1766400723347253000,10.2912529296875,0.7852981686592102,-9.725247383117676,-0.6320692300796509
1766400723357262800,10.301262939453125,0.8427590131759644,-9.703699111938477,-0.7493851184844971
1766400723367272700,10.311272705078125,0.9097966551780701,-9.730035781860352,-0.7733271718025208
1766400723377282300,10.3212822265625,0.8595184087753296,-9.792284965515137,-0.7469909191131592
1766400723397302000,10.341302001953125,0.629675030708313,-9.962273597717285,-0.8475474119186401
1766400723407311600,10.3513115234375,0.569819986820221,-9.945513725280762,-0.6847416758537292
1766400723417321500,10.361321533203125,0.6703764796257019,-9.883264541625977,-0.7374141216278076
1766400723427331300,10.371331298828125,0.7733271718025208,-9.751583099365234,-0.7709329724311829
1766400723437341000,10.3813408203125,0.8212111592292786,-9.619902610778809,-0.7589619159698486
1766400723447381200,10.39138134765625,0.8643068075180054,-9.718064308166504,-0.8020575642585754
1766400723457360600,10.401360595703125,0.7852981686592102,-9.78989028930664,-0.8188169598579407
1766400723467400700,10.411400634765625,0.8619126081466675,-9.825803756713867,-0.8427590131759644
1766400723477410600,10.42141064453125,0.8164227604866028,-9.821015357971191,-0.8547300100326538
1766400723487420400,10.43142041015625,0.7709329724311829,-9.967061996459961,-0.8331822156906128
1766400723507470300,10.45147021484375,0.7038952708244324,-9.976638793945312,-0.7781155705451965
1766400723537499600,10.481499755859375,0.8259995579719543,-9.78989028930664,-0.7709329724311829
1766400723547540000,10.4915400390625,0.9481038451194763,-9.639056205749512,-0.8140285611152649
1766400723557549800,10.5015498046875,0.9672574996948242,-9.588777542114258,-0.8259995579719543
1766400723567590100,10.511590087890625,1.070208191871643,-9.603142738342285,-0.8331822156906128
1766400723577599700,10.521599853515625,1.0678139925003052,-9.75397777557373,-0.811634361743927
1766400723587609600,10.531609619140625,1.137245774269104,-9.804255485534668,-0.8690952062606812
1766400723597619200,10.541619140625,1.0965443849563599,-9.785101890563965,-0.9050082564353943
1766400723607629000,10.551629150390625,1.0007762908935547,-9.888052940368652,-0.8858546018600464
1766400723617639000,10.561638916015625,0.7541735172271729,-9.943120002746582,-0.8188169598579407
1766400723627648500,10.5716484375,0.6200982332229614,-9.962273597717285,-0.8092401623725891
1766400723637658400,10.581658447265625,0.5913678407669067,-9.856928825378418,-0.7422025203704834
1766400723647668200,10.591668212890625,0.5841852426528931,-9.670180320739746,-0.6344634294509888
1766400723657677800,10.601677734375,0.6177040338516235,-9.437943458557129,-0.6440402865409851
1766400723667687700,10.611687744140625,0.8068459630012512,-9.39245319366455,-0.689530074596405
1766400723677697500,10.621697509765625,0.7613561153411865,-9.648633003234863,-0.7350199222564697
1766400723737786600,10.68178662109375,1.0271124839782715,-9.744400978088379,-0.7829039692878723
1766400723747796200,10.691796142578125,0.993593692779541,-9.837775230407715,-0.6607996821403503
1766400723757806000,10.70180615234375,0.9552865028381348,-9.634267807006836,-0.768538773059845
1766400723767816000,10.71181591796875,0.9481038451194763,-9.725247383117676,-0.646434485912323
1766400723777825500,10.721825439453125,0.7757213711738586,-9.864110946655273,-0.7110779285430908
1766400723787835400,10.73183544921875,0.8236053586006165,-9.801861763000488,-0.7015010714530945
1766400723807885300,10.75188525390625,0.849941611289978,-9.861717224121094,-0.7326257228851318
1766400723817895200,10.761895263671875,0.9026140570640564,-9.864110946655273,-0.7493851184844971
1766400723827935500,10.771935546875,0.8978256583213806,-9.837775230407715,-0.7493851184844971
1766400723837945300,10.7819453125,0.9169792532920837,-9.818621635437012,-0.7086837291717529
1766400723847985400,10.7919853515625,0.9145850539207458,-9.830592155456543,-0.706289529800415
1766400723857995300,10.801995361328125,0.9145850539207458,-9.830592155456543,-0.706289529800415
1766400723868035600,10.81203564453125,0.9768342971801758,-9.765948295593262,-0.6823474764823914
1766400723878045400,10.82204541015625,0.9169792532920837,-9.622296333312988,-0.6823474764823914
1766400723908074800,10.85207470703125,0.8978256583213806,-9.799467086791992,-0.7661445140838623
1766400723928094200,10.87209423828125,0.9097966551780701,-9.847352027893066,-0.7422025203704834
1766400723948113700,10.89211376953125,1.039083480834961,-9.837775230407715,-0.8834604024887085
1766400723958123500,10.90212353515625,1.0678139925003052,-9.763554573059082,-0.8188169598579407
1766400723968163800,10.912163818359375,1.05105459690094,-9.780313491821289,-0.9624691009521484
1766400723978173400,10.92217333984375,0.9672574996948242,-9.761159896850586,-0.9074024558067322
1766400723988213800,10.9322138671875,0.8643068075180054,-9.823410034179688,-0.8403648138046265
1766400723998223600,10.9422236328125,0.8595184087753296,-9.888052940368652,-0.8571242094039917
1766400724008233200,10.952233154296875,0.8140285611152649,-9.703699111938477,-0.849941611289978
1766400724018243000,10.9622431640625,0.8954314589500427,-9.682151794433594,-0.7757213711738586
1766400724028253000,10.9722529296875,0.9528923034667969,-9.751583099365234,-0.8259995579719543
1766400724038262500,10.982262451171875,0.8571242094039917,-9.785101890563965,-0.8331822156906128
1766400724048272400,10.9922724609375,0.8427590131759644,-9.861717224121094,-0.7374141216278076
1766400724058282200,11.0022822265625,0.871489405632019,-9.859322547912598,-0.7182605266571045
1766400724068291800,11.012291748046875,0.8403648138046265,-9.916783332824707,-0.7996633648872375
1766400724078301700,11.0223017578125,0.6392518281936646,-9.84256362915039,-0.730231523513794
1766400724088342000,11.032342041015625,0.6057330369949341,-10.134655952453613,-0.667982280254364
1766400724098351600,11.0423515625,0.4836287498474121,-9.90241813659668,-0.5746083855628967
1766400724118401800,11.06240185546875,0.9026140570640564,-9.581595420837402,-0.7996633648872375
1766400724128411600,11.07241162109375,1.05105459690094,-9.516951560974121,-0.8331822156906128
1766400724138421200,11.082421142578125,0.9457096457481384,-9.751583099365234,-0.7709329724311829
1766400724148461600,11.092461669921875,0.912190854549408,-9.962273597717285,-0.8930372595787048
1766400724158441000,11.10244091796875,0.8331822156906128,-10.08437728881836,-0.9481038451194763
1766400724168481000,11.11248095703125,0.8140285611152649,-10.055646896362305,-0.849941611289978
1766400724178521300,11.122521240234375,0.8020575642585754,-10.043676376342773,-0.8020575642585754
1766400724188561700,11.132561767578125,0.8212111592292786,-9.998186111450195,-0.8068459630012512
1766400724198541000,11.142541015625,0.8882488012313843,-9.603142738342285,-0.7469909191131592
1766400724208611800,11.15261181640625,0.950498104095459,-9.481039047241211,-0.8044517636299133
1766400724228661800,11.172661865234375,0.8475474119186401,-9.442731857299805,-0.8044517636299133
1766400724238641200,11.18264111328125,0.8547300100326538,-9.545681953430176,-0.8379706144332886
1766400724248650800,11.192650634765625,0.7781155705451965,-9.667786598205566,-0.8643068075180054
1766400724258660600,11.20266064453125,0.8331822156906128,-9.837775230407715,-0.9457096457481384
1766400724268701000,11.212700927734375,0.9983820915222168,-9.799467086791992,-0.811634361743927
1766400724278710500,11.22271044921875,1.1827356815338135,-9.610325813293457,-0.8882488012313843
1766400724288720400,11.232720458984375,1.2234370708465576,-9.593565940856934,-0.9864110946655273
1766400724298760700,11.2427607421875,1.259350061416626,-9.751583099365234,-1.0749965906143188
1766400724308770600,11.2527705078125,1.2066776752471924,-9.938331604003906,-1.0582371950149536
1766400724328820500,11.272820556640625,1.5298948287963867,-9.801861763000488,-1.139639973640442
1766400724338830300,11.282830322265625,1.5059528350830078,-9.892841339111328,-1.338358759880066
1766400724348870700,11.29287060546875,1.3479355573654175,-9.950302124023438,-1.2856862545013428
1766400724358880300,11.30288037109375,1.1875240802764893,-10.02452278137207,-1.137245774269104
1766400724368890000,11.31289013671875,1.0893617868423462,-9.967061996459961,-1.0989385843276978
1766400724378899700,11.322899658203125,0.9097966551780701,-10.005369186401367,-1.0534487962722778
1766400724388940000,11.33293994140625,0.5961562395095825,-10.046070098876953,-0.912190854549408
1766400724398950000,11.342949951171875,0.5027823448181152,-9.962273597717285,-0.9457096457481384
1766400724408990200,11.352990234375,0.5099649429321289,-9.667786598205566,-0.8475474119186401
1766400724459069400,11.4030693359375,1.5418659448623657,-10.005369186401367,-1.1971008777618408
1766400724469079300,11.413079345703125,1.5298948287963867,-10.15141487121582,-1.2473790645599365
1766400724489160000,11.433159912109375,1.173158884048462,-10.362105369567871,-1.3120225667953491
1766400724499200000,11.443199951171875,1.4197616577148438,-10.144232749938965,-1.2497732639312744
1766400724509209900,11.4532099609375,1.6927006244659424,-9.959878921508789,-1.3934253454208374
1766400724519189200,11.463189208984375,1.4389152526855469,-9.78989028930664,-1.3623007535934448
1766400724529229300,11.473229248046875,0.6009446382522583,-10.103530883789062,-1.2976573705673218
1766400724539239200,11.4832392578125,0.07661445438861847,-10.120290756225586,-1.113303780555725
1766400724549279500,11.493279541015625,-0.1867477297782898,-9.478644371032715,-1.0989385843276978
1766400724559228200,11.503228271484375,-0.05267243832349777,-9.093177795410156,-0.9361328482627869
1766400724569268500,11.5132685546875,-0.1867477297782898,-9.078812599182129,-0.8092401623725891
1766400724579278300,11.5232783203125,-0.31842881441116333,-9.378087997436523,-0.8236053586006165
1766400724589288000,11.533287841796875,-0.31842881441116333,-9.378087997436523,-0.8236053586006165
1766400724599267300,11.543267333984375,-0.1867477297782898,-9.35654067993164,-0.8762778043746948
1766400724609307600,11.5533076171875,0.07900865375995636,-9.246406555175781,-0.8140285611152649
1766400724619317200,11.563317138671875,0.5386953949928284,-9.452308654785156,-0.849941611289978
1766400724629327000,11.5733271484375,0.7015010714530945,-9.619902610778809,-0.7829039692878723
1766400724649346600,11.5933466796875,0.42616790533065796,-9.859322547912598,-0.7709329724311829
1766400724659356400,11.6033564453125,0.3519476354122162,-9.914389610290527,-0.6703764796257019
1766400724669366000,11.613365966796875,0.395043283700943,-9.971850395202637,-0.5386953949928284
1766400724679376000,11.6233759765625,0.586579442024231,-10.034099578857422,-0.5267243981361389
1766400724689416200,11.633416259765625,0.5410895943641663,-10.366893768310547,-0.47165772318840027
1766400724699426000,11.643426025390625,0.7374141216278076,-10.005369186401367,-0.5889736413955688
1766400724709466000,11.653466064453125,1.1971008777618408,-9.727641105651855,-0.9193734526634216
1766400724719476000,11.66347607421875,1.1276689767837524,-9.313444137573242,-1.0414776802062988
1766400724729485800,11.67348583984375,1.2737152576446533,-9.442731857299805,-0.9026140570640564
1766400724759515100,11.70351513671875,1.2090718746185303,-10.220847129821777,-1.3287819623947144
1766400724769524700,11.713524658203125,1.2018892765045166,-9.880870819091797,-1.2186486721038818
1766400724779534600,11.72353466796875,1.1971008777618408,-9.823410034179688,-1.1300631761550903
1766400724789544400,11.73354443359375,1.072602391242981,-9.696516990661621,-1.1180921792984009
1766400724799523600,11.743523681640625,0.811634361743927,-10.077195167541504,-1.036689281463623
1766400724809594400,11.753594482421875,1.137245774269104,-9.995792388916016,-1.1085153818130493
1766400724819573800,11.76357373046875,1.4293384552001953,-9.272743225097656,-1.1013327836990356
1766400724829613800,11.77361376953125,1.1755530834197998,-9.342175483703613,-1.173158884048462
1766400724849694500,11.793694580078125,1.2090718746185303,-10.228029251098633,-1.3455413579940796
1766400724869714000,11.8137138671875,1.647210717201233,-9.974244117736816,-1.3431471586227417
1766400724879723800,11.823723876953125,1.3431471586227417,-10.036493301391602,-1.2234370708465576
1766400724889764000,11.83376416015625,1.048660397529602,-10.101137161254883,-1.1180921792984009
1766400724899774000,11.84377392578125,0.9217676520347595,-9.911994934082031,-1.070208191871643
1766400724909783600,11.853783447265625,0.730231523513794,-10.24239444732666,-1.01753568649292
1766400724919763000,11.863762939453125,0.727837324142456,-10.165780067443848,-0.9457096457481384
1766400724929803300,11.87380322265625,0.5506663918495178,-9.710882186889648,-0.7613561153411865
1766400724969872600,11.91387255859375,0.507570743560791,-9.445125579833984,-0.6392518281936646
1766400724979882500,11.923882568359375,0.6799532771110535,-9.17697525024414,-0.6703764796257019
1766400724989892400,11.933892333984375,0.6584054827690125,-9.430760383605957,-0.6751648783683777
1766400724999902000,11.94390185546875,0.6344634294509888,-9.981427192687988,-0.7852981686592102
1766400725009942300,11.9539423828125,0.6847416758537292,-10.251971244812012,-0.8954314589500427
1766400725019952000,11.9639521484375,0.6272808313369751,-10.199298858642578,-0.8738836050033569
1766400725029992400,11.973992431640625,0.790086567401886,-10.036493301391602,-0.8259995579719543
1766400725050012000,11.994011962890625,0.7254431247711182,-9.706093788146973,-0.8331822156906128
1766400725060052200,12.00405224609375,0.8523358106613159,-9.586383819580078,-0.8858546018600464
1766400725070123000,12.014123046875,0.9361328482627869,-9.239224433898926,-1.0342950820922852
1766400725080102100,12.02410205078125,0.8858546018600464,-9.141061782836914,-0.8786720037460327
1766400725090112000,12.034112060546875,1.0079588890075684,-9.423578262329102,-0.9648633003234863
1766400725100121900,12.044121826171875,1.1420341730117798,-9.718064308166504,-1.1994950771331787
1766400725110131500,12.05413134765625,1.0749965906143188,-9.763554573059082,-1.3551181554794312
1766400725120141300,12.064141357421875,1.0630255937576294,-9.940725326538086,-1.45806884765625
1766400725130151200,12.074151123046875,1.0103530883789062,-10.005369186401367,-1.381454348564148
1766400725140160800,12.084160888671875,0.9265560507774353,-10.02691650390625,-1.381454348564148
1766400725180200000,12.124199951171875,1.8962076902389526,-9.121908187866211,-1.3934253454208374
1766400725190240300,12.134240234375,1.7286136150360107,-9.59835433959961,-1.5155296325683594
1766400725200249900,12.144249755859375,1.381454348564148,-10.201693534851074,-1.5083470344543457
1766400725210290200,12.154290283203125,1.2449848651885986,-10.448296546936035,-1.4389152526855469
1766400725220300000,12.164300048828125,1.161187767982483,-10.055646896362305,-1.4197616577148438
1766400725230309600,12.1743095703125,1.2018892765045166,-9.531316757202148,-1.335964560508728
1766400725240319500,12.184319580078125,1.192312479019165,-9.409213066101074,-1.2545616626739502
1766400725250390300,12.194390380859375,1.1755530834197998,-9.397241592407227,-1.158793568611145
1766400725270409700,12.21440966796875,0.8188169598579407,-10.20648193359375,-1.1851298809051514
1766400725280419600,12.224419677734375,0.6536170840263367,-10.223240852355957,-1.1037269830703735
1766400725290460000,12.2344599609375,0.8667010068893433,-9.797073364257812,-1.015141487121582
1766400725300469800,12.2444697265625,1.0654197931289673,-9.50737476348877,-0.9816226959228516
1766400725310509800,12.254509765625,1.0654197931289673,-9.50737476348877,-0.9816226959228516
1766400725320519700,12.264519775390625,1.0295066833496094,-9.641449928283691,-1.1013327836990356
1766400725330590500,12.274590576171875,0.9624691009521484,-9.940725326538086,-1.0223240852355957
1766400725340600300,12.284600341796875,1.0079588890075684,-9.945513725280762,-1.0965443849563599
1766400725350671000,12.294671142578125,1.091755986213684,-9.81143856048584,-1.1444283723831177
1766400725360681000,12.304680908203125,1.0342950820922852,-9.50498104095459,-1.3407529592514038
1766400725380731000,12.32473095703125,0.8834604024887085,-9.828198432922363,-1.414973258972168
1766400725390771200,12.334771240234375,0.8188169598579407,-10.096348762512207,-1.2258312702178955
1766400725400781000,12.344781005859375,0.7972691655158997,-10.050858497619629,-1.2832920551300049
1766400725410821000,12.354821044921875,0.7374141216278076,-9.974244117736816,-1.158793568611145
1766400725420861400,12.364861328125,0.5602431893348694,-9.77791976928711,-1.01753568649292
1766400725430871300,12.374871337890625,0.4213795065879822,-9.550470352172852,-0.9217676520347595
1766400725440911600,12.38491162109375,0.5099649429321289,-9.607931137084961,-0.9792284965515137
1766400725450952000,12.394951904296875,0.6416460275650024,-9.509769439697266,-1.0223240852355957
1766400725460961500,12.40496142578125,0.7757213711738586,-10.0580415725708,-1.194706678390503
1766400725491052000,12.435052001953125,1.1899182796478271,-9.804255485534668,-1.403002142906189
1766400725501061600,12.4450615234375,0.6919242739677429,-10.395624160766602,-1.4389152526855469
1766400725511102000,12.45510205078125,0.8236053586006165,-10.436325073242188,-1.400607943534851
1766400725521111800,12.46511181640625,1.0630255937576294,-9.974244117736816,-1.314416766166687
1766400725531152100,12.475152099609375,0.993593692779541,-9.66539192199707,-1.3551181554794312
1766400725541161700,12.48516162109375,0.9457096457481384,-9.763554573059082,-1.3072341680526733
1766400725551171600,12.495171630859375,0.49559974670410156,-9.794678688049316,-1.1109095811843872
1766400725581261800,12.52526171875,0.7829039692878723,-9.995792388916016,-0.9169792532920837
1766400725591271700,12.535271728515625,0.828393816947937,-9.885659217834473,-0.8379706144332886
1766400725601281500,12.545281494140625,0.8810662031173706,-9.787496566772461,-0.7661445140838623
1766400725611291100,12.555291015625,1.0007762908935547,-9.765948295593262,-0.7445967197418213
1766400725621301000,12.565301025390625,1.2617442607879639,-9.44752025604248,-0.9145850539207458
1766400725631310800,12.575310791015625,1.5083470344543457,-9.105149269104004,-0.9409212470054626
1766400725641320400,12.585320556640625,1.5418659448623657,-9.509769439697266,-1.1420341730117798
1766400725651330300,12.595330322265625,1.2066776752471924,-9.976638793945312,-1.113303780555725
1766400725661340000,12.60533984375,1.01753568649292,-10.146626472473145,-1.0845733880996704
1766400725711419400,12.65541943359375,0.9289502501487732,-9.734824180603027,-1.0654197931289673
1766400725721429200,12.66542919921875,0.9217676520347595,-9.394847869873047,-1.0558429956436157
1766400725731500000,12.6755,0.9959878921508789,-9.543288230895996,-1.0845733880996704
1766400725741479200,12.685479248046875,0.9624691009521484,-9.792284965515137,-1.170764684677124
1766400725751519500,12.69551953125,0.8523358106613159,-9.995792388916016,-1.158793568611145
1766400725761529300,12.705529296875,0.8547300100326538,-9.80904483795166,-1.1516109704971313
1766400725781579300,12.725579345703125,1.0271124839782715,-9.742006301879883,-1.1659762859344482
1766400725791619600,12.73561962890625,0.9983820915222168,-9.806650161743164,-1.2114660739898682
1766400725801629400,12.74562939453125,1.036689281463623,-9.516951560974121,-1.1300631761550903
1766400725811669500,12.75566943359375,0.9002198576927185,-9.557653427124023,-1.072602391242981
1766400725821679400,12.765679443359375,0.8595184087753296,-9.658209800720215,-0.9528923034667969
1766400725831689200,12.775689208984375,0.7781155705451965,-9.916783332824707,-0.8978256583213806
1766400725841729500,12.7857294921875,0.8547300100326538,-10.036493301391602,-0.7805097699165344
1766400725851739100,12.7957392578125,1.0103530883789062,-10.074800491333008,-0.8164227604866028
1766400725861749000,12.8057490234375,1.0007762908935547,-9.75397777557373,-0.730231523513794
1766400725871850200,12.815850341796875,1.0534487962722778,-9.478644371032715,-0.608127236366272
1766400725921899000,12.86589892578125,0.6057330369949341,-10.668562889099121,-0.5985504388809204
1766400725931908900,12.875908935546875,0.507570743560791,-10.66137981414795,-0.6057330369949341
1766400725941918700,12.885918701171875,0.6488286852836609,-10.575188636779785,-0.5410895943641663
1766400725951928300,12.89592822265625,0.9457096457481384,-10.15141487121582,-0.4836287498474121
1766400725961938200,12.905938232421875,1.41257905960083,-9.418789863586426,-0.5147533416748047
1766400725971978500,12.915978515625,1.7357962131500244,-9.040505409240723,-0.6775590777397156
1766400726002007800,12.9460078125,0.9864110946655273,-10.630255699157715,-0.8020575642585754
1766400726012017400,12.956017333984375,0.6823474764823914,-10.656591415405273,-0.7182605266571045
1766400726022027300,12.96602734375,0.7015010714530945,-10.60152530670166,-0.7134721279144287
1766400726032098000,12.97609814453125,0.9361328482627869,-10.019734382629395,-0.7733271718025208
1766400726042077400,12.986077392578125,1.2186486721038818,-9.677363395690918,-0.7589619159698486
1766400726052087000,12.996087158203125,1.2186486721038818,-9.677363395690918,-0.7589619159698486
1766400726062097000,13.006096923828125,1.4700398445129395,-9.222464561462402,-0.768538773059845
1766400726072106500,13.0161064453125,1.678335428237915,-8.736441612243652,-0.7924807667732239
1766400726092156700,13.03615673828125,1.3838485479354858,-8.528146743774414,-1.4652514457702637
1766400726122216400,13.066216552734375,0.3519476354122162,-10.220847129821777,-1.3623007535934448
1766400726132226300,13.076226318359375,0.3974374830722809,-9.821015357971191,-1.37906014919281
1766400726142236000,13.08623583984375,0.4118026793003082,-9.979032516479492,-1.3407529592514038
1766400726152245800,13.096245849609375,0.5291185975074768,-9.883264541625977,-1.338358759880066
1766400726162255600,13.106255615234375,0.6751648783683777,-9.284713745117188,-1.158793568611145
1766400726172296000,13.1162958984375,0.9313444495201111,-8.925583839416504,-1.0295066833496094
1766400726182305500,13.126305419921875,1.1252747774124146,-8.647856712341309,-1.115697979927063
1766400726192315400,13.1363154296875,1.05105459690094,-8.975862503051758,-1.161187767982483
1766400726222344700,13.1663447265625,1.0630255937576294,-10.108319282531738,-1.1300631761550903
1766400726232385000,13.176385009765625,0.9600749015808105,-10.20648193359375,-1.1037269830703735
1766400726242425300,13.18642529296875,0.9265560507774353,-9.974244117736816,-0.9792284965515137
1766400726252496100,13.19649609375,1.1037269830703735,-9.691728591918945,-0.9074024558067322
1766400726262505700,13.206505615234375,1.0462661981582642,-9.684545516967773,-0.8762778043746948
1766400726272515600,13.216515625,1.1180921792984009,-9.684545516967773,-0.8930372595787048
1766400726282525400,13.226525390625,1.2042834758758545,-9.552865028381348,-0.9888052940368652
1766400726292565500,13.2365654296875,1.1324573755264282,-9.466673851013184,-0.9361328482627869
1766400726302575400,13.246575439453125,1.0534487962722778,-9.354146003723145,-0.9911994934082031
1766400726342645000,13.28664501953125,0.8427590131759644,-9.84495735168457,-0.9241618514060974
1766400726352654600,13.296654541015625,0.7709329724311829,-9.964667320251465,-0.7733271718025208
1766400726362634000,13.306634033203125,0.7541735172271729,-9.914389610290527,-0.8259995579719543
1766400726372643800,13.316643798828125,0.8259995579719543,-9.787496566772461,-0.9433154463768005
1766400726382653400,13.3266533203125,1.0678139925003052,-9.567230224609375,-0.9002198576927185
1766400726392663300,13.336663330078125,1.2114660739898682,-9.560047149658203,-0.9792284965515137
1766400726432763400,13.376763427734375,0.8475474119186401,-9.677363395690918,-1.1085153818130493
1766400726452813300,13.396813232421875,0.586579442024231,-9.636661529541016,-1.0247182846069336
1766400726462823200,13.4068232421875,0.524330198764801,-9.639056205749512,-0.9528923034667969
1766400726472833000,13.4168330078125,0.8451532125473022,-9.543288230895996,-0.9624691009521484
1766400726482842600,13.426842529296875,1.091755986213684,-9.445125579833984,-1.1228805780410767
1766400726492852500,13.4368525390625,0.8355764150619507,-9.66539192199707,-1.1803414821624756
1766400726502862300,13.4468623046875,0.6943184733390808,-9.742006301879883,-1.0630255937576294
1766400726512902400,13.45690234375,0.6105214357376099,-9.859322547912598,-1.2114660739898682
1766400726542993000,13.486992919921875,1.0797849893569946,-9.758766174316406,-1.50355863571167
1766400726553002500,13.49700244140625,1.1228805780410767,-9.825803756713867,-1.4844050407409668
1766400726563012400,13.507012451171875,1.1468225717544556,-9.792284965515137,-1.6855180263519287
1766400726573052700,13.517052734375,1.115697979927063,-10.029311180114746,-1.6879122257232666
1766400726583031800,13.52703173828125,0.950498104095459,-10.086771965026855,-1.6328455209732056
1766400726593072000,13.537072021484375,0.8547300100326538,-9.742006301879883,-1.4389152526855469
1766400726603082000,13.54708203125,0.912190854549408,-9.646238327026367,-1.4269442558288574
1766400726613122300,13.557122314453125,0.9576807022094727,-9.521739959716797,-1.4269442558288574
1766400726623132000,13.5671318359375,1.0271124839782715,-9.193734169006348,-1.3646949529647827
1766400726653161200,13.5971611328125,0.7182605266571045,-9.806650161743164,-1.2952631711959839
1766400726663171000,13.607171142578125,0.5793967843055725,-9.732429504394531,-1.2713210582733154
1766400726673181000,13.617180908203125,0.5985504388809204,-9.873687744140625,-1.1085153818130493
1766400726683190500,13.6271904296875,0.545877993106842,-9.919178009033203,-0.9672574996948242
1766400726693230800,13.63723095703125,0.6009446382522583,-9.80904483795166,-1.036689281463623
1766400726703240700,13.64724072265625,0.7757213711738586,-9.684545516967773,-1.213860273361206
1766400726713250300,13.657250244140625,1.0031704902648926,-9.550470352172852,-1.1875240802764893
1766400726723260200,13.66726025390625,1.2066776752471924,-9.490615844726562,-1.1803414821624756
1766400726743310300,13.687310302734375,1.2066776752471924,-9.816226959228516,-1.292868971824646
1766400726753320000,13.69731982421875,1.01753568649292,-9.892841339111328,-1.2401964664459229
1766400726763329800,13.707329833984375,0.8451532125473022,-10.022128105163574,-1.280897855758667
1766400726773370000,13.7173701171875,0.8451532125473022,-10.022128105163574,-1.280897855758667
1766400726783410400,13.727410400390625,0.7709329724311829,-9.895236015319824,-1.2282254695892334
1766400726793420000,13.737419921875,0.5674257874488831,-9.847352027893066,-1.1683704853057861
1766400726803460400,13.74746044921875,0.5315127968788147,-9.770736694335938,-1.1827356815338135
1766400726813500700,13.757500732421875,0.5913678407669067,-9.59596061706543,-1.139639973640442
1766400726823541000,13.767541015625,0.5099649429321289,-9.500192642211914,-1.1635819673538208
1766400726833550600,13.777550537109375,0.43095630407333374,-9.651026725769043,-1.3024457693099976
1766400726843591000,13.7875908203125,0.3902548849582672,-9.907206535339355,-1.3287819623947144
1766400726873620200,13.8176201171875,0.4118026793003082,-9.555258750915527,-1.2497732639312744
1766400726883660500,13.82766064453125,0.5291185975074768,-9.730035781860352,-1.3048399686813354
1766400726893670400,13.83767041015625,0.6560112833976746,-9.593565940856934,-1.3287819623947144
1766400726903680000,13.847679931640625,0.727837324142456,-9.545681953430176,-1.4053963422775269
1766400726913689900,13.85768994140625,0.8834604024887085,-9.260771751403809,-1.359906554222107
1766400726923699700,13.86769970703125,0.9552865028381348,-9.174580574035645,-1.4077905416488647
1766400726933709300,13.877709228515625,0.9145850539207458,-9.430760383605957,-1.4963760375976562
1766400726943719200,13.88771923828125,0.5746083855628967,-9.373299598693848,-1.644816517829895
1766400726973779000,13.917779052734375,-0.011971008032560349,-9.287108421325684,-1.4173674583435059
1766400726983788800,13.927788818359375,0.10055647045373917,-9.205705642700195,-1.4269442558288574
1766400726993798400,13.93779833984375,0.3256114423274994,-9.23682975769043,-1.45806884765625
1766400727003838700,13.947838623046875,0.3902548849582672,-9.081207275390625,-1.3694833517074585
1766400727013848600,13.9578486328125,0.42856210470199585,-9.042900085449219,-1.3646949529647827
1766400727023858400,13.9678583984375,0.507570743560791,-9.27034854888916,-1.455674648284912
1766400727033868000,13.977867919921875,0.49799394607543945,-9.169792175292969,-1.6304513216018677
1766400727043938800,13.987938720703125,0.5530605912208557,-9.23682975769043,-1.580173134803772
1766400727053979100,13.997979248046875,0.3687070608139038,-9.17936897277832,-1.482010841369629
1766400727074029300,14.018029296875,0.16998831927776337,-9.121908187866211,-1.5466543436050415
1766400727084039000,14.028038818359375,0.10534487664699554,-9.141061782836914,-1.5610195398330688
1766400727094109700,14.038109619140625,0.1843535304069519,-9.263166427612305,-1.4891934394836426
1766400727104119600,14.04811962890625,0.05267243832349777,-9.454702377319336,-1.4413094520568848
1766400727114129400,14.05812939453125,0.19153612852096558,-9.148244857788086,-1.6280571222305298
1766400727124200200,14.0682001953125,0.10773907601833344,-9.133879661560059,-1.6879122257232666
1766400727134240500,14.078240478515625,0.08140286058187485,-8.841787338256836,-1.800439715385437
1766400727144250000,14.08825,-0.12210428714752197,-8.995016098022461,-1.8148049116134644
1766400727164330800,14.108330810546875,-0.24660277366638184,-9.366117477416992,-1.8722656965255737
1766400727174371000,14.11837109375,-0.4620809257030487,-9.430760383605957,-1.965639591217041
1766400727184380700,14.128380615234375,-0.47644615173339844,-9.196128845214844,-1.9129672050476074
1766400727194390500,14.138390625,-0.6105214357376099,-9.816226959228516,-1.9800047874450684
1766400727204400400,14.148400390625,-0.629675030708313,-10.11550235748291,-2.1715409755706787
1766400727214410000,14.158409912109375,-0.5985504388809204,-9.684545516967773,-1.9704279899597168
1766400727224419800,14.168419921875,-0.43095630407333374,-9.406818389892578,-1.9345149993896484
1766400727234460200,14.178460205078125,-0.4668693244457245,-9.378087997436523,-2.051830768585205
1766400727244470000,14.188469970703125,-0.5291185975074768,-9.138668060302734,-2.0446481704711914
1766400727254510000,14.198510009765625,-0.5027823448181152,-9.184157371520996,-1.8507179021835327
1766400727294549200,14.23854931640625,-0.12210428714752197,-10.108319282531738,-2.8802247047424316
1766400727304589600,14.248589599609375,-0.5171475410461426,-10.177751541137695,-2.956839084625244
1766400727314599400,14.258599365234375,-0.9265560507774353,-10.053253173828125,-2.846705913543701
1766400727324609000,14.268609130859375,-1.0965443849563599,-9.768342971801758,-2.669534921646118
1766400727334649300,14.2786494140625,-1.0271124839782715,-9.181763648986816,-2.6144683361053467
1766400727344659200,14.2886591796875,-1.0630255937576294,-9.083600997924805,-2.564189910888672
1766400727354699500,14.298699462890625,-1.1683704853057861,-9.27034854888916,-2.655169725418091
1766400727364709000,14.308709228515625,-1.2042834758758545,-9.114726066589355,-2.6839001178741455
1766400727384728600,14.328728515625,-1.2497732639312744,-8.7484130859375,-2.6168625354766846
1766400727394738400,14.338738525390625,-1.072602391242981,-8.760383605957031,-2.808398485183716
1766400727404778800,14.34877880859375,-1.1180921792984009,-8.971074104309082,-3.0358476638793945
1766400727414788600,14.35878857421875,-0.9097966551780701,-9.119514465332031,-3.2106244564056396
1766400727424798200,14.368798095703125,-0.545877993106842,-9.346963882446289,-3.2800562381744385
1766400727434838500,14.378838623046875,-0.6272808313369751,-9.315838813781738,-3.294421434402466
1766400727444848400,14.388848388671875,-0.8403648138046265,-9.169792175292969,-3.179499864578247
1766400727454888700,14.398888671875,-0.8882488012313843,-9.255983352661133,-3.117250680923462
1766400727464928800,14.4089287109375,-0.9624691009521484,-9.253589630126953,-2.9975404739379883
1766400727484979000,14.42897900390625,-0.7541735172271729,-8.157045364379883,-2.911349296569824
1766400727495019300,14.439019287109375,-0.29209262132644653,-7.587224960327148,-2.9496564865112305
1766400727515069200,14.459069091796875,0.7972691655158997,-6.67982292175293,-3.1723172664642334
1766400727525079000,14.4690791015625,1.5490485429763794,-6.026205539703369,-3.40216064453125
1766400727535149800,14.47914990234375,1.5490485429763794,-6.026205539703369,-3.40216064453125
1766400727545159700,14.48915966796875,2.252943754196167,-5.456385612487793,-3.248931646347046
1766400727555169300,14.499169189453125,2.434903144836426,-5.5329999923706055,-3.2417490482330322
1766400727565179100,14.50917919921875,2.4803929328918457,-5.552153587341309,-3.3710360527038574
1766400727575219500,14.519219482421875,2.2649147510528564,-5.4444146156311035,-3.294421434402466
1766400727585229000,14.52922900390625,1.8938134908676147,-5.719748020172119,-3.4308910369873047
1766400727595239000,14.539239013671875,1.436521053314209,-5.731719017028809,-3.840299606323242
1766400727605248800,14.549248779296875,0.7757213711738586,-5.9088897705078125,-4.086902141571045
1766400727615258400,14.55925830078125,0.16759411990642548,-6.090848922729492,-4.364629745483398
1766400727625268200,14.569268310546875,-0.45250412821769714,-6.315904140472412,-4.8051629066467285
1766400727635278000,14.579278076171875,-0.7996633648872375,-6.026205539703369,-5.094861030578613
1766400727655328000,14.599327880859375,-1.2641384601593018,-6.528987884521484,-6.1267619132995605
1766400727665337900,14.609337890625,-1.479616641998291,-6.744466304779053,-6.50025749206543
1766400727705438000,14.64943798828125,-2.782062292098999,-6.670246124267578,-8.707711219787598
1766400727715447800,14.65944775390625,-2.741360902786255,-6.840234279632568,-9.224859237670898
1766400727725457400,14.66945751953125,-2.5091233253479004,-6.909666061401367,-9.402029991149902
1766400727735467300,14.67946728515625,-2.1787235736846924,-6.943184852600098,-9.715670585632324
1766400727745507600,14.689507568359375,-1.5873557329177856,-7.038952827453613,-9.799467086791992
1766400727755517200,14.69951708984375,-0.9672574996948242,-6.868964672088623,-9.859322547912598
1766400727765527000,14.709527099609375,-0.4405331015586853,-6.452373504638672,-10.077195167541504
1766400727775567400,14.7195673828125,0.07422025501728058,-6.050147533416748,-10.409989356994629
