time,seconds_elapsed,z,y,x
1766400711800661200,-1.2553388671875,9.604227066040039,0.8111597299575806,-1.8086520433425903
1766400711840761300,-1.21523876953125,9.609554290771484,0.7332918643951416,-1.8135957717895508
1766400711850801700,-1.2051982421875,9.605718612670898,0.7668454051017761,-1.8200302124023438
1766400711860811300,-1.195188720703125,9.604090690612793,0.7935239672660828,-1.81718111038208
1766400711870821000,-1.185178955078125,9.600773811340332,0.8212323784828186,-1.8223906755447388
1766400711880831000,-1.1751689453125,9.600089073181152,0.825544536113739,-1.824049711227417
1766400711890871300,-1.165128662109375,9.600857734680176,0.809907853603363,-1.8270061016082764
1766400711900881000,-1.155119140625,9.602400779724121,0.7766081690788269,-1.833351492881775
1766400711910921200,-1.145078857421875,9.602684020996094,0.7684032917022705,-1.8353195190429688
1766400711940981000,-1.11501904296875,9.603011131286621,0.7496185898780823,-1.8413658142089844
1766400711950990800,-1.105009033203125,9.60351848602295,0.7451247572898865,-1.8405462503433228
1766400711961000400,-1.09499951171875,9.60394287109375,0.7432016730308533,-1.8391053676605225
1766400711971040800,-1.084959228515625,9.604825019836426,0.7400186061859131,-1.8357807397842407
1766400711981050600,-1.074949462890625,9.606165885925293,0.7382909655570984,-1.8294517993927002
1766400711991060500,-1.064939453125,9.606366157531738,0.7393680810928345,-1.8279635906219482
1766400712001070000,-1.054929931640625,9.606599807739258,0.7373761534690857,-1.827541708946228
1766400712011110400,-1.0448896484375,9.60661792755127,0.737193763256073,-1.8275190591812134
1766400712041139700,-1.0148603515625,9.606670379638672,0.7173226475715637,-1.8351331949234009
1766400712051149600,-1.004850341796875,9.606725692749023,0.7165884971618652,-1.835132122039795
1766400712061159200,-0.9948408203125,9.6068754196167,0.7183095216751099,-1.8336724042892456
1766400712071169000,-0.9848310546875,9.606729507446289,0.7198119163513184,-1.8338528871536255
1766400712091188500,-0.9648115234375,9.607575416564941,0.7225678563117981,-1.8283251523971558
1766400712111208200,-0.944791748046875,9.607958793640137,0.7155729532241821,-1.8290631771087646
1766400712151308300,-0.904691650390625,9.606253623962402,0.7091854214668274,-1.8404722213745117
1766400712161318000,-0.89468212890625,9.605746269226074,0.7103183269500732,-1.8426848649978638
1766400712171327700,-0.88467236328125,9.605515480041504,0.7117348909378052,-1.8433362245559692
1766400712181337600,-0.874662353515625,9.605660438537598,0.7136905789375305,-1.8418294191360474
1766400712191347200,-0.86465283203125,9.605777740478516,0.7114647030830383,-1.8420743942260742
1766400712201326600,-0.85467333984375,9.605926513671875,0.7081864476203918,-1.8425629138946533
1766400712211366700,-0.84463330078125,9.606633186340332,0.7026314735412598,-1.8410050868988037
1766400712221376500,-0.83462353515625,9.607029914855957,0.7014932036399841,-1.83936607837677
1766400712251405800,-0.80459423828125,9.607946395874023,0.699386715888977,-1.8353757858276367
1766400712271425300,-0.78457470703125,9.608473777770996,0.6971576809883118,-1.8334627151489258
1766400712311495000,-0.744505126953125,9.608670234680176,0.6877974271774292,-1.835966944694519
1766400712331545000,-0.724454833984375,9.608942031860352,0.6908255815505981,-1.8334068059921265
1766400712401643800,-0.654356201171875,9.608860969543457,0.6965212821960449,-1.8316730260849
1766400712481813500,-0.5741865234375,9.611467361450195,0.5907489061355591,-1.855021357536316
1766400712491884300,-0.56411572265625,9.611412048339844,0.5900706052780151,-1.8555229902267456
1766400712501894100,-0.55410595703125,9.611319541931152,0.5884109735488892,-1.856526255607605
1766400712511904000,-0.544095947265625,9.611295700073242,0.5870269536972046,-1.8570914268493652
1766400712521913600,-0.53408642578125,9.611272811889648,0.5862013697624207,-1.8574713468551636
1766400712531954000,-0.524046142578125,9.611151695251465,0.586545467376709,-1.8579875230789185
1766400712541963800,-0.5140361328125,9.611002922058105,0.5872286558151245,-1.8585423231124878
1766400712551973400,-0.504026611328125,9.610956192016602,0.5870374441146851,-1.8588440418243408
1766400712561983200,-0.494016845703125,9.611063003540039,0.5830044150352478,-1.8595592975616455
1766400712622072300,-0.433927734375,9.612080574035645,0.5650672316551208,-1.8598332405090332
1766400712632173600,-0.423826416015625,9.612339973449707,0.5561937689781189,-1.8611705303192139
1766400712642153000,-0.413846923828125,9.612811088562012,0.5470618009567261,-1.861441969871521
1766400712652193300,-0.403806640625,9.613519668579102,0.5372300148010254,-1.8606510162353516
1766400712662203000,-0.393797119140625,9.614577293395996,0.5273831486701965,-1.8580001592636108
1766400712672273700,-0.383726318359375,9.615623474121094,0.5177065134048462,-1.8553025722503662
1766400712682253000,-0.373746826171875,9.616660118103027,0.5058945417404175,-1.8531888723373413
1766400712692262700,-0.3637373046875,9.617598533630371,0.4975252151489258,-1.8505834341049194
1766400712702272500,-0.3537275390625,9.617522239685059,0.4948737621307373,-1.851688265800476
1766400712712282400,-0.343717529296875,9.617218971252441,0.4981943964958191,-1.8523757457733154
1766400712732301800,-0.3236982421875,9.616166114807129,0.5113319158554077,-1.8542593717575073
1766400712742311700,-0.313688232421875,9.615680694580078,0.5140604972839355,-1.8560233116149902
1766400712752321300,-0.3036787109375,9.614508628845215,0.5136836767196655,-1.8621851205825806
1766400712762331100,-0.2936689453125,9.614079475402832,0.5139198899269104,-1.864335536956787
1766400712772341000,-0.283658935546875,9.613003730773926,0.5107765197753906,-1.8707385063171387
1766400712782350600,-0.2736494140625,9.612141609191895,0.5058558583259583,-1.8764917850494385
1766400712822420200,-0.233579833984375,9.609626770019531,0.4599875211715698,-1.901018500328064
1766400712832430000,-0.22356982421875,9.609075546264648,0.4477931261062622,-1.906707525253296
1766400712852449500,-0.203550537109375,9.608064651489258,0.4382137358188629,-1.914014458656311
1766400712862459400,-0.19354052734375,9.60704517364502,0.43445488810539246,-1.9199800491333008
1766400712872469000,-0.183531005859375,9.604750633239746,0.43230319023132324,-1.931904673576355
1766400712902528800,-0.15347119140625,9.60016918182373,0.44290438294410706,-1.952171802520752
1766400712912538600,-0.14346142578125,9.599580764770508,0.4443536102771759,-1.9547345638275146
1766400712922548500,-0.133451416015625,9.59804916381836,0.44235607981681824,-1.962693452835083
1766400712932588800,-0.1234111328125,9.597704887390137,0.44010791182518005,-1.964879035949707
1766400712942598400,-0.113401611328125,9.597102165222168,0.4353468716144562,-1.9688799381256104
1766400712952608300,-0.103391845703125,9.596314430236816,0.42955586314201355,-1.9739869832992554
1766400712962618000,-0.0933818359375,9.596123695373535,0.4283318817615509,-1.9751789569854736
1766400712972627700,-0.083372314453125,9.595658302307129,0.4270169138908386,-1.9777202606201172
1766400712982637600,-0.073362548828125,9.595501899719238,0.4258343279361725,-1.9787384271621704
1766400712992647200,-0.063352783203125,9.595563888549805,0.4258958101272583,-1.9784263372421265
1766400713002626600,-0.05337353515625,9.595711708068848,0.42487838864326477,-1.9779211282730103
1766400713012636400,-0.043363525390625,9.595973014831543,0.4229975640773773,-1.9770606756210327
1766400713022646000,-0.03335400390625,9.59628963470459,0.4220719039440155,-1.9757177829742432
1766400713032686300,-0.023313720703125,9.596638679504395,0.4185139238834381,-1.9747800827026367
1766400713042665700,-0.013334228515625,9.597253799438477,0.4139828085899353,-1.97274649143219
1766400713052675300,-0.00332470703125,9.597535133361816,0.4135275185108185,-1.9714727401733398
1766400713062685200,0.006685302734375,9.597777366638184,0.4143785238265991,-1.9701120853424072
1766400713072694800,0.01669482421875,9.59788703918457,0.41539400815963745,-1.969364881515503
1766400713092714500,0.036714599609375,9.598325729370117,0.42070916295051575,-1.9660998582839966
1766400713112734000,0.05673388671875,9.598465919494629,0.4276227653026581,-1.9639201164245605
1766400713122743800,0.066743896484375,9.598368644714355,0.4304710328578949,-1.9637744426727295
1766400713132814600,0.076814697265625,9.59820556640625,0.43096160888671875,-1.964463233947754
1766400713152834000,0.096833984375,9.597901344299316,0.43092429637908936,-1.965958833694458
1766400713162844000,0.106843994140625,9.597846984863281,0.43280044198036194,-1.9658080339431763
1766400713172853500,0.116853515625,9.598012924194336,0.43273481726646423,-1.9650157690048218
1766400713182863400,0.12686328125,9.598069190979004,0.43193018436431885,-1.964918613433838
1766400713202882800,0.1468828125,9.59846019744873,0.43444955348968506,-1.9624463319778442
1766400713212892700,0.156892578125,9.598668098449707,0.4365098476409912,-1.9609729051589966
1766400713222902500,0.166902587890625,9.598525047302246,0.43579787015914917,-1.9618310928344727
1766400713232912100,0.176912109375,9.59815788269043,0.43477076292037964,-1.9638534784317017
1766400713242922000,0.186921875,9.598017692565918,0.43512997031211853,-1.9644579887390137
1766400713252962300,0.19696240234375,9.597663879394531,0.43505752086639404,-1.9662069082260132
1766400713262972000,0.206971923828125,9.597329139709473,0.4349426329135895,-1.9678618907928467
1766400713272981800,0.216981689453125,9.597034454345703,0.43279749155044556,-1.9697718620300293
1766400713303041500,0.24704150390625,9.59755802154541,0.4266342520713806,-1.968563199043274
1766400713313081900,0.257081787109375,9.597570419311523,0.4224560558795929,-1.9694048166275024
1766400713323091700,0.267091796875,9.597994804382324,0.4144367277622223,-1.9690407514572144
1766400713333101300,0.277101318359375,9.598621368408203,0.41189730167388916,-1.9665223360061646
1766400713343111200,0.287111083984375,9.598706245422363,0.4087753891944885,-1.9667562246322632
1766400713353151500,0.2971513671875,9.598881721496582,0.40692177414894104,-1.9662872552871704
1766400713363161000,0.3071611328125,9.598884582519531,0.40773606300354004,-1.96610426902771
1766400713373201400,0.317201416015625,9.59899616241455,0.4091282784938812,-1.965265154838562
1766400713383211300,0.327211181640625,9.598939895629883,0.4125872254371643,-1.964816927909851
1766400713413271000,0.35727099609375,9.598695755004883,0.41943445801734924,-1.9645582437515259
1766400713423281000,0.367281005859375,9.598701477050781,0.419643372297287,-1.964487075805664
1766400713433321200,0.3773212890625,9.59892463684082,0.4196939170360565,-1.9633864164352417
1766400713443330800,0.387330810546875,9.59897232055664,0.41806235909461975,-1.963502049446106
1766400713453371100,0.39737109375,9.598812103271484,0.417204886674881,-1.964464545249939
1766400713463381000,0.407381103515625,9.598882675170898,0.4164620637893677,-1.964279294013977
1766400713473421300,0.41742138671875,9.59881591796875,0.4175412356853485,-1.964379906654358
1766400713483400400,0.427400390625,9.598913192749023,0.4185267984867096,-1.9636955261230469
1766400713493410300,0.437410400390625,9.598685264587402,0.41976070404052734,-1.9645426273345947
1766400713513399300,0.4573994140625,9.5983304977417,0.4197007119655609,-1.9662891626358032
1766400713533418800,0.477418701171875,9.59858226776123,0.4212356209754944,-1.9647316932678223
1766400713543428600,0.4874287109375,9.598908424377441,0.41983258724212646,-1.963433027267456
1766400713553438200,0.497438232421875,9.598411560058594,0.41712287068367004,-1.9664427042007446
1766400713563448000,0.507447998046875,9.598417282104492,0.4152696430683136,-1.9668047428131104
1766400713573488400,0.51748828125,9.598565101623535,0.41149061918258667,-1.9668774604797363
1766400713583467500,0.527467529296875,9.599493026733398,0.40093234181404114,-1.9645284414291382
1766400713593507800,0.5375078125,9.59985065460205,0.3960208296775818,-1.963776707649231
1766400713603578600,0.54757861328125,9.600578308105469,0.3819580674171448,-1.9630026817321777
1766400713633577500,0.577577392578125,9.600862503051758,0.32353854179382324,-1.972091555595398
1766400713643587300,0.58758740234375,9.594436645507812,0.2825583517551422,-2.009312391281128
1766400713653597000,0.597596923828125,9.595525741577148,0.18203385174274445,-2.0157241821289062
1766400713663606800,0.607606689453125,9.606244087219238,0.0345885269343853,-1.972123384475708
1766400713673616600,0.61761669921875,9.60981559753418,-0.004154092166572809,-1.9549453258514404
1766400713683626200,0.627626220703125,9.619180679321289,-0.07591596245765686,-1.9068231582641602
1766400713693697000,0.637697021484375,9.62764835357666,-0.16222676634788513,-1.8580763339996338
1766400713703676400,0.647676513671875,9.634169578552246,-0.25811851024627686,-1.8128793239593506
1766400713713686000,0.65768603515625,9.638602256774902,-0.34720492362976074,-1.774026870727539
1766400713743684900,0.687684814453125,9.636531829833984,-0.5745646357536316,-1.7255504131317139
1766400713753725200,0.69772509765625,9.634175300598145,-0.651921808719635,-1.7111562490463257
1766400713763704300,0.707704345703125,9.629913330078125,-0.7880423665046692,-1.677542805671692
1766400713773744600,0.71774462890625,9.627237319946289,-0.8393684029579163,-1.66797935962677
1766400713783754500,0.72775439453125,9.614524841308594,-1.1391795873641968,-1.559991478919983
1766400713793764400,0.737764404296875,9.605619430541992,-1.259324073791504,-1.522028923034668
1766400713803743500,0.747743408203125,9.575688362121582,-1.5571256875991821,-1.432462215423584
1766400713813814300,0.757814208984375,9.527085304260254,-1.8982237577438354,-1.342301607131958
1766400713823824100,0.76782421875,9.419197082519531,-2.445887565612793,-1.211094856262207
1766400713833833700,0.777833740234375,9.323162078857422,-2.8234481811523438,-1.1301239728927612
1766400713853853400,0.797853515625,9.133570671081543,-3.4235198497772217,-1.0137959718704224
1766400713863863000,0.807863037109375,8.971413612365723,-3.8486998081207275,-0.9336152076721191
1766400713873873000,0.817872802734375,8.766287803649902,-4.310667991638184,-0.8606585264205933
1766400713883852000,0.82785205078125,8.516822814941406,-4.796942234039307,-0.7895963191986084
1766400713893892400,0.837892333984375,8.241926193237305,-5.2654290199279785,-0.7185372710227966
1766400713903902200,0.847902099609375,7.934098243713379,-5.726465225219727,-0.6542800068855286
1766400713913912000,0.857912109375,7.263946533203125,-6.5649733543396,-0.5537160038948059
1766400713953951000,0.897950927734375,5.848408222198486,-7.858579158782959,-0.45745766162872314
1766400713963960800,0.9079609375,5.612452507019043,-8.029463768005371,-0.4455278515815735
1766400713973970400,0.917970458984375,5.165489196777344,-8.324200630187988,-0.44248878955841064
1766400713983980300,0.927980224609375,4.4937825202941895,-8.703140258789062,-0.48130306601524353
1766400713993990100,0.937990234375,4.256624698638916,-8.820535659790039,-0.499690979719162
1766400714003969300,0.94796923828125,3.7797913551330566,-9.032144546508789,-0.5513046979904175
1766400714014040000,0.9580400390625,3.291097402572632,-9.217658042907715,-0.611429750919342
1766400714024019500,0.96801953125,2.575256109237671,-9.435404777526855,-0.715254008769989
1766400714044008400,0.988008544921875,1.886207103729248,-9.587928771972656,-0.8271920084953308
1766400714054048800,0.998048828125,1.4600050449371338,-9.655309677124023,-0.9020947217941284
1766400714064028000,1.00802783203125,0.8911152482032776,-9.71330451965332,-1.0139163732528687
1766400714074068200,1.018068115234375,0.7109838724136353,-9.724358558654785,-1.0496467351913452
1766400714084047400,1.02804736328125,0.25097551941871643,-9.735438346862793,-1.1526821851730347
1766400714094087700,1.038087646484375,0.10551263391971588,-9.734682083129883,-1.1812082529067993
1766400714104097500,1.04809765625,-0.1498262584209442,-9.727270126342773,-1.236198902130127
1766400714114137900,1.058137939453125,-0.38266822695732117,-9.714399337768555,-1.2862454652786255
1766400714124117000,1.068116943359375,-0.722386360168457,-9.685800552368164,-1.3542057275772095
1766400714144136400,1.088136474609375,-1.1767925024032593,-9.630145072937012,-1.4303507804870605
1766400714174165800,1.118165771484375,-1.7800602912902832,-9.527667045593262,-1.49176824092865
1766400714224184000,1.16818408203125,-2.450608730316162,-9.384184837341309,-1.4498311281204224
1766400714234163500,1.17816357421875,-2.6285247802734375,-9.341829299926758,-1.4111998081207275
1766400714284242700,1.22824267578125,-3.0799055099487305,-9.225422859191895,-1.2554486989974976
1766400714334444300,1.2784443359375,-3.404165506362915,-9.136473655700684,-1.0520838499069214
1766400714354463700,1.298463623046875,-3.5038390159606934,-9.106301307678223,-0.9842416644096375
1766400714394563800,1.338563720703125,-3.5884974002838135,-9.08868408203125,-0.829988956451416
1766400714434633500,1.378633544921875,-3.603628396987915,-9.095468521118164,-0.6757941246032715
1766400714504763000,1.448762939453125,-3.678649425506592,-9.08006763458252,-0.43621203303337097
1766400714564852000,1.50885205078125,-3.648996591567993,-9.098929405212402,-0.254364937543869
1766400714574861600,1.518861572265625,-3.6600003242492676,-9.094832420349121,-0.24253186583518982
1766400714584871400,1.528871337890625,-3.678928852081299,-9.087682723999023,-0.22342121601104736
1766400714594881300,1.53888134765625,-3.686690330505371,-9.084966659545898,-0.2051166296005249
1766400714604891000,1.548890869140625,-3.6873691082000732,-9.085163116455078,-0.18309447169303894
1766400714614961700,1.558961669921875,-3.6734941005706787,-9.091330528259277,-0.1534910649061203
1766400714624941000,1.568941162109375,-3.666883945465088,-9.094172477722168,-0.14261369407176971
1766400714645021400,1.589021484375,-3.659987449645996,-9.097478866577148,-0.10368600487709045
1766400714655061800,1.599061767578125,-3.6644561290740967,-9.095756530761719,-0.09702450037002563
1766400714665071600,1.609071533203125,-3.6832058429718018,-9.088334083557129,-0.08087152987718582
1766400714675081500,1.61908154296875,-3.695514678955078,-9.083383560180664,-0.07548895478248596
1766400714685060600,1.629060546875,-3.7207694053649902,-9.073131561279297,-0.06729629635810852
1766400714695101000,1.639100830078125,-3.75178599357605,-9.060401916503906,-0.06033347547054291
1766400714705110800,1.64911083984375,-3.768049716949463,-9.05368423461914,-0.05488017573952675
1766400714715120400,1.659120361328125,-3.777588129043579,-9.04974365234375,-0.04822802543640137
1766400714725160700,1.66916064453125,-3.7838897705078125,-9.047161102294922,-0.03806757181882858
1766400714765200000,1.709199951171875,-3.786741018295288,-9.046030044555664,-0.016593115404248238
1766400714775209500,1.71920947265625,-3.795318126678467,-9.042439460754395,-0.015044424682855606
1766400714785219300,1.72921923828125,-3.7980637550354004,-9.041288375854492,-0.014212650246918201
1766400714795259600,1.739259765625,-3.796299457550049,-9.042033195495605,-0.012527180835604668
1766400714805269200,1.749269287109375,-3.7934746742248535,-9.04322338104248,-0.008155833929777145
1766400714815279000,1.759279052734375,-3.787757158279419,-9.045620918273926,-0.008027239702641964
1766400714825289000,1.7692890625,-3.7844080924987793,-9.04702091217041,-0.009336275979876518
1766400714835329300,1.779329345703125,-3.7930660247802734,-9.043380737304688,-0.017998306080698967
1766400714865358600,1.809358642578125,-3.8384010791778564,-9.02417278289795,-0.03730681911110878
1766400714875368200,1.8193681640625,-3.8622665405273438,-9.013910293579102,-0.05252192169427872
1766400714885378000,1.8293779296875,-3.8962604999542236,-8.999058723449707,-0.08080986142158508
1766400714895387600,1.8393876953125,-3.9145641326904297,-8.990911483764648,-0.10053426027297974
1766400714905397500,1.8493974609375,-3.9224369525909424,-8.987369537353516,-0.10985592007637024
1766400714915407400,1.859407470703125,-3.9365553855895996,-8.980822563171387,-0.1370776891708374
1766400714925417000,1.8694169921875,-3.939352512359619,-8.979363441467285,-0.15149317681789398
1766400714935457300,1.879457275390625,-3.9424099922180176,-8.977940559387207,-0.15608546137809753
1766400714965486600,1.909486572265625,-3.833707571029663,-9.023889541625977,-0.2061016857624054
1766400714985506300,1.92950634765625,-3.599730968475342,-9.118202209472656,-0.2659727931022644
1766400714995516000,1.939515869140625,-3.5432238578796387,-9.139509201049805,-0.2920936346054077
1766400715005525800,1.94952587890625,-3.548597574234009,-9.13702392578125,-0.3043646514415741
1766400715015566000,1.959566162109375,-3.5261356830596924,-9.144622802734375,-0.3356098234653473
1766400715025545200,1.969545166015625,-3.494239568710327,-9.155628204345703,-0.3675609529018402
1766400715035555000,1.97955517578125,-3.4331846237182617,-9.176389694213867,-0.42134982347488403
1766400715045564700,1.989564697265625,-3.4192590713500977,-9.180712699890137,-0.4399738609790802
1766400715075594000,2.019593994140625,-3.2957115173339844,-9.218534469604492,-0.57208251953125
1766400715105653800,2.04965380859375,-3.050952196121216,-9.293068885803223,-0.7077677845954895
1766400715115663600,2.05966357421875,-3.0067200660705566,-9.303982734680176,-0.7522688508033752
1766400715135713800,2.0797138671875,-2.9911108016967773,-9.302105903625488,-0.8333458304405212
1766400715145723400,2.089723388671875,-3.006331443786621,-9.293868064880371,-0.8696907758712769
1766400715155763700,2.099763671875,-3.0167338848114014,-9.287306785583496,-0.90311199426651
1766400715165773600,2.109773681640625,-3.0112762451171875,-9.286087989807129,-0.9333778023719788
1766400715175783200,2.119783203125,-2.9905648231506348,-9.290180206298828,-0.9589003324508667
1766400715185762600,2.129762451171875,-2.976219892501831,-9.292282104492188,-0.9828460812568665
1766400715195772400,2.1397724609375,-2.988468647003174,-9.285841941833496,-1.0062758922576904
1766400715205751600,2.14975146484375,-3.0409095287323,-9.26662826538086,-1.026087999343872
1766400715215791900,2.1597919921875,-3.125999927520752,-9.236212730407715,-1.0444551706314087
1766400715225832200,2.169832275390625,-3.228527784347534,-9.199172973632812,-1.0593619346618652
1766400715235872500,2.17987255859375,-3.3302342891693115,-9.161334991455078,-1.072320580482483
1766400715275911400,2.219911376953125,-3.7739832401275635,-8.984021186828613,-1.1021919250488281
1766400715285921300,2.22992138671875,-3.873203754425049,-8.94165325164795,-1.1024895906448364
1766400715295931000,2.239930908203125,-3.939391851425171,-8.913508415222168,-1.0958751440048218
1766400715305940700,2.249940673828125,-3.963669776916504,-8.904291152954102,-1.0832098722457886
1766400715315981000,2.25998095703125,-3.957683801651001,-8.90920639038086,-1.0645149946212769
1766400715325991000,2.269990966796875,-3.951448678970337,-8.915716171264648,-1.0326989889144897
1766400715336000500,2.28000048828125,-3.9520041942596436,-8.916851043701172,-1.020729899406433
1766400715346010400,2.29001025390625,-3.9725003242492676,-8.910231590270996,-0.9987111687660217
1766400715356020200,2.300020263671875,-4.0043768882751465,-8.898689270019531,-0.9740171432495117
1766400715376039700,2.320039794921875,-4.070806503295898,-8.873929023742676,-0.9232326745986938
1766400715386110500,2.3301103515625,-4.103828430175781,-8.86146068572998,-0.896390438079834
1766400715396120300,2.340120361328125,-4.132803916931152,-8.850961685180664,-0.8664954900741577
1766400715406130000,2.3501298828125,-4.157697677612305,-8.8427152633667,-0.830868124961853
1766400715416139800,2.360139892578125,-4.173289775848389,-8.83841323852539,-0.7978115081787109
1766400715426149400,2.3701494140625,-4.179449558258057,-8.83820629119873,-0.7672598958015442
1766400715436189700,2.380189697265625,-4.1807074546813965,-8.839985847473145,-0.7394240498542786
1766400715446169000,2.390169189453125,-4.186542987823486,-8.840604782104492,-0.6978378891944885
1766400715456209400,2.40020947265625,-4.187253475189209,-8.84148120880127,-0.6822729110717773
1766400715476228900,2.420228759765625,-4.2055253982543945,-8.837861061096191,-0.6132968664169312
1766400715506258200,2.450258056640625,-4.227843284606934,-8.834168434143066,-0.5031543970108032
1766400715516267800,2.460267822265625,-4.216547966003418,-8.84102725982666,-0.4768278896808624
1766400715526277600,2.470277587890625,-4.194364547729492,-8.852684020996094,-0.45570093393325806
1766400715536287500,2.48028759765625,-4.173041343688965,-8.863194465637207,-0.44713249802589417
1766400715546297000,2.490297119140625,-4.154778957366943,-8.872281074523926,-0.4368230104446411
1766400715556307000,2.500306884765625,-4.150202751159668,-8.875008583068848,-0.4247737526893616
1766400715566316800,2.51031689453125,-4.143306255340576,-8.87906551361084,-0.4068954885005951
1766400715606447400,2.550447265625,-4.039684295654297,-8.928008079528809,-0.3768441081047058
1766400715616487700,2.56048779296875,-4.0183868408203125,-8.937639236450195,-0.37631556391716003
1766400715626497300,2.570497314453125,-3.976287603378296,-8.956439018249512,-0.376490980386734
1766400715636507100,2.580507080078125,-3.939124822616577,-8.972764015197754,-0.3784489333629608
1766400715666536400,2.610536376953125,-3.83319354057312,-9.017173767089844,-0.4094308614730835
1766400715696626700,2.640626708984375,-3.732461452484131,-9.057650566101074,-0.4451400935649872
1766400715706606000,2.650606201171875,-3.655040979385376,-9.087675094604492,-0.47457757592201233
1766400715716646400,2.660646484375,-3.6311228275299072,-9.096643447875977,-0.4862655997276306
1766400715726656000,2.670656005859375,-3.5840413570404053,-9.113884925842285,-0.5119985938072205
1766400715736665900,2.680665771484375,-3.517666816711426,-9.137374877929688,-0.5520837306976318
1766400715746675700,2.69067578125,-3.4983372688293457,-9.143840789794922,-0.5676126480102539
1766400715756685300,2.700685302734375,-3.461228847503662,-9.156176567077637,-0.5955716371536255
1766400715766695200,2.710695068359375,-3.4041268825531006,-9.1747465133667,-0.6374589800834656
1766400715776705000,2.720705078125,-3.3844096660614014,-9.181015014648438,-0.6520327925682068
1766400715806673200,2.750673095703125,-3.217008113861084,-9.233820915222168,-0.746858537197113
1766400715816683000,2.76068310546875,-3.170264959335327,-9.247604370117188,-0.7756350636482239
1766400715826692600,2.770692626953125,-3.1314401626586914,-9.258359909057617,-0.8045142292976379
1766400715836702500,2.780702392578125,-3.100666046142578,-9.266256332397461,-0.8323132395744324
1766400715846612200,2.7906123046875,-3.0727899074554443,-9.273292541503906,-0.8569919466972351
1766400715856622000,2.8006220703125,-3.044407844543457,-9.280437469482422,-0.8805915713310242
1766400715866631700,2.810631591796875,-3.011784076690674,-9.28872299194336,-0.9050840139389038
1766400715876641500,2.8206416015625,-2.9929988384246826,-9.293540000915527,-0.9178726077079773
1766400715886651400,2.8306513671875,-2.9585063457489014,-9.302155494689941,-0.9421058297157288
1766400715906701300,2.850701416015625,-2.8569772243499756,-9.327347755432129,-1.0043143033981323
1766400715916711200,2.860711181640625,-2.819507360458374,-9.33702278137207,-1.020200252532959
1766400715936730600,2.880730712890625,-2.7163493633270264,-9.362104415893555,-1.0690503120422363
1766400715946740500,2.890740478515625,-2.64827561378479,-9.377596855163574,-1.1035056114196777
1766400715956750000,2.90075,-2.6035163402557373,-9.387056350708008,-1.1292755603790283
1766400715966760000,2.910760009765625,-2.559251070022583,-9.396281242370605,-1.1534849405288696
1766400715976769800,2.920769775390625,-2.514800786972046,-9.405195236206055,-1.178341031074524
1766400716016839200,2.960839111328125,-2.358341932296753,-9.433540344238281,-1.271586298942566
1766400716026818600,2.970818603515625,-2.3046176433563232,-9.440701484680176,-1.3161720037460327
1766400716036859000,2.98085888671875,-2.2854604721069336,-9.442596435546875,-1.335814356803894
1766400716056848000,3.000847900390625,-2.2141988277435303,-9.449240684509277,-1.4069931507110596
1766400716066857500,3.010857421875,-2.185575246810913,-9.451852798461914,-1.433910846710205
1766400716076867300,3.020867431640625,-2.1574442386627197,-9.454407691955566,-1.4594628810882568
1766400716086877200,3.030877197265625,-2.12831449508667,-9.456992149353027,-1.4852570295333862
1766400716106927000,3.050927001953125,-2.080826997756958,-9.46242904663086,-1.5175552368164062
1766400716126946800,3.07094677734375,-1.9860122203826904,-9.4734525680542,-1.574745535850525
1766400716146996700,3.090996826171875,-1.9067533016204834,-9.48284912109375,-1.615635871887207
1766400716157037000,3.101037109375,-1.86556077003479,-9.487127304077148,-1.6384419202804565
1766400716167047000,3.111046875,-1.8441812992095947,-9.489078521728516,-1.6512956619262695
1766400716177026000,3.121026123046875,-1.8151907920837402,-9.491313934326172,-1.6704586744308472
1766400716187036000,3.131035888671875,-1.7735505104064941,-9.494415283203125,-1.6973460912704468
1766400716197076200,3.141076171875,-1.7350181341171265,-9.497868537902832,-1.717728614807129
1766400716227136000,3.171135986328125,-1.6408374309539795,-9.507699966430664,-1.7554752826690674
1766400716247125000,3.191125,-1.557045340538025,-9.514948844909668,-1.7921205759048462
1766400716257165300,3.201165283203125,-1.5174915790557861,-9.518106460571289,-1.8092200756072998
1766400716267205400,3.211205322265625,-1.486628770828247,-9.52098560333252,-1.8196678161621094
1766400716277215200,3.22121533203125,-1.4443702697753906,-9.524176597595215,-1.8369117975234985
1766400716287225000,3.23122509765625,-1.4078742265701294,-9.527324676513672,-1.8488799333572388
1766400716327294700,3.271294677734375,-1.1986892223358154,-9.541173934936523,-1.923425555229187
1766400716337304300,3.28130419921875,-1.1694287061691284,-9.541953086853027,-1.9375118017196655
1766400716347314200,3.291314208984375,-1.1433887481689453,-9.54289722442627,-1.9483853578567505
1766400716357324000,3.301323974609375,-1.1240373849868774,-9.543728828430176,-1.9555399417877197
1766400716367333600,3.311333740234375,-1.1065102815628052,-9.543251991271973,-1.967831015586853
1766400716377343500,3.321343505859375,-1.1039001941680908,-9.542509078979492,-1.9728978872299194
1766400716387353000,3.33135302734375,-1.0979301929473877,-9.541885375976562,-1.9792451858520508
1766400716427453200,3.371453125,-1.0330132246017456,-9.550239562988281,-1.9738866090774536
1766400716437493500,3.381493408203125,-1.0212318897247314,-9.55213451385498,-1.9708348512649536
1766400716447503400,3.39150341796875,-0.9898808002471924,-9.556685447692871,-1.9647653102874756
1766400716457513200,3.40151318359375,-0.9799032807350159,-9.558757781982422,-1.959674596786499
1766400716467492400,3.411492431640625,-0.9739328622817993,-9.560436248779297,-1.9544579982757568
1766400716477532700,3.42153271484375,-0.9671582579612732,-9.562655448913574,-1.9469538927078247
1766400716487511800,3.43151171875,-0.9628094434738159,-9.563811302185059,-1.943428635597229
1766400716497521700,3.441521728515625,-0.950853168964386,-9.567105293273926,-1.933074951171875
1766400716537560800,3.481560791015625,-0.9234629273414612,-9.577301025390625,-1.895498275756836
1766400716547570400,3.4915703125,-0.9149073362350464,-9.580031394958496,-1.885819673538208
1766400716557610800,3.50161083984375,-0.9091492295265198,-9.582001686096191,-1.8785932064056396
1766400716567620600,3.51162060546875,-0.9042168259620667,-9.583608627319336,-1.8727703094482422
1766400716577630200,3.521630126953125,-0.9043998122215271,-9.584606170654297,-1.8675694465637207
1766400716587640000,3.53164013671875,-0.9079117774963379,-9.58461856842041,-1.8657959699630737
1766400716597650000,3.54164990234375,-0.9152878522872925,-9.584630012512207,-1.8621289730072021
1766400716607659500,3.551659423828125,-0.9229993224143982,-9.584349632263184,-1.859764814376831
1766400716637688800,3.581688720703125,-0.9512481093406677,-9.58461856842041,-1.8440699577331543
1766400716647698700,3.59169873046875,-0.9576053619384766,-9.58620548248291,-1.8325085639953613
1766400716657708500,3.60170849609375,-0.9566748142242432,-9.587016105651855,-1.8287429809570312
1766400716667718100,3.61171826171875,-0.9654698967933655,-9.588889122009277,-1.8142393827438354
1766400716677728000,3.62172802734375,-0.9699543714523315,-9.590392112731934,-1.803877353668213
1766400716687737600,3.631737548828125,-0.9747874736785889,-9.592262268066406,-1.7912864685058594
1766400716697747500,3.64174755859375,-0.981095016002655,-9.594148635864258,-1.7776788473129272
1766400716707757300,3.65175732421875,-0.9846516251564026,-9.596359252929688,-1.763724684715271
1766400716747857400,3.691857421875,-1.005104899406433,-9.604598045349121,-1.7064168453216553
1766400716757867000,3.701866943359375,-1.027037501335144,-9.60634708404541,-1.683363914489746
1766400716767907300,3.7119072265625,-1.0301904678344727,-9.607606887817383,-1.67421555519104
1766400716777917200,3.721917236328125,-1.0575096607208252,-9.608441352844238,-1.652243971824646
1766400716787927000,3.731927001953125,-1.0753107070922852,-9.609395980834961,-1.6351077556610107
1766400716797967000,3.741967041015625,-1.095139741897583,-9.609872817993164,-1.6190695762634277
1766400716808007400,3.75200732421875,-1.1180689334869385,-9.610264778137207,-1.6009833812713623
1766400716818017300,3.762017333984375,-1.143181324005127,-9.610346794128418,-1.5826605558395386
1766400716848046600,3.792046630859375,-1.1854345798492432,-9.612991333007812,-1.5347813367843628
1766400716858087000,3.8020869140625,-1.2088394165039062,-9.615093231201172,-1.503021478652954
1766400716868066000,3.812066162109375,-1.2227450609207153,-9.616515159606934,-1.4825407266616821
1766400716878076000,3.822075927734375,-1.231522798538208,-9.61845588684082,-1.4625442028045654
1766400716888085500,3.83208544921875,-1.242140293121338,-9.620275497436523,-1.44144606590271
1766400716898095400,3.842095458984375,-1.2521889209747314,-9.621906280517578,-1.4217259883880615
1766400716908105200,3.852105224609375,-1.264139175415039,-9.623233795166016,-1.4020425081253052
1766400716948144000,3.89214404296875,-1.3057162761688232,-9.629103660583496,-1.3212980031967163
1766400716958184400,3.902184326171875,-1.3275163173675537,-9.631414413452148,-1.2821588516235352
1766400716968163800,3.912163818359375,-1.3448911905288696,-9.632735252380371,-1.2538217306137085
1766400716978204200,3.9222041015625,-1.3558449745178223,-9.63463020324707,-1.2271831035614014
1766400716988213800,3.9322138671875,-1.3671766519546509,-9.636384010314941,-1.2005572319030762
1766400716998223600,3.9422236328125,-1.3748563528060913,-9.636943817138672,-1.1872234344482422
1766400717008233200,3.952233154296875,-1.3976850509643555,-9.638291358947754,-1.1490013599395752
1766400717018304300,3.96230419921875,-1.416499376296997,-9.638222694396973,-1.1263117790222168
1766400717078454300,4.022454345703125,-1.5556955337524414,-9.631707191467285,-0.9901825785636902
1766400717088464100,4.032464111328125,-1.5649750232696533,-9.631430625915527,-0.9781640768051147
1766400717098473700,4.0424736328125,-1.586297631263733,-9.631970405578613,-0.9376437664031982
1766400717108483600,4.052483642578125,-1.5946213006973267,-9.633281707763672,-0.9096284508705139
1766400717118524000,4.06252392578125,-1.5992757081985474,-9.635136604309082,-0.881424069404602
1766400717148583700,4.092583740234375,-1.600184679031372,-9.641860961914062,-0.8027093410491943
1766400717158562800,4.102562744140625,-1.6135210990905762,-9.641220092773438,-0.7834489941596985
1766400717168603100,4.11260302734375,-1.6175230741500854,-9.64343547821045,-0.7471062541007996
1766400717178643500,4.1226435546875,-1.620827317237854,-9.643815994262695,-0.7349319458007812
1766400717188622800,4.132622802734375,-1.5841009616851807,-9.652241706848145,-0.7037326097488403
1766400717198632400,4.142632568359375,-1.528235912322998,-9.662810325622559,-0.6818743348121643
1766400717208642300,4.152642333984375,-1.437302827835083,-9.678299903869629,-0.6596055626869202
1766400717218652000,4.16265185546875,-1.3126633167266846,-9.697503089904785,-0.6370058059692383
1766400717248712000,4.1927119140625,-0.816432774066925,-9.756382942199707,-0.5628575682640076
1766400717258721500,4.202721435546875,-0.7192749977111816,-9.76476764678955,-0.5499087572097778
1766400717268731400,4.2127314453125,-0.5753290057182312,-9.775566101074219,-0.5269505977630615
1766400717278741200,4.2227412109375,-0.4504203796386719,-9.783394813537598,-0.5026718378067017
1766400717288750800,4.232750732421875,-0.3348780870437622,-9.789173126220703,-0.4799584448337555
1766400717298760700,4.2427607421875,-0.23210199177265167,-9.793167114257812,-0.4586702287197113
1766400717308770600,4.2527705078125,-0.1243072971701622,-9.79591178894043,-0.44166627526283264
1766400717318780200,4.2627802734375,0.02929161675274372,-9.797261238098145,-0.4280258119106293
1766400717328790000,4.2727900390625,0.09631478041410446,-9.797350883483887,-0.41599810123443604
1766400717378838800,4.3228388671875,0.3149939477443695,-9.794398307800293,-0.3754245340824127
1766400717388848600,4.3328486328125,0.3832648992538452,-9.792170524597168,-0.3699876070022583
1766400717398858200,4.342858154296875,0.42395639419555664,-9.790614128112793,-0.3667868971824646
1766400717408868000,4.3528681640625,0.44074225425720215,-9.790024757385254,-0.3627089858055115
1766400717418878000,4.3628779296875,0.4534831643104553,-9.789721488952637,-0.35515111684799194
1766400717428887600,4.372887451171875,0.43822622299194336,-9.790653228759766,-0.34851476550102234
1766400717458916900,4.402916748046875,0.3542901277542114,-9.795007705688477,-0.3204534649848938
1766400717468926700,4.4129267578125,0.33611467480659485,-9.795980453491211,-0.31010815501213074
1766400717478936600,4.4229365234375,0.2981953024864197,-9.79737663269043,-0.3047926723957062
1766400717488946200,4.4329462890625,0.2745918035507202,-9.798233032226562,-0.29934507608413696
1766400717498956000,4.4429560546875,0.2515259385108948,-9.798933029174805,-0.2967092990875244
1766400717508965600,4.452965576171875,0.23388178646564484,-9.799352645874023,-0.29726022481918335
1766400717518975500,4.4629755859375,0.22630901634693146,-9.799567222595215,-0.2960612177848816
1766400717528985300,4.4729853515625,0.21993976831436157,-9.799467086791992,-0.3040526509284973
1766400717549004800,4.4930048828125,0.20979097485542297,-9.79925537109375,-0.31781303882598877
1766400717589044000,4.5330439453125,0.09032291918992996,-9.800716400146484,-0.3289068341255188
1766400717599053600,4.543053466796875,0.07475195080041885,-9.800399780273438,-0.342045396566391
1766400717619073300,4.5630732421875,0.06807996332645416,-9.799321174621582,-0.37292352318763733
1766400717629083000,4.573082763671875,0.065911203622818,-9.798357009887695,-0.39780399203300476
1766400717639092700,4.5830927734375,0.05519559979438782,-9.797901153564453,-0.41047728061676025
1766400717669152500,4.613152587890625,0.07053878903388977,-9.796710014343262,-0.43579864501953125
1766400717679192800,4.62319287109375,0.10947269201278687,-9.796062469482422,-0.44221025705337524
1766400717689233200,4.633233154296875,0.13026458024978638,-9.795740127563477,-0.4437592327594757
1766400717699273500,4.6432734375,0.16115523874759674,-9.795166969299316,-0.4462742805480957
1766400717709252600,4.653252685546875,0.16844365000724792,-9.795204162597656,-0.4427056312561035
1766400717719293000,4.66329296875,0.18243877589702606,-9.795032501220703,-0.440979540348053
1766400717729272000,4.67327197265625,0.1817043274641037,-9.795870780944824,-0.42226269841194153
1766400717739373600,4.68337353515625,0.17946268618106842,-9.796608924865723,-0.40578269958496094
1766400717769341700,4.713341796875,0.20562969148159027,-9.797629356384277,-0.36677858233451843
1766400717779382000,4.723382080078125,0.2055424451828003,-9.797966957092285,-0.35777562856674194
1766400717789392000,4.733391845703125,0.20379115641117096,-9.798107147216797,-0.3549292981624603
1766400717799401500,4.7434013671875,0.19489888846874237,-9.798300743103027,-0.35460516810417175
1766400717809441800,4.75344189453125,0.18252667784690857,-9.798388481140137,-0.35873496532440186
1766400717819451600,4.76345166015625,0.17644736170768738,-9.798484802246094,-0.3591165244579315
1766400717829430800,4.7734306640625,0.1788959950208664,-9.798396110534668,-0.36029666662216187
1766400717839440600,4.783440673828125,0.20584245026111603,-9.79774284362793,-0.3636758029460907
1766400717849481000,4.79348095703125,0.24491292238235474,-9.796571731567383,-0.3709396421909332
1766400717869500400,4.81350048828125,0.3331102728843689,-9.792861938476562,-0.399109810590744
1766400717879510300,4.82351025390625,0.3571695387363434,-9.791374206542969,-0.4144754111766815
1766400717889519900,4.833519775390625,0.371387243270874,-9.790456771850586,-0.42355480790138245
1766400717899529700,4.84352978515625,0.37905097007751465,-9.789739608764648,-0.43328532576560974
1766400717909539600,4.85353955078125,0.3802824318408966,-9.789074897766113,-0.4469406306743622
1766400717919549200,4.863549072265625,0.3812341094017029,-9.788928031921387,-0.44940030574798584
1766400717929559000,4.87355908203125,0.3650651276111603,-9.789164543151855,-0.4575944244861603
1766400717939569000,4.88356884765625,0.3521979749202728,-9.789250373840332,-0.4657549262046814
1766400717949578500,4.89357861328125,0.37116146087646484,-9.787792205810547,-0.4814318120479584
1766400717979607800,4.92360791015625,0.4097954332828522,-9.78488826751709,-0.5083706974983215
1766400717989617700,4.93361767578125,0.40277695655822754,-9.784721374511719,-0.5171020030975342
1766400717999627300,4.943627197265625,0.3921772241592407,-9.78467082977295,-0.5261243581771851
1766400718009637000,4.95363720703125,0.392024964094162,-9.784295082092285,-0.533184826374054
1766400718019708000,4.9637080078125,0.39895352721214294,-9.783522605895996,-0.5421370267868042
1766400718029717800,4.9737177734375,0.4109050929546356,-9.782648086547852,-0.5489610433578491
1766400718039727400,4.983727294921875,0.42438459396362305,-9.781986236572266,-0.5504992008209229
1766400718049737200,4.9937373046875,0.44355785846710205,-9.781216621398926,-0.5490195155143738
1766400718059747000,5.0037470703125,0.4776708483695984,-9.779393196105957,-0.5528942942619324
1766400718069756700,5.013756591796875,0.5161987543106079,-9.77725887298584,-0.5560171008110046
1766400718109795800,5.0537958984375,0.5590476989746094,-9.773885726928711,-0.5736150145530701
1766400718119866600,5.06386669921875,0.5523959994316101,-9.774077415466309,-0.5767898559570312
1766400718129876500,5.07387646484375,0.555726170539856,-9.773521423339844,-0.5829430818557739
1766400718139886000,5.083885986328125,0.5619828701019287,-9.772780418395996,-0.5893629193305969
1766400718149896000,5.09389599609375,0.572608470916748,-9.771747589111328,-0.5962199568748474
1766400718159905800,5.10390576171875,0.5870920419692993,-9.770622253417969,-0.6005343198776245
1766400718169915400,5.113915283203125,0.6077053546905518,-9.769164085388184,-0.6037591099739075
1766400718209954600,5.15395458984375,0.6513863801956177,-9.766340255737305,-0.6038859486579895
1766400718219964200,5.163964111328125,0.6382850408554077,-9.767305374145508,-0.6022849082946777
1766400718229974000,5.17397412109375,0.6241470575332642,-9.76827621459961,-0.6013587713241577
1766400718240044800,5.184044921875,0.6130996346473694,-9.769068717956543,-0.5998489260673523
1766400718250054700,5.1940546875,0.6110017895698547,-9.769250869750977,-0.5990154147148132
1766400718260125400,5.20412548828125,0.6190438866615295,-9.768771171569824,-0.5985743999481201
1766400718270104600,5.2141044921875,0.6345024704933167,-9.767940521240234,-0.5959308743476868
1766400718280145000,5.224144775390625,0.6556108593940735,-9.766555786132812,-0.5957874059677124
1766400718300195000,5.244195068359375,0.7013998031616211,-9.763269424438477,-0.5974854230880737
1766400718320184000,5.26418408203125,0.7144386172294617,-9.762413024902344,-0.5960589051246643
1766400718330254800,5.2742548828125,0.7166548371315002,-9.762273788452148,-0.595664918422699
1766400718340264700,5.2842646484375,0.7155082821846008,-9.762246131896973,-0.597490131855011
1766400718350274300,5.2942744140625,0.7191354036331177,-9.761903762817383,-0.5987330675125122
1766400718360284200,5.3042841796875,0.729122519493103,-9.761001586914062,-0.6013762950897217
1766400718370293800,5.314293701171875,0.7432138919830322,-9.759783744812012,-0.6038739681243896
1766400718380334000,5.324333984375,0.7453753352165222,-9.759344100952148,-0.6082829833030701
1766400718390313500,5.3343134765625,0.7486892342567444,-9.758916854858398,-0.6110737919807434
1766400718400353800,5.344353759765625,0.7503900527954102,-9.758461952209473,-0.6162205338478088
1766400718440484400,5.384484375,0.7640239000320435,-9.755934715270996,-0.6390592455863953
1766400718450524700,5.394524658203125,0.7693575024604797,-9.755126953125,-0.6449845433235168
1766400718460534300,5.4045341796875,0.7695002555847168,-9.754761695861816,-0.6502802968025208
1766400718470544100,5.414544189453125,0.766655683517456,-9.754633903503418,-0.6555559039115906
1766400718480554000,5.424553955078125,0.7692677974700928,-9.753961563110352,-0.6624681949615479
1766400718490563600,5.4345634765625,0.7745562791824341,-9.753047943115234,-0.6697127223014832
1766400718500604000,5.44460400390625,0.7825218439102173,-9.751936912536621,-0.6766068935394287
1766400718530602800,5.474602783203125,0.7985223531723022,-9.749349594116211,-0.6949489116668701
1766400718540643000,5.48464306640625,0.7939052581787109,-9.749246597290039,-0.701652467250824
1766400718550652700,5.494652587890625,0.7888662219047546,-9.748943328857422,-0.7114710211753845
1766400718560723500,5.504723388671875,0.7876024842262268,-9.748862266540527,-0.7139806151390076
1766400718570763800,5.514763671875,0.7892547845840454,-9.748263359069824,-0.7202969789505005
1766400718580804000,5.52480419921875,0.8009967803955078,-9.746357917785645,-0.7330053448677063
1766400718590814000,5.53481396484375,0.8114806413650513,-9.744773864746094,-0.7424824833869934
1766400718600823600,5.544823486328125,0.8143365979194641,-9.744267463684082,-0.7459785342216492
1766400718610833400,5.55483349609375,0.8413805365562439,-9.74083137512207,-0.7606991529464722
1766400718630852900,5.574852783203125,0.8649217486381531,-9.737361907958984,-0.7785091996192932
1766400718650872600,5.59487255859375,0.8535897731781006,-9.735832214355469,-0.8095377087593079
1766400718660882200,5.604882080078125,0.828648030757904,-9.736570358276367,-0.8264227509498596
1766400718670892000,5.61489208984375,0.8129875659942627,-9.73711109161377,-0.8355425000190735
1766400718690911500,5.634911376953125,0.7838299870491028,-9.738760948181152,-0.8441133499145508
1766400718700921300,5.64492138671875,0.783999502658844,-9.739068031311035,-0.8404115438461304
1766400718710931200,5.65493115234375,0.7925034165382385,-9.739075660705566,-0.8323153257369995
1766400718720971300,5.66497119140625,0.7975576519966125,-9.739316940307617,-0.8246327042579651
1766400718740991000,5.684990966796875,0.7987816333770752,-9.741002082824707,-0.803252637386322
1766400718751000600,5.69500048828125,0.7863982319831848,-9.743013381958008,-0.7909948825836182
1766400718761071400,5.7050712890625,0.7753598093986511,-9.744300842285156,-0.7860144972801208
1766400718771020300,5.715020263671875,0.7728341221809387,-9.745014190673828,-0.7796168923377991
1766400718781030000,5.72502978515625,0.7723631262779236,-9.745463371276855,-0.7744558453559875
1766400718791039700,5.735039794921875,0.7779594659805298,-9.745534896850586,-0.7679337859153748
1766400718801049600,5.745049560546875,0.7939196825027466,-9.744940757751465,-0.7591028213500977
1766400718811089700,5.755089599609375,0.8075984120368958,-9.744229316711426,-0.7537783980369568
1766400718831109400,5.775109375,0.8345024585723877,-9.742707252502441,-0.7440978288650513
1766400718841119000,5.785118896484375,0.8396703600883484,-9.742523193359375,-0.740660548210144
1766400718851159300,5.7951591796875,0.842639148235321,-9.742506980895996,-0.7375062108039856
1766400718861199600,5.80519970703125,0.846001923084259,-9.74236011505127,-0.735599160194397
1766400718871209500,5.81520947265625,0.8479512929916382,-9.742403984069824,-0.7327753305435181
1766400718881188600,5.825188720703125,0.8474652767181396,-9.742545127868652,-0.7314490675926208
1766400718891229000,5.83522900390625,0.8454968929290771,-9.743217468261719,-0.7247215509414673
1766400718901238800,5.84523876953125,0.8452677726745605,-9.74351978302002,-0.7209142446517944
1766400718911248400,5.855248291015625,0.8483607769012451,-9.743584632873535,-0.7164210081100464
1766400718961358300,5.9053583984375,0.8485641479492188,-9.744747161865234,-0.7001631259918213
1766400718971368200,5.9153681640625,0.8384578227996826,-9.74571418762207,-0.6989008784294128
1766400718981377800,5.925377685546875,0.8284715414047241,-9.746633529663086,-0.6979749798774719
1766400718991357200,5.935357177734375,0.819421648979187,-9.747541427612305,-0.695970356464386
1766400719001366800,5.94536669921875,0.809395968914032,-9.748611450195312,-0.6927116513252258
1766400719011376600,5.955376708984375,0.7936539053916931,-9.75027847290039,-0.6874199509620667
1766400719051415800,5.995415771484375,0.777577817440033,-9.752046585083008,-0.6806941628456116
1766400719061425400,6.00542529296875,0.77114337682724,-9.752347946166992,-0.683692455291748
1766400719071404800,6.01540478515625,0.7675204873085022,-9.752467155456543,-0.6860714554786682
1766400719081445000,6.025445068359375,0.7487833499908447,-9.753625869750977,-0.6902864575386047
1766400719091454700,6.035454833984375,0.7433426380157471,-9.753948211669922,-0.6916103959083557
1766400719101464600,6.045464599609375,0.7302280068397522,-9.754781723022461,-0.6938397884368896
1766400719111474200,6.05547412109375,0.727598249912262,-9.755097389221191,-0.692160427570343
1766400719121453600,6.06545361328125,0.7394582033157349,-9.754470825195312,-0.6883844137191772
1766400719151483000,6.09548291015625,0.7697238922119141,-9.752498626708984,-0.6831614375114441
1766400719161462000,6.1054619140625,0.782036542892456,-9.751701354980469,-0.6805337071418762
1766400719171502300,6.11550244140625,0.782402753829956,-9.75173282623291,-0.6796706914901733
1766400719181542700,6.125542724609375,0.7622323632240295,-9.753575325012207,-0.6761348843574524
1766400719191521800,6.135521728515625,0.7445964217185974,-9.75523567199707,-0.6718325018882751
1766400719201531600,6.14553173828125,0.7345198392868042,-9.756269454956055,-0.6679080128669739
1766400719211572000,6.155572021484375,0.7228145003318787,-9.757743835449219,-0.6590616106987
1766400719221581800,6.165581787109375,0.7244120240211487,-9.758158683776855,-0.6511325240135193
1766400719271630600,6.215630615234375,0.6883432269096375,-9.761902809143066,-0.6339032053947449
1766400719281609700,6.225609619140625,0.6656640768051147,-9.763666152954102,-0.6309309005737305
1766400719291650000,6.235650146484375,0.6568795442581177,-9.764413833618164,-0.6286065578460693
1766400719301629400,6.24562939453125,0.6474389433860779,-9.765119552612305,-0.6273959875106812
1766400719311639000,6.25563916015625,0.6452659964561462,-9.764992713928223,-0.63161301612854
1766400719321618400,6.265618408203125,0.6387412548065186,-9.764893531799316,-0.6397586464881897
1766400719331658500,6.275658447265625,0.6347147822380066,-9.76486873626709,-0.6441097855567932
1766400719341668400,6.28566845703125,0.6272594928741455,-9.765104293823242,-0.647825300693512
1766400719351678200,6.29567822265625,0.619522750377655,-9.765228271484375,-0.6533806324005127
1766400719381768400,6.3257685546875,0.5936556458473206,-9.764471054077148,-0.6878031492233276
1766400719391778300,6.3357783203125,0.5912362933158875,-9.763592720031738,-0.7021803259849548
1766400719401788000,6.345787841796875,0.5905053615570068,-9.763038635253906,-0.7104784846305847
1766400719411797800,6.3557978515625,0.5917491912841797,-9.762469291687012,-0.717218279838562
1766400719421807600,6.3658076171875,0.5916644930839539,-9.762110710144043,-0.7221636772155762
1766400719431756300,6.37575634765625,0.5948030352592468,-9.761458396911621,-0.7283893823623657
1766400719481835500,6.42583544921875,0.5892810821533203,-9.759742736816406,-0.7553846836090088
1766400719501855200,6.445855224609375,0.5843006372451782,-9.760649681091309,-0.747458815574646
1766400719511864800,6.45586474609375,0.5752911567687988,-9.761773109436035,-0.7397472262382507
1766400719521874700,6.465874755859375,0.5713645815849304,-9.762540817260742,-0.7326143383979797
1766400719531915000,6.4759150390625,0.5733703970909119,-9.762680053710938,-0.7291872501373291
1766400719541955300,6.485955322265625,0.5819114446640015,-9.762622833251953,-0.7231655120849609
1766400719551934500,6.4959345703125,0.5947664976119995,-9.762238502502441,-0.7178624272346497
1766400719571984600,6.515984619140625,0.6203446388244629,-9.761434555053711,-0.7070786356925964
1766400719581994200,6.525994140625,0.6368173360824585,-9.761028289794922,-0.6979916095733643
1766400719592004000,6.536004150390625,0.6539259552955627,-9.760512351989746,-0.6893482804298401
1766400719602014000,6.546013916015625,0.6710238456726074,-9.759825706481934,-0.6825950145721436
1766400719612023600,6.5560234375,0.6748065948486328,-9.75985336303711,-0.6784461140632629
1766400719622033400,6.566033447265625,0.6868538856506348,-9.759293556213379,-0.6743745803833008
1766400719632043300,6.576043212890625,0.6927879452705383,-9.758894920349121,-0.6740984320640564
1766400719642083300,6.586083251953125,0.7075725197792053,-9.757942199707031,-0.6725412607192993
1766400719682153000,6.626153076171875,0.7398799061775208,-9.755962371826172,-0.6664587259292603
1766400719692162800,6.636162841796875,0.7423524856567383,-9.755864143371582,-0.6651420593261719
1766400719702203100,6.646203125,0.7514382600784302,-9.75540828704834,-0.6616288423538208
1766400719712212700,6.656212646484375,0.7729852199554443,-9.754138946533203,-0.6555085778236389
1766400719722222600,6.66622265625,0.7909212708473206,-9.752936363220215,-0.6519762873649597
1766400719732232400,6.676232421875,0.8068366050720215,-9.751877784729004,-0.6483043432235718
1766400719742272500,6.6862724609375,0.8133204579353333,-9.751424789428711,-0.6470215916633606
1766400719792321500,6.736321533203125,0.8369702100753784,-9.74990463256836,-0.6397227048873901
1766400719802331100,6.7463310546875,0.8379793763160706,-9.749825477600098,-0.6395917534828186
1766400719812371500,6.756371337890625,0.8488549590110779,-9.749114036560059,-0.6361141204833984
1766400719822381300,6.76638134765625,0.8591273427009583,-9.748181343078613,-0.6366115808486938
1766400719832391200,6.77639111328125,0.8650102615356445,-9.747488021850586,-0.6392132639884949
1766400719842370300,6.786370361328125,0.8654682636260986,-9.747211456298828,-0.6428329348564148
1766400719882409500,6.826409423828125,0.8254668116569519,-9.749940872192383,-0.6539508104324341
1766400719892449500,6.836449462890625,0.8195651769638062,-9.750534057617188,-0.6525640487670898
1766400719902459400,6.84645947265625,0.8199994564056396,-9.750494956970215,-0.6525743007659912
1766400719912438500,6.8564384765625,0.8254302740097046,-9.74996280670166,-0.6536486148834229
1766400719922418000,6.86641796875,0.8260512948036194,-9.749948501586914,-0.6531254649162292
1766400719932458200,6.876458251953125,0.8176119923591614,-9.750628471374512,-0.6535627245903015
1766400719942467800,6.8864677734375,0.8069739937782288,-9.751504898071289,-0.6536957025527954
1766400719952447200,6.896447265625,0.7983645796775818,-9.752235412597656,-0.6533958315849304
1766400719982507000,6.926507080078125,0.7530968189239502,-9.755687713623047,-0.6555722951889038
1766400719992516900,6.936516845703125,0.7449477314949036,-9.75645637512207,-0.6534653902053833
1766400720002557200,6.94655712890625,0.7399848699569702,-9.756908416748047,-0.6523460149765015
1766400720012566800,6.95656689453125,0.7358595728874207,-9.75741958618164,-0.6493655443191528
1766400720022576600,6.96657666015625,0.7336170673370361,-9.757684707641602,-0.6479220390319824
1766400720032586200,6.976586181640625,0.7315542697906494,-9.758183479309082,-0.6427198052406311
1766400720042596000,6.98659619140625,0.7327274084091187,-9.758267402648926,-0.6401146054267883
1766400720052606000,6.99660595703125,0.7356126308441162,-9.758415222167969,-0.6344962120056152
1766400720092675600,7.036675537109375,0.7381497621536255,-9.759193420410156,-0.6193947792053223
1766400720102654700,7.04665478515625,0.7423603534698486,-9.75920581817627,-0.6141709089279175
1766400720112664600,7.05666455078125,0.7415221333503723,-9.75949478149414,-0.6105796098709106
1766400720122674200,7.066674072265625,0.7375456690788269,-9.759968757629395,-0.6078037023544312
1766400720132684000,7.07668408203125,0.7317577004432678,-9.760554313659668,-0.6054089069366455
1766400720142694000,7.08669384765625,0.7364113926887512,-9.760452270507812,-0.6013961434364319
1766400720152703500,7.096703369140625,0.7357494235038757,-9.760724067687988,-0.5977542996406555
1766400720202783000,7.146782958984375,0.7803720831871033,-9.757978439331055,-0.5859095454216003
1766400720212792600,7.15679248046875,0.77715665102005,-9.758071899414062,-0.5886266827583313
1766400720222772000,7.16677197265625,0.7728112936019897,-9.758277893066406,-0.5909417271614075
1766400720232781600,7.176781494140625,0.7713833451271057,-9.75830364227295,-0.5923477411270142
1766400720242822000,7.18682177734375,0.7659657001495361,-9.758927345275879,-0.5891028046607971
1766400720252831700,7.196831787109375,0.7679083347320557,-9.75886344909668,-0.5876139998435974
1766400720292840200,7.236840087890625,0.800666093826294,-9.755463600158691,-0.6002238988876343
1766400720302850000,7.24685009765625,0.807316780090332,-9.754475593566895,-0.6073074340820312
1766400720312829200,7.2568291015625,0.806546688079834,-9.754140853881836,-0.6137064695358276
1766400720322839000,7.266839111328125,0.8028010725975037,-9.754388809204102,-0.6146498918533325
1766400720332787700,7.27678759765625,0.7923886775970459,-9.75463581085205,-0.6241825819015503
1766400720342828000,7.286828125,0.7960054278373718,-9.754072189331055,-0.6283853054046631
1766400720352838000,7.296837890625,0.8279726505279541,-9.750638008117676,-0.6402615904808044
1766400720362847500,7.306847412109375,0.8592673540115356,-9.747279167175293,-0.650083065032959
1766400720402886700,7.34688671875,0.9821817874908447,-9.735273361206055,-0.6558546423912048
1766400720412896500,7.356896484375,1.012312412261963,-9.73229694366455,-0.6542503833770752
1766400720422936600,7.3669365234375,1.0434592962265015,-9.728435516357422,-0.6626753807067871
1766400720432946400,7.376946533203125,1.0857181549072266,-9.72396183013916,-0.6604521870613098
1766400720442986800,7.38698681640625,1.1124310493469238,-9.720882415771484,-0.6613134741783142
1766400720452966000,7.3969658203125,1.150138020515442,-9.716391563415527,-0.6628066301345825
1766400720493005000,7.437005126953125,1.162127137184143,-9.715058326721191,-0.661432147026062
1766400720503015000,7.447014892578125,1.1721844673156738,-9.71405029296875,-0.6584919691085815
1766400720513024500,7.4570244140625,1.1847206354141235,-9.712603569030762,-0.657400369644165
1766400720523034400,7.467034423828125,1.1878478527069092,-9.712347984313965,-0.6555068492889404
1766400720533044200,7.477044189453125,1.1914105415344238,-9.712071418762207,-0.6531584858894348
1766400720553063700,7.497063720703125,1.2020269632339478,-9.711222648620605,-0.6462973952293396
1766400720563104000,7.50710400390625,1.2093219757080078,-9.710578918457031,-0.6423287987709045
1766400720573113600,7.517113525390625,1.2115800380706787,-9.710494995117188,-0.6393380761146545
1766400720603173600,7.547173583984375,1.2409306764602661,-9.706799507141113,-0.6391574740409851
1766400720623223600,7.5672236328125,1.2434499263763428,-9.70667552947998,-0.636137843132019
1766400720633233400,7.5772333984375,1.2477014064788818,-9.705836296081543,-0.6406015157699585
1766400720643243000,7.587242919921875,1.2457319498062134,-9.705894470214844,-0.6435741186141968
1766400720653252900,7.5972529296875,1.2392311096191406,-9.706559181213379,-0.6460852026939392
1766400720663293200,7.607293212890625,1.2318594455718994,-9.707207679748535,-0.650432288646698
1766400720673302800,7.617302734375,1.2271441221237183,-9.70776653289795,-0.651003360748291
1766400720703362800,7.64736279296875,1.2133243083953857,-9.709732055664062,-0.6475681662559509
1766400720713342000,7.657342041015625,1.2066011428833008,-9.710734367370605,-0.6450988054275513
1766400720723351800,7.667351806640625,1.1961147785186768,-9.712336540222168,-0.640478789806366
1766400720733331000,7.6773310546875,1.1905109882354736,-9.713340759277344,-0.6357017755508423
1766400720743371300,7.687371337890625,1.1878151893615723,-9.71387004852295,-0.6326181292533875
1766400720753381000,7.697381103515625,1.1797282695770264,-9.715097427368164,-0.6288958787918091
1766400720763390700,7.707390625,1.174609661102295,-9.71589183807373,-0.6262009143829346
1766400720773370000,7.7173701171875,1.1704729795455933,-9.716498374938965,-0.6245294809341431
1766400720813439700,7.757439697265625,1.1789088249206543,-9.715582847595215,-0.622917115688324
1766400720823449300,7.767449462890625,1.1784645318984985,-9.715529441833496,-0.6246045827865601
1766400720833428700,7.7774287109375,1.178846836090088,-9.715348243713379,-0.6266860961914062
1766400720843468800,7.78746875,1.1813526153564453,-9.714987754821777,-0.6275427341461182
1766400720853478700,7.797478759765625,1.1854530572891235,-9.714512825012207,-0.6271554827690125
1766400720863519000,7.80751904296875,1.185644268989563,-9.714521408081055,-0.6266773343086243
1766400720873528800,7.81752880859375,1.1833475828170776,-9.714831352233887,-0.6262065172195435
1766400720883538400,7.827538330078125,1.1805728673934937,-9.71509075164795,-0.6274217367172241
1766400720913537300,7.857537353515625,1.2079554796218872,-9.7119140625,-0.624477744102478
1766400720923547100,7.867547119140625,1.2112854719161987,-9.711638450622559,-0.6222989559173584
1766400720933556700,7.877556640625,1.2058687210083008,-9.712211608886719,-0.6238970756530762
1766400720943566600,7.887566650390625,1.1965829133987427,-9.713608741760254,-0.6200134754180908
1766400720953545700,7.897545654296875,1.1899551153182983,-9.714411735534668,-0.620182991027832
1766400720963586000,7.9075859375,1.1864806413650513,-9.714858055114746,-0.6198340654373169
1766400720983636200,7.92763623046875,1.1804091930389404,-9.715656280517578,-0.6189060807228088
1766400721013634800,7.957634765625,1.185174822807312,-9.715322494506836,-0.6150429844856262
1766400721023675100,7.967675048828125,1.1843676567077637,-9.715415954589844,-0.6151058673858643
1766400721033685000,7.97768505859375,1.1845166683197021,-9.715352058410645,-0.6158314943313599
1766400721043694800,7.98769482421875,1.1836574077606201,-9.715478897094727,-0.6154991984367371
1766400721053704400,7.997704345703125,1.181220531463623,-9.715775489807129,-0.6154796481132507
1766400721063714300,8.00771435546875,1.1792676448822021,-9.716009140014648,-0.6155197024345398
1766400721073724200,8.01772412109375,1.18003511428833,-9.715893745422363,-0.6159054636955261
1766400721083764200,8.02776416015625,1.1848077774047852,-9.715263366699219,-0.6166694164276123
1766400721123803400,8.067803466796875,1.2112901210784912,-9.712019920349121,-0.6163403391838074
1766400721133813200,8.077813232421875,1.219655156135559,-9.711024284362793,-0.6154901385307312
1766400721143853600,8.087853515625,1.2280430793762207,-9.709980010986328,-0.61530601978302
1766400721153863200,8.09786328125,1.2337790727615356,-9.709257125854492,-0.6152393817901611
1766400721163903500,8.107903564453125,1.2510778903961182,-9.706969261169434,-0.6164116859436035
1766400721173882600,8.117882568359375,1.261100172996521,-9.705559730529785,-0.6181485652923584
1766400721183892500,8.127892578125,1.2804045677185059,-9.702797889709473,-0.6218579411506653
1766400721223901000,8.16790087890625,1.2879151105880737,-9.701518058776855,-0.6262933015823364
1766400721233910800,8.177910888671875,1.2885329723358154,-9.701482772827148,-0.6255307793617249
1766400721243920600,8.187920654296875,1.2900375127792358,-9.701229095458984,-0.6264107823371887
1766400721253930200,8.19793017578125,1.287773609161377,-9.70169448852539,-0.623842716217041
1766400721264001000,8.2080009765625,1.287629246711731,-9.701741218566895,-0.6233946681022644
1766400721273980400,8.21798046875,1.2899457216262817,-9.701398849487305,-0.6239233613014221
1766400721283990300,8.227990234375,1.2932559251785278,-9.700897216796875,-0.6248766779899597
1766400721293969400,8.237969482421875,1.29378080368042,-9.700969696044922,-0.6226724982261658
1766400721334008600,8.278008544921875,1.296947717666626,-9.700942993164062,-0.6164639592170715
1766400721344048600,8.288048583984375,1.2935843467712402,-9.701611518859863,-0.6129910349845886
1766400721354028000,8.298028076171875,1.2889046669006348,-9.702422142028809,-0.6100274920463562
1766400721364068400,8.308068359375,1.2844862937927246,-9.703145980834961,-0.6078402400016785
1766400721374078000,8.318077880859375,1.2791858911514282,-9.704180717468262,-0.6024649739265442
1766400721384087800,8.328087890625,1.2773633003234863,-9.704286575317383,-0.6046174764633179
1766400721394097700,8.33809765625,1.2727947235107422,-9.705221176147461,-0.5992138385772705
1766400721404107300,8.348107177734375,1.2698323726654053,-9.705754280090332,-0.5968582630157471
1766400721424127000,8.368126953125,1.2721657752990723,-9.705432891845703,-0.5971142649650574
1766400721434136600,8.378136474609375,1.2735388278961182,-9.70516300201416,-0.5985960364341736
1766400721444146400,8.388146484375,1.274046778678894,-9.705168724060059,-0.5974129438400269
1766400721454156300,8.39815625,1.2747247219085693,-9.70510482788086,-0.597000002861023
1766400721464166000,8.408165771484375,1.2769161462783813,-9.704667091369629,-0.5994137525558472
1766400721474175700,8.41817578125,1.27956223487854,-9.70412540435791,-0.6025488376617432
1766400721484185600,8.428185546875,1.2834488153457642,-9.703307151794434,-0.6074252128601074
1766400721494195200,8.4381953125,1.2889316082000732,-9.702109336853027,-0.6149208545684814
1766400721504205000,8.448205078125,1.2921452522277832,-9.701370239257812,-0.6198261380195618
1766400721524285700,8.46828564453125,1.288981318473816,-9.701141357421875,-0.6299301981925964
1766400721534295300,8.47829541015625,1.2867302894592285,-9.701268196105957,-0.6325535178184509
1766400721544305200,8.48830517578125,1.2817991971969604,-9.701494216918945,-0.6390665769577026
1766400721554284300,8.4982841796875,1.2774498462677002,-9.701700210571289,-0.6446113586425781
1766400721564355000,8.50835498046875,1.2744863033294678,-9.701855659484863,-0.648128092288971
1766400721574365000,8.518364990234375,1.2737135887145996,-9.701753616333008,-0.6511813402175903
1766400721584374800,8.528374755859375,1.2730740308761597,-9.70163631439209,-0.6541486978530884
1766400721594384400,8.53838427734375,1.270808458328247,-9.701887130737305,-0.6548472046852112
1766400721604394200,8.548394287109375,1.2681044340133667,-9.702404022216797,-0.6524269580841064
1766400721624413700,8.56841357421875,1.273499608039856,-9.701685905456543,-0.6525906324386597
1766400721634423600,8.578423583984375,1.274107575416565,-9.70164680480957,-0.6519792079925537
1766400721654443000,8.598443115234375,1.2736048698425293,-9.701595306396484,-0.6537324786186218
1766400721664452900,8.608452880859375,1.2720955610275269,-9.701745986938477,-0.6544389128684998
1766400721674462500,8.61846240234375,1.270459532737732,-9.701953887939453,-0.6545546650886536
1766400721684502800,8.628502685546875,1.2650444507598877,-9.702678680419922,-0.6542994976043701
1766400721694512600,8.6385126953125,1.263459324836731,-9.702967643737793,-0.6530573964118958
1766400721704522500,8.6485224609375,1.2611545324325562,-9.703295707702637,-0.6526277661323547
1766400721714501600,8.658501708984375,1.257428765296936,-9.703821182250977,-0.6520113945007324
1766400721724542000,8.6685419921875,1.2517811059951782,-9.704630851745605,-0.6508178114891052
1766400721734551800,8.6785517578125,1.2488853931427002,-9.705038070678711,-0.650322675704956
1766400721744561400,8.6885615234375,1.2422077655792236,-9.705851554870605,-0.6509712338447571
1766400721764580900,8.708580810546875,1.2322977781295776,-9.70710563659668,-0.6511138677597046
1766400721784600600,8.7286005859375,1.2256734371185303,-9.707793235778809,-0.6533634066581726
1766400721794610200,8.738610107421875,1.2229349613189697,-9.708154678344727,-0.6530871987342834
1766400721804620000,8.7486201171875,1.2155693769454956,-9.709098815917969,-0.65283203125
1766400721814630000,8.7586298828125,1.202552080154419,-9.710769653320312,-0.6520897150039673
1766400721824670200,8.768670166015625,1.1862748861312866,-9.712753295898438,-0.6523475050926208
1766400721844689700,8.788689697265625,1.1807085275650024,-9.71345329284668,-0.6520557999610901
1766400721854668800,8.798668701171875,1.180363655090332,-9.71362590789795,-0.6500979661941528
1766400721864678700,8.8086787109375,1.178596019744873,-9.713852882385254,-0.6499074101448059
1766400721874657800,8.81865771484375,1.167595386505127,-9.715352058410645,-0.6473466157913208
1766400721884698000,8.828697998046875,1.1592974662780762,-9.716705322265625,-0.641917884349823
1766400721894677500,8.838677490234375,1.1417430639266968,-9.719035148620605,-0.6380936503410339
1766400721904717800,8.8487177734375,1.1386457681655884,-9.719532012939453,-0.6360743641853333
1766400721914727400,8.8587275390625,1.136385440826416,-9.71965217590332,-0.638266921043396
1766400721944756700,8.8887568359375,1.1057372093200684,-9.72296142578125,-0.6417027711868286
1766400721954766600,8.8987666015625,1.0949585437774658,-9.724203109741211,-0.6413622498512268
1766400721964807000,8.908806884765625,1.078128457069397,-9.726149559020996,-0.6403449177742004
1766400721974816500,8.91881640625,1.0781441926956177,-9.726122856140137,-0.6407389044761658
1766400721984826400,8.928826416015625,1.0819255113601685,-9.725536346435547,-0.6432581543922424
1766400721994836200,8.938836181640625,1.0833791494369507,-9.725235939025879,-0.6453428864479065
1766400722004876300,8.948876220703125,1.0841588973999023,-9.724994659423828,-0.6476777195930481
1766400722014886100,8.95888623046875,1.0772966146469116,-9.725635528564453,-0.6495163440704346
1766400722044946000,8.98894580078125,1.0330027341842651,-9.7301607131958,-0.6536576747894287
1766400722065026600,9.009026611328125,1.0254478454589844,-9.73080825805664,-0.6559399366378784
1766400722075005700,9.019005615234375,1.0215811729431152,-9.731013298034668,-0.6589005589485168
1766400722085015600,9.029015625,1.0155746936798096,-9.731542587280273,-0.6603761911392212
1766400722095025400,9.039025390625,1.0026240348815918,-9.732698440551758,-0.6631298661231995
1766400722115044900,9.059044921875,0.9836468696594238,-9.734563827514648,-0.6641592383384705
1766400722135094800,9.0790947265625,0.9702566862106323,-9.735628128051758,-0.6682415008544922
1766400722145104600,9.089104736328125,0.967843770980835,-9.735926628112793,-0.6673808097839355
1766400722155114500,9.099114501953125,0.9607517719268799,-9.736285209655762,-0.6723711490631104
1766400722165124000,9.1091240234375,0.9583370685577393,-9.736321449279785,-0.6753072142601013
1766400722175134000,9.119134033203125,0.9499106407165527,-9.736892700195312,-0.678965151309967
1766400722185143800,9.129143798828125,0.9383464455604553,-9.737835884094238,-0.6815066337585449
1766400722195123000,9.139123046875,0.9375848174095154,-9.737874984741211,-0.6819835901260376
1766400722205163300,9.149163330078125,0.9390251040458679,-9.737649917602539,-0.6832277774810791
1766400722215173000,9.159173095703125,0.9421183466911316,-9.73714828491211,-0.6861302256584167
1766400722225182700,9.1691826171875,0.9442594647407532,-9.736749649047852,-0.6888272166252136
1766400722265282800,9.20928271484375,0.9493664503097534,-9.734615325927734,-0.7116174101829529
1766400722275292700,9.219292724609375,0.9461299180984497,-9.734296798706055,-0.720223605632782
1766400722285333000,9.2293330078125,0.9377666115760803,-9.734770774841309,-0.7247332334518433
1766400722295342600,9.239342529296875,0.9327139854431152,-9.734585762023926,-0.7336939573287964
1766400722305383000,9.2493828125,0.9314192533493042,-9.734343528747559,-0.7385191917419434
1766400722315392800,9.259392822265625,0.9288538098335266,-9.734125137329102,-0.7445970177650452
1766400722325433000,9.26943310546875,0.9315969944000244,-9.733248710632324,-0.752600908279419
1766400722335442700,9.279442626953125,0.9402467012405396,-9.731952667236328,-0.7585837244987488
1766400722355492900,9.299492919921875,0.9522036910057068,-9.730097770690918,-0.7673878073692322
1766400722365533200,9.309533203125,0.954273521900177,-9.729951858520508,-0.7666846513748169
1766400722375542800,9.319542724609375,0.9571154713630676,-9.729680061340332,-0.7665873169898987
1766400722385583000,9.3295830078125,0.9604992270469666,-9.729350090026855,-0.766528844833374
1766400722395593000,9.339593017578125,0.9651105403900146,-9.728861808776855,-0.7669429779052734
1766400722405633300,9.34963330078125,0.9728420376777649,-9.72810173034668,-0.7667974829673767
1766400722425683200,9.36968310546875,0.9923942685127258,-9.725942611694336,-0.7691487073898315
1766400722435693000,9.379693115234375,1.0022013187408447,-9.724776268005371,-0.7711907029151917
1766400722445733400,9.3897333984375,1.0030804872512817,-9.724702835083008,-0.7709496021270752
1766400722465814000,9.40981396484375,1.0047188997268677,-9.724617004394531,-0.7699109315872192
1766400722475823600,9.41982373046875,1.0103899240493774,-9.724034309387207,-0.7698454260826111
1766400722485864000,9.429864013671875,1.019300937652588,-9.723038673400879,-0.7706888914108276
1766400722495873800,9.439873779296875,1.0274240970611572,-9.721953392028809,-0.7735913395881653
1766400722505883400,9.44988330078125,1.0300427675247192,-9.721320152282715,-0.7780308127403259
1766400722515893200,9.459893310546875,1.0241279602050781,-9.721592903137207,-0.7824208736419678
1766400722525933600,9.46993359375,1.0046195983886719,-9.723427772521973,-0.7848927974700928
1766400722535943200,9.479943115234375,0.9950824975967407,-9.724405288696289,-0.7849372029304504
1766400722545953000,9.489953125,0.9841051697731018,-9.725427627563477,-0.7861273288726807
1766400722576043300,9.520043212890625,0.9871622323989868,-9.725003242492676,-0.7875380516052246
1766400722586053000,9.53005322265625,0.9893126487731934,-9.724969863891602,-0.7852318286895752
1766400722596063000,9.54006298828125,0.9922633171081543,-9.724849700927734,-0.7830278873443604
1766400722606103300,9.550103271484375,0.9923644661903381,-9.725057601928711,-0.7803089618682861
1766400722616113000,9.56011279296875,0.9952683448791504,-9.724876403808594,-0.7788689732551575
1766400722626122800,9.570122802734375,0.9961673617362976,-9.72491455078125,-0.7772334814071655
1766400722636132600,9.580132568359375,0.9962234497070312,-9.724879264831543,-0.7776029109954834
1766400722646203400,9.590203369140625,0.9901573061943054,-9.72557544708252,-0.7766431570053101
1766400722656182500,9.6001826171875,0.9909393787384033,-9.72547435760498,-0.7769263386726379
1766400722666192400,9.6101923828125,0.9963994026184082,-9.72478199005127,-0.77857905626297
1766400722676202000,9.620201904296875,1.0017752647399902,-9.724160194396973,-0.7794555425643921
1766400722686242300,9.6302421875,1.006508708000183,-9.723587036132812,-0.7805138230323792
1766400722696252200,9.640252197265625,1.0127081871032715,-9.722813606262207,-0.7821344137191772
1766400722706292500,9.65029248046875,1.0069961547851562,-9.723409652709961,-0.7821072340011597
1766400722716302000,9.660302001953125,0.9920722246170044,-9.72481632232666,-0.7836904525756836
1766400722726312000,9.67031201171875,0.9668003916740417,-9.72730827331543,-0.7843260765075684
1766400722736291000,9.680291015625,0.9128350019454956,-9.732462882995605,-0.785053551197052
1766400722746331400,9.690331298828125,0.8638099431991577,-9.736741065979004,-0.7874687910079956
1766400722766351000,9.71035107421875,0.8182523250579834,-9.740248680114746,-0.7927241921424866
1766400722776360700,9.720360595703125,0.8088976740837097,-9.740442276000977,-0.7999261021614075
1766400722786370600,9.73037060546875,0.8092699646949768,-9.739986419677734,-0.805075466632843
1766400722796380400,9.74038037109375,0.8061398863792419,-9.739858627319336,-0.8097513318061829
1766400722806420500,9.75042041015625,0.7809125185012817,-9.741607666015625,-0.8134297132492065
1766400722816430300,9.760430419921875,0.7655717134475708,-9.742727279663086,-0.8145943880081177
1766400722826501000,9.770501220703125,0.7401368021965027,-9.744231224060059,-0.8200912475585938
1766400722836480500,9.78048046875,0.7222715020179749,-9.744841575622559,-0.8287143707275391
1766400722866509800,9.810509765625,0.7371218800544739,-9.741110801696777,-0.8589499592781067
1766400722876580600,9.82058056640625,0.7423784732818604,-9.740139961242676,-0.8654142022132874
1766400722886590200,9.830590087890625,0.7397148013114929,-9.739715576171875,-0.8724331259727478
1766400722896600000,9.84060009765625,0.7300269603729248,-9.740457534790039,-0.8723176717758179
1766400722906610000,9.85060986328125,0.732833206653595,-9.739819526672363,-0.8770753741264343
1766400722916619500,9.86061962890625,0.7325432896614075,-9.739701271057129,-0.8786296248435974
1766400722926629400,9.87062939453125,0.7330489158630371,-9.73913288116455,-0.8844888806343079
1766400722936639000,9.880638916015625,0.7319932579994202,-9.738754272460938,-0.8895283341407776
1766400722946648800,9.89064892578125,0.7382038235664368,-9.738329887390137,-0.8890417218208313
1766400722976678100,9.92067822265625,0.7728244662284851,-9.735793113708496,-0.887392520904541
1766400722986688000,9.93068798828125,0.764743447303772,-9.737010955810547,-0.8810176849365234
1766400722996697600,9.940697509765625,0.7706804275512695,-9.736525535583496,-0.8812307715415955
1766400723006707500,9.95070751953125,0.7680793404579163,-9.737003326416016,-0.8781868815422058
1766400723016717300,9.96071728515625,0.7672650814056396,-9.737359046936035,-0.874955952167511
1766400723026757400,9.97075732421875,0.7782353758811951,-9.736547470092773,-0.8742880821228027
1766400723036767200,9.980767333984375,0.8067349195480347,-9.734128952026367,-0.8754063248634338
1766400723046777000,9.990777099609375,0.8160563111305237,-9.733427047729492,-0.8745616674423218
1766400723056786700,10.00078662109375,0.8297370076179504,-9.732263565063477,-0.8746122121810913
1766400723086816000,10.03081591796875,0.8068366050720215,-9.734561920166016,-0.870474100112915
1766400723096825900,10.040825927734375,0.7951286435127258,-9.735995292663574,-0.8651946783065796
1766400723106835700,10.050835693359375,0.7967074513435364,-9.736111640930176,-0.8624445199966431
1766400723116845300,10.06084521484375,0.8184545636177063,-9.734655380249023,-0.8585031032562256
1766400723126855200,10.070855224609375,0.8315116167068481,-9.733888626098633,-0.854634702205658
1766400723136865000,10.080864990234375,0.836706280708313,-9.733634948730469,-0.8524457216262817
1766400723146874600,10.09087451171875,0.8377543091773987,-9.733733177185059,-0.8503043055534363
1766400723156884500,10.100884521484375,0.8351865410804749,-9.734186172485352,-0.8476303815841675
1766400723186913800,10.130913818359375,0.8114677667617798,-9.736947059631348,-0.8389111161231995
1766400723206963700,10.150963623046875,0.8159230351448059,-9.737855911254883,-0.8239157795906067
1766400723216973600,10.1609736328125,0.8257657885551453,-9.737502098083496,-0.8182783722877502
1766400723226983400,10.1709833984375,0.8341904878616333,-9.737069129943848,-0.8148682713508606
1766400723237023500,10.1810234375,0.8388918042182922,-9.73677921295166,-0.8135121464729309
1766400723247063800,10.191063720703125,0.8411772847175598,-9.73653793334961,-0.814031183719635
1766400723257073700,10.20107373046875,0.839324951171875,-9.736668586730957,-0.8143813610076904
1766400723267083500,10.21108349609375,0.8283212780952454,-9.73764419555664,-0.8139747977256775
1766400723297143300,10.241143310546875,0.8052677512168884,-9.73961353302002,-0.8135483860969543
1766400723327233500,10.271233642578125,0.7961655855178833,-9.740839958190918,-0.807798445224762
1766400723337213000,10.281212890625,0.7979220747947693,-9.740839958190918,-0.8060726523399353
1766400723347253000,10.2912529296875,0.7989327311515808,-9.741055488586426,-0.802462637424469
1766400723357262800,10.301262939453125,0.8003548383712769,-9.74102783203125,-0.8013687133789062
1766400723367272700,10.311272705078125,0.8060972094535828,-9.740549087524414,-0.8014435172080994
1766400723397302000,10.341302001953125,0.8033388257026672,-9.74068546295166,-0.8025602698326111
1766400723407311600,10.3513115234375,0.7975573539733887,-9.741303443908691,-0.8008213043212891
1766400723417321500,10.361321533203125,0.7971808910369873,-9.741562843322754,-0.79803866147995
1766400723427331300,10.371331298828125,0.8013906478881836,-9.741445541381836,-0.7952277064323425
1766400723437341000,10.3813408203125,0.8091793656349182,-9.740999221801758,-0.7928338050842285
1766400723447381200,10.39138134765625,0.8145254254341125,-9.740602493286133,-0.7922253012657166
1766400723457360600,10.401360595703125,0.8192711472511292,-9.740443229675293,-0.7892901301383972
1766400723467400700,10.411400634765625,0.8200146555900574,-9.740400314331055,-0.7890356183052063
1766400723477410600,10.42141064453125,0.8171417713165283,-9.740689277648926,-0.7884417176246643
1766400723497460700,10.441460693359375,0.8067460060119629,-9.74184799194336,-0.7848355174064636
1766400723537499600,10.481499755859375,0.8145481944084167,-9.742288589477539,-0.7711927890777588
1766400723547540000,10.4915400390625,0.8218763470649719,-9.741859436035156,-0.7688248753547668
1766400723557549800,10.5015498046875,0.8264017105102539,-9.741528511047363,-0.7681810259819031
1766400723567590100,10.511590087890625,0.8326993584632874,-9.741151809692383,-0.7661415934562683
1766400723577599700,10.521599853515625,0.8375239968299866,-9.740860939025879,-0.7645882368087769
1766400723587609600,10.531609619140625,0.841217041015625,-9.740596771240234,-0.7638801336288452
1766400723597619200,10.541619140625,0.8448527455329895,-9.740171432495117,-0.7653074860572815
1766400723607629000,10.551629150390625,0.8459849953651428,-9.7400541305542,-0.7655342817306519
1766400723617639000,10.561638916015625,0.8448036313056946,-9.740234375,-0.764567494392395
1766400723627648500,10.5716484375,0.8422200679779053,-9.740478515625,-0.7642918825149536
1766400723637658400,10.581658447265625,0.8403934240341187,-9.7407865524292,-0.7623860836029053
1766400723647668200,10.591668212890625,0.8421727418899536,-9.740849494934082,-0.7596052289009094
1766400723657677800,10.601677734375,0.8527140021324158,-9.739971160888672,-0.7590919733047485
1766400723667687700,10.611687744140625,0.8566974997520447,-9.739609718322754,-0.759245753288269
1766400723677697500,10.621697509765625,0.8579776287078857,-9.739336967468262,-0.7613078951835632
1766400723737786600,10.68178662109375,0.8626760244369507,-9.737935066223145,-0.7738351225852966
1766400723747796200,10.691796142578125,0.8679209351539612,-9.737491607666016,-0.7735349535942078
1766400723757806000,10.70180615234375,0.8701105117797852,-9.73717975616455,-0.7749845385551453
1766400723767816000,10.71181591796875,0.8705752491950989,-9.737190246582031,-0.7743480205535889
1766400723777825500,10.721825439453125,0.8679986596107483,-9.737411499023438,-0.7744529247283936
1766400723807885300,10.75188525390625,0.8612468242645264,-9.737594604492188,-0.7796823382377625
1766400723817895200,10.761895263671875,0.8626169562339783,-9.737373352050781,-0.7809323668479919
1766400723827935500,10.771935546875,0.8635615706443787,-9.737269401550293,-0.7811740636825562
1766400723837945300,10.7819453125,0.8660376071929932,-9.73699951171875,-0.7817933559417725
1766400723847985400,10.7919853515625,0.8672966361045837,-9.736952781677246,-0.7809849977493286
1766400723857995300,10.801995361328125,0.8691390752792358,-9.736807823181152,-0.7807511687278748
1766400723868035600,10.81203564453125,0.8720183968544006,-9.73664379119873,-0.7795917391777039
1766400723878045400,10.82204541015625,0.8736077547073364,-9.736529350280762,-0.7792314291000366
1766400723908074800,10.85207470703125,0.8718553185462952,-9.736552238464355,-0.7809200882911682
1766400723928094200,10.87209423828125,0.8717454671859741,-9.736468315124512,-0.7820841670036316
1766400723948113700,10.89211376953125,0.8722966313362122,-9.735919952392578,-0.7882680892944336
1766400723958123500,10.90212353515625,0.8750333786010742,-9.735400199890137,-0.7916387319564819
1766400723968163800,10.912163818359375,0.876202404499054,-9.734892845153809,-0.796567440032959
1766400723978173400,10.92217333984375,0.8749766945838928,-9.734687805175781,-0.8004375696182251
1766400723988213800,10.9322138671875,0.8710176944732666,-9.734753608703613,-0.8039137125015259
1766400724008233200,10.952233154296875,0.8691273927688599,-9.734557151794434,-0.8083183765411377
1766400724018243000,10.9622431640625,0.8735826015472412,-9.73384952545166,-0.8120663166046143
1766400724028253000,10.9722529296875,0.8765116333961487,-9.733433723449707,-0.8138611316680908
1766400724038262500,10.982262451171875,0.8761509656906128,-9.733186721801758,-0.8172218203544617
1766400724048272400,10.9922724609375,0.872397780418396,-9.733370780944824,-0.8190294504165649
1766400724058282200,11.0022822265625,0.8681430220603943,-9.73363208770752,-0.820451021194458
1766400724068291800,11.012291748046875,0.8644658327102661,-9.733621597290039,-0.8244462013244629
1766400724078301700,11.0223017578125,0.8603677153587341,-9.734003067016602,-0.8242208957672119
1766400724088342000,11.032342041015625,0.8576532006263733,-9.734201431274414,-0.8246978521347046
1766400724118401800,11.06240185546875,0.867272675037384,-9.733099937438965,-0.8276511430740356
1766400724128411600,11.07241162109375,0.8801970481872559,-9.731606483459473,-0.8315274119377136
1766400724138421200,11.082421142578125,0.885668158531189,-9.731085777282715,-0.83185213804245
1766400724148461600,11.092461669921875,0.8873457312583923,-9.730647087097168,-0.8351899981498718
1766400724158441000,11.10244091796875,0.883479118347168,-9.730666160583496,-0.8390405774116516
1766400724168481000,11.11248095703125,0.8772247433662415,-9.730987548828125,-0.8418871760368347
1766400724178521300,11.122521240234375,0.8718810677528381,-9.731295585632324,-0.8438616991043091
1766400724188561700,11.132561767578125,0.8700035810470581,-9.73135757446289,-0.8450766205787659
1766400724198541000,11.142541015625,0.8766980767250061,-9.730583190917969,-0.8470637202262878
1766400724228661800,11.172661865234375,0.8921090364456177,-9.728334426879883,-0.8567696809768677
1766400724238641200,11.18264111328125,0.8820680975914001,-9.72864818572998,-0.8635621070861816
1766400724248650800,11.192650634765625,0.8758306503295898,-9.728965759277344,-0.866344153881073
1766400724258660600,11.20266064453125,0.8645862340927124,-9.729342460632324,-0.8733716011047363
1766400724268701000,11.212700927734375,0.8551263213157654,-9.729837417602539,-0.8771765232086182
1766400724278710500,11.22271044921875,0.8502525687217712,-9.729832649230957,-0.8819512128829956
1766400724288720400,11.232720458984375,0.849835216999054,-9.729229927062988,-0.8889566659927368
1766400724298760700,11.2427607421875,0.8456418514251709,-9.728562355041504,-0.9002031683921814
1766400724328820500,11.272820556640625,0.818475604057312,-9.728955268859863,-0.9208148717880249
1766400724338830300,11.282830322265625,0.8167396187782288,-9.728538513183594,-0.9267539381980896
1766400724348870700,11.29287060546875,0.8011223077774048,-9.729181289672852,-0.9336115121841431
1766400724358880300,11.30288037109375,0.7680857181549072,-9.731345176696777,-0.9388064742088318
1766400724368890000,11.31289013671875,0.7593278288841248,-9.73182201385498,-0.9409867525100708
1766400724378899700,11.322899658203125,0.737038254737854,-9.733322143554688,-0.9431988596916199
1766400724388940000,11.33293994140625,0.7295107841491699,-9.733922004699707,-0.9428604245185852
1766400724398950000,11.342949951171875,0.7194564342498779,-9.734676361083984,-0.9427990317344666
1766400724408990200,11.352990234375,0.7143535614013672,-9.735132217407227,-0.9419684410095215
1766400724418999800,11.362999755859375,0.7095137238502502,-9.735612869262695,-0.9406687617301941
1766400724459069400,11.4030693359375,0.723176896572113,-9.733628273010254,-0.9507432579994202
1766400724469079300,11.413079345703125,0.7035077810287476,-9.734419822692871,-0.9573454856872559
1766400724489160000,11.433159912109375,0.6841881275177002,-9.735077857971191,-0.96463942527771
1766400724499200000,11.443199951171875,0.6822890043258667,-9.73480224609375,-0.9687684774398804
1766400724509209900,11.4532099609375,0.6935866475105286,-9.733559608459473,-0.9732184410095215
1766400724519189200,11.463189208984375,0.7141729593276978,-9.73154067993164,-0.9784946441650391
1766400724539239200,11.4832392578125,0.7437994480133057,-9.72902774810791,-0.9814093708992004
1766400724549279500,11.493279541015625,0.7447165846824646,-9.728898048400879,-0.9820044040679932
1766400724559228200,11.503228271484375,0.7743033170700073,-9.726734161376953,-0.9805524349212646
1766400724569268500,11.5132685546875,0.8097311854362488,-9.723779678344727,-0.9812433123588562
1766400724579278300,11.5232783203125,0.8486778736114502,-9.719785690307617,-0.987891674041748
1766400724589288000,11.533287841796875,0.8519319295883179,-9.719276428222656,-0.9900792837142944
1766400724599267300,11.543267333984375,0.8696849942207336,-9.717087745666504,-0.996117353439331
1766400724609307600,11.5533076171875,0.8866934180259705,-9.714735984802246,-1.004040241241455
1766400724619317200,11.563317138671875,0.9047492742538452,-9.712081909179688,-1.0135554075241089
1766400724639337000,11.5833369140625,0.9312041997909546,-9.707193374633789,-1.03617262840271
1766400724649346600,11.5933466796875,0.9321879148483276,-9.70590591430664,-1.047296404838562
1766400724659356400,11.6033564453125,0.931235134601593,-9.704880714416504,-1.0575830936431885
1766400724669366000,11.613365966796875,0.9305395483970642,-9.704056739807129,-1.0657219886779785
1766400724679376000,11.6233759765625,0.9336889982223511,-9.702202796936035,-1.0797566175460815
1766400724689416200,11.633416259765625,0.9330974221229553,-9.702038764953613,-1.0817501544952393
1766400724699426000,11.643426025390625,0.9378443360328674,-9.700950622558594,-1.0873796939849854
1766400724709466000,11.653466064453125,0.9654945731163025,-9.697103500366211,-1.097455382347107
1766400724719476000,11.66347607421875,0.9770488142967224,-9.695483207702637,-1.1015294790267944
1766400724759515100,11.70351513671875,1.0187615156173706,-9.68838119506836,-1.1259715557098389
1766400724769524700,11.713524658203125,1.032331109046936,-9.68652057647705,-1.1296025514602661
1766400724779534600,11.72353466796875,1.0422042608261108,-9.685362815856934,-1.1304585933685303
1766400724789544400,11.73354443359375,1.0573521852493286,-9.683686256408691,-1.1307587623596191
1766400724799523600,11.743523681640625,1.0642448663711548,-9.683079719543457,-1.1294918060302734
1766400724809594400,11.753594482421875,1.0673598051071167,-9.682873725891113,-1.1283049583435059
1766400724819573800,11.76357373046875,1.0723165273666382,-9.682365417480469,-1.1279796361923218
1766400724829613800,11.77361376953125,1.0791876316070557,-9.681717872619629,-1.1269856691360474
1766400724839623700,11.783623779296875,1.0794248580932617,-9.681329727172852,-1.1300796270370483
1766400724869714000,11.8137138671875,1.0984622240066528,-9.678532600402832,-1.1356889009475708
1766400724879723800,11.823723876953125,1.1080471277236938,-9.677453994750977,-1.1355594396591187
1766400724889764000,11.83376416015625,1.10674250125885,-9.678071975708008,-1.1315677165985107
1766400724899774000,11.84377392578125,1.0988363027572632,-9.679669380187988,-1.1255851984024048
1766400724909783600,11.853783447265625,1.0936871767044067,-9.6809663772583,-1.1194356679916382
1766400724919763000,11.863762939453125,1.0907295942306519,-9.681816101074219,-1.1149585247039795
1766400724929803300,11.87380322265625,1.086579442024231,-9.683938026428223,-1.1004934310913086
1766400724969872600,11.91387255859375,1.054360032081604,-9.692346572875977,-1.0569459199905396
1766400724989892400,11.933892333984375,1.0329554080963135,-9.69554615020752,-1.0487065315246582
1766400724999902000,11.94390185546875,1.0181891918182373,-9.697281837463379,-1.047106146812439
1766400725009942300,11.9539423828125,1.0041712522506714,-9.69867992401123,-1.0476771593093872
1766400725019952000,11.9639521484375,0.9948469400405884,-9.699776649475098,-1.0464341640472412
1766400725050012000,11.994011962890625,0.9775328040122986,-9.702451705932617,-1.037900447845459
1766400725060052200,12.00405224609375,0.9797937273979187,-9.702391624450684,-1.0363433361053467
1766400725070123000,12.014123046875,0.9813567399978638,-9.702195167541504,-1.036703109741211
1766400725080102100,12.02410205078125,0.9774971604347229,-9.702731132507324,-1.0353262424468994
1766400725090112000,12.034112060546875,0.9639280438423157,-9.704192161560059,-1.0343594551086426
1766400725100121900,12.044121826171875,0.9424895644187927,-9.706058502197266,-1.036608099937439
1766400725110131500,12.05413134765625,0.9148556590080261,-9.708298683166504,-1.0403776168823242
1766400725120141300,12.064141357421875,0.9014484882354736,-9.709161758422852,-1.04401695728302
1766400725130151200,12.074151123046875,0.8705705404281616,-9.711780548095703,-1.0458520650863647
1766400725140160800,12.084160888671875,0.8587117791175842,-9.712682723999023,-1.0472919940948486
1766400725180200000,12.124199951171875,0.8635083436965942,-9.711569786071777,-1.0536445379257202
1766400725190240300,12.134240234375,0.8560779094696045,-9.710932731628418,-1.0655258893966675
1766400725200249900,12.144249755859375,0.8319681286811829,-9.712584495544434,-1.0695494413375854
1766400725210290200,12.154290283203125,0.8098311424255371,-9.714059829711914,-1.0731254816055298
1766400725230309600,12.1743095703125,0.8139309883117676,-9.71231746673584,-1.0857044458389282
1766400725240319500,12.184319580078125,0.8267974853515625,-9.710612297058105,-1.0912541151046753
1766400725270409700,12.21440966796875,0.8295090794563293,-9.708826065063477,-1.1049846410751343
1766400725280419600,12.224419677734375,0.8161503672599792,-9.709409713745117,-1.1098028421401978
1766400725290460000,12.2344599609375,0.8186019062995911,-9.70899486541748,-1.111619234085083
1766400725300469800,12.2444697265625,0.8252701163291931,-9.708365440368652,-1.1122016906738281
1766400725310509800,12.254509765625,0.8381524085998535,-9.70695686340332,-1.1148443222045898
1766400725320519700,12.264519775390625,0.8499392867088318,-9.705202102661133,-1.1211878061294556
1766400725330590500,12.274590576171875,0.8478302955627441,-9.704987525939941,-1.1246399879455566
1766400725340600300,12.284600341796875,0.8457359671592712,-9.704700469970703,-1.128679871559143
1766400725350671000,12.294671142578125,0.8473281860351562,-9.704291343688965,-1.1310019493103027
1766400725380731000,12.32473095703125,0.851398229598999,-9.700462341308594,-1.1604089736938477
1766400725390771200,12.334771240234375,0.8496861457824707,-9.699813842773438,-1.167065143585205
1766400725400781000,12.344781005859375,0.8497154116630554,-9.699503898620605,-1.1696070432662964
1766400725410821000,12.354821044921875,0.8543810248374939,-9.698882102966309,-1.171373724937439
1766400725420861400,12.364861328125,0.8566074967384338,-9.698906898498535,-1.1695362329483032
1766400725430871300,12.374871337890625,0.859439492225647,-9.698763847351074,-1.1686594486236572
1766400725440911600,12.38491162109375,0.8590928912162781,-9.698863983154297,-1.1680757999420166
1766400725450952000,12.394951904296875,0.8599258065223694,-9.698530197143555,-1.1702321767807007
1766400725491052000,12.435052001953125,0.8606143593788147,-9.695664405822754,-1.1932371854782104
1766400725501061600,12.4450615234375,0.8423334956169128,-9.696675300598145,-1.198058009147644
1766400725511102000,12.45510205078125,0.8278601169586182,-9.697722434997559,-1.199684977531433
1766400725521111800,12.46511181640625,0.8337216973304749,-9.697070121765137,-1.2008947134017944
1766400725531152100,12.475152099609375,0.8593330979347229,-9.694315910339355,-1.2050734758377075
1766400725541161700,12.48516162109375,0.8860153555870056,-9.691954612731934,-1.2047388553619385
1766400725551171600,12.495171630859375,0.8991793990135193,-9.691320419311523,-1.2000722885131836
1766400725581261800,12.52526171875,0.9287438988685608,-9.690679550170898,-1.1826056241989136
1766400725591271700,12.535271728515625,0.9312690496444702,-9.69178581237793,-1.171492338180542
1766400725601281500,12.545281494140625,0.9279606342315674,-9.693622589111328,-1.158873438835144
1766400725611291100,12.555291015625,0.9223124384880066,-9.695516586303711,-1.1474738121032715
1766400725621301000,12.565301025390625,0.917996883392334,-9.696394920349121,-1.1434966325759888
1766400725631310800,12.575310791015625,0.9183990359306335,-9.69653606414795,-1.1419932842254639
1766400725641320400,12.585320556640625,0.926571249961853,-9.695735931396484,-1.142180323600769
1766400725651330300,12.595330322265625,0.9318746328353882,-9.695100784301758,-1.1432461738586426
1766400725661340000,12.60533984375,0.9326531887054443,-9.695094108581543,-1.1426695585250854
1766400725711419400,12.65541943359375,0.9678689241409302,-9.692859649658203,-1.1322957277297974
1766400725721429200,12.66542919921875,0.9705138802528381,-9.692765235900879,-1.1308391094207764
1766400725731500000,12.6755,0.9799644351005554,-9.692134857177734,-1.1280837059020996
1766400725741479200,12.685479248046875,0.9831365942955017,-9.691915512084961,-1.1272016763687134
1766400725751519500,12.69551953125,0.9826637506484985,-9.692200660705566,-1.125180721282959
1766400725761529300,12.705529296875,0.9811772704124451,-9.692533493041992,-1.1235969066619873
1766400725781579300,12.725579345703125,0.983548104763031,-9.692437171936035,-1.1223562955856323
1766400725791619600,12.73561962890625,0.9866326451301575,-9.692038536071777,-1.1230965852737427
1766400725801629400,12.74562939453125,0.9942758679389954,-9.691283226013184,-1.1228718757629395
1766400725811669500,12.75566943359375,1.0028016567230225,-9.690550804138184,-1.1216033697128296
1766400725821679400,12.765679443359375,1.0095465183258057,-9.690232276916504,-1.1183019876480103
1766400725831689200,12.775689208984375,1.010218620300293,-9.690534591674805,-1.115086317062378
1766400725841729500,12.7857294921875,1.011212944984436,-9.690874099731445,-1.111215353012085
1766400725851739100,12.7957392578125,1.010956883430481,-9.691231727600098,-1.1083303689956665
1766400725861749000,12.8057490234375,1.0111076831817627,-9.692117691040039,-1.100420594215393
1766400725911889400,12.855889404296875,1.0006669759750366,-9.696106910705566,-1.074512243270874
1766400725931908900,12.875908935546875,0.9778121709823608,-9.700057983398438,-1.059787631034851
1766400725941918700,12.885918701171875,0.9704781770706177,-9.702532768249512,-1.0437544584274292
1766400725951928300,12.89592822265625,0.9700953364372253,-9.703657150268555,-1.0336240530014038
1766400725961938200,12.905938232421875,0.9852473139762878,-9.704500198364258,-1.0111103057861328
1766400725971978500,12.915978515625,1.000166654586792,-9.704254150390625,-0.9987673163414001
1766400726002007800,12.9460078125,1.0037357807159424,-9.70720100402832,-0.9660007357597351
1766400726012017400,12.956017333984375,0.9848697185516357,-9.71177864074707,-0.9390449523925781
1766400726022027300,12.96602734375,0.9821025729179382,-9.713849067687988,-0.9203247427940369
1766400726032098000,12.97609814453125,0.983715295791626,-9.714639663696289,-0.9101999402046204
1766400726042077400,12.986077392578125,1.0027601718902588,-9.714518547058105,-0.8905118107795715
1766400726052087000,12.996087158203125,1.0316694974899292,-9.714127540588379,-0.8612877726554871
1766400726062097000,13.006096923828125,1.0437041521072388,-9.713653564453125,-0.8520707488059998
1766400726072106500,13.0161064453125,1.0611639022827148,-9.713848114013672,-0.8279334902763367
1766400726092156700,13.03615673828125,1.0645142793655396,-9.714789390563965,-0.8124465942382812
1766400726122216400,13.066216552734375,1.0193653106689453,-9.719937324523926,-0.8087655305862427
1766400726132226300,13.076226318359375,1.0196073055267334,-9.719612121582031,-0.8123778700828552
1766400726142236000,13.08623583984375,1.0303268432617188,-9.71821117401123,-0.815594494342804
1766400726152245800,13.096245849609375,1.0414245128631592,-9.716440200805664,-0.822576642036438
1766400726162255600,13.106255615234375,1.0474275350570679,-9.71550464630127,-0.8259931802749634
1766400726172296000,13.1162958984375,1.0658669471740723,-9.713226318359375,-0.8291975259780884
1766400726182305500,13.126305419921875,1.0874427556991577,-9.710298538208008,-0.8354334831237793
1766400726212334800,13.1563349609375,1.0800561904907227,-9.707456588745117,-0.8770014643669128
1766400726222344700,13.1663447265625,1.0610194206237793,-9.708587646484375,-0.8876830339431763
1766400726232385000,13.176385009765625,1.0508744716644287,-9.709178924560547,-0.8932538032531738
1766400726242425300,13.18642529296875,1.037294864654541,-9.709701538085938,-0.9033955335617065
1766400726252496100,13.19649609375,1.0393856763839722,-9.70895004272461,-0.9090356230735779
1766400726262505700,13.206505615234375,1.0429606437683105,-9.70814037322998,-0.913581132888794
1766400726272515600,13.216515625,1.046241044998169,-9.707403182983398,-0.9176602363586426
1766400726282525400,13.226525390625,1.0485446453094482,-9.7068510055542,-0.9208660125732422
1766400726302575400,13.246575439453125,1.040389895439148,-9.706979751586914,-0.9287281632423401
1766400726342645000,13.28664501953125,0.9856652617454529,-9.711288452148438,-0.9432564377784729
1766400726352654600,13.296654541015625,0.9644172787666321,-9.712872505187988,-0.9489037990570068
1766400726362634000,13.306634033203125,0.9492413401603699,-9.713966369628906,-0.9530036449432373
1766400726372643800,13.316643798828125,0.9358516931533813,-9.71465015411377,-0.9592445492744446
1766400726382653400,13.3266533203125,0.928898811340332,-9.714683532714844,-0.9656535387039185
1766400726392663300,13.336663330078125,0.9247943162918091,-9.714309692382812,-0.9733186960220337
1766400726422692600,13.366692626953125,0.8918202519416809,-9.715076446533203,-0.9961553812026978
1766400726452813300,13.396813232421875,0.8690730333328247,-9.71474838256836,-1.0192006826400757
1766400726462823200,13.4068232421875,0.8679746985435486,-9.714178085327148,-1.025564432144165
1766400726472833000,13.4168330078125,0.8750123381614685,-9.712642669677734,-1.034078598022461
1766400726482842600,13.426842529296875,0.8850491642951965,-9.710498809814453,-1.0456079244613647
1766400726492852500,13.4368525390625,0.8879881501197815,-9.708771705627441,-1.0590838193893433
1766400726502862300,13.4468623046875,0.8774223327636719,-9.708577156066895,-1.069615125656128
1766400726512902400,13.45690234375,0.8559247851371765,-9.709432601928711,-1.0792142152786255
1766400726542993000,13.486992919921875,0.8219733834266663,-9.707468032836914,-1.1224112510681152
1766400726553002500,13.49700244140625,0.8255752325057983,-9.705747604370117,-1.134588599205017
1766400726563012400,13.507012451171875,0.8295605182647705,-9.704168319702148,-1.1451292037963867
1766400726573052700,13.517052734375,0.8264385461807251,-9.703142166137695,-1.156050443649292
1766400726583031800,13.52703173828125,0.8182154893875122,-9.702759742736816,-1.1650749444961548
1766400726593072000,13.537072021484375,0.8099690675735474,-9.702457427978516,-1.1733096837997437
1766400726603082000,13.54708203125,0.806964635848999,-9.701780319213867,-1.1809628009796143
1766400726613122300,13.557122314453125,0.8074796199798584,-9.700990676879883,-1.187069296836853
1766400726653161200,13.5971611328125,0.7890057563781738,-9.699026107788086,-1.2152200937271118
1766400726663171000,13.607171142578125,0.7802665829658508,-9.699186325073242,-1.2195707559585571
1766400726673181000,13.617180908203125,0.7711129784584045,-9.699183464050293,-1.2254083156585693
1766400726683190500,13.6271904296875,0.7623246908187866,-9.699159622192383,-1.231093168258667
1766400726693230800,13.63723095703125,0.7468103170394897,-9.698929786682129,-1.242342233657837
1766400726703240700,13.64724072265625,0.7429770231246948,-9.698648452758789,-1.246835470199585
1766400726713250300,13.657250244140625,0.7394751310348511,-9.697473526000977,-1.2580150365829468
1766400726743310300,13.687310302734375,0.7470341920852661,-9.69120979309082,-1.3010706901550293
1766400726753320000,13.69731982421875,0.7416074872016907,-9.690218925476074,-1.3115168809890747
1766400726763329800,13.707329833984375,0.7343132495880127,-9.689308166503906,-1.322313904762268
1766400726773370000,13.7173701171875,0.7315636277198792,-9.688838958740234,-1.3272621631622314
1766400726783410400,13.727410400390625,0.7273229360580444,-9.68786334991455,-1.3366665840148926
1766400726793420000,13.737419921875,0.7201982140541077,-9.687261581420898,-1.3448781967163086
1766400726803460400,13.74746044921875,0.7121002078056335,-9.686898231506348,-1.3517855405807495
1766400726813500700,13.757500732421875,0.7042758464813232,-9.686546325683594,-1.3583730459213257
1766400726823541000,13.767541015625,0.6936714053153992,-9.686232566833496,-1.3660627603530884
1766400726833550600,13.777550537109375,0.6689531803131104,-9.685954093933105,-1.3802950382232666
1766400726873620200,13.8176201171875,0.6242693662643433,-9.684185028076172,-1.4132362604141235
1766400726883660500,13.82766064453125,0.6264023184776306,-9.682732582092285,-1.4222174882888794
1766400726893670400,13.83767041015625,0.6291016340255737,-9.680964469909668,-1.43302583694458
1766400726903680000,13.847679931640625,0.6305015683174133,-9.678940773010254,-1.4460221529006958
1766400726913689900,13.85768994140625,0.6287246346473694,-9.676935195922852,-1.4601447582244873
1766400726923699700,13.86769970703125,0.6228098273277283,-9.675068855285645,-1.474981665611267
1766400726933709300,13.877709228515625,0.6159089803695679,-9.673001289367676,-1.491337776184082
1766400726943719200,13.88771923828125,0.6067577004432678,-9.670331954956055,-1.5122566223144531
1766400726973779000,13.917779052734375,0.5814321041107178,-9.662811279296875,-1.5692121982574463
1766400726983788800,13.927788818359375,0.5763952732086182,-9.660113334655762,-1.5875822305679321
1766400726993798400,13.93779833984375,0.5719131827354431,-9.657247543334961,-1.606508493423462
1766400727003838700,13.947838623046875,0.564708948135376,-9.652145385742188,-1.6393910646438599
1766400727013848600,13.9578486328125,0.5613701343536377,-9.650538444519043,-1.64995539188385
1766400727023858400,13.9678583984375,0.5503987073898315,-9.647239685058594,-1.6727946996688843
1766400727033868000,13.977867919921875,0.5341764688491821,-9.643656730651855,-1.6985116004943848
1766400727043938800,13.987938720703125,0.5033417344093323,-9.638166427612305,-1.7386212348937988
1766400727053979100,13.997979248046875,0.49177756905555725,-9.636442184448242,-1.751440405845642
1766400727074029300,14.018029296875,0.4405062198638916,-9.625509262084961,-1.823717713356018
1766400727084039000,14.028038818359375,0.42958033084869385,-9.62331485748291,-1.8378455638885498
1766400727094109700,14.038109619140625,0.4098328649997711,-9.618512153625488,-1.8672552108764648
1766400727104119600,14.04811962890625,0.38408350944519043,-9.614152908325195,-1.8949840068817139
1766400727114129400,14.05812939453125,0.3557271659374237,-9.60909652709961,-1.925903558731079
1766400727124200200,14.0682001953125,0.3091431260108948,-9.60087776184082,-1.9743331670761108
1766400727134240500,14.078240478515625,0.2934644818305969,-9.597858428955078,-1.991334319114685
1766400727164330800,14.108330810546875,0.1891191452741623,-9.578980445861816,-2.0923144817352295
1766400727174371000,14.11837109375,0.14156009256839752,-9.572267532348633,-2.126512050628662
1766400727184380700,14.128380615234375,0.09129589051008224,-9.565191268920898,-2.1608264446258545
1766400727194390500,14.138390625,0.030942251905798912,-9.558579444885254,-2.191579818725586
1766400727204400400,14.148400390625,-0.02939852885901928,-9.550827980041504,-2.2251319885253906
1766400727214410000,14.158409912109375,-0.09335107356309891,-9.543962478637695,-2.2526586055755615
1766400727224419800,14.168419921875,-0.14368601143360138,-9.536811828613281,-2.28013014793396
1766400727234460200,14.178460205078125,-0.2103670984506607,-9.524724006652832,-2.3250315189361572
1766400727244470000,14.188469970703125,-0.2350941300392151,-9.520668029785156,-2.339237689971924
1766400727274529800,14.21852978515625,-0.40921327471733093,-9.485860824584961,-2.4538586139678955
1766400727294549200,14.23854931640625,-0.47216275334358215,-9.467205047607422,-2.513859987258911
1766400727304589600,14.248589599609375,-0.5286352038383484,-9.45385456085205,-2.5525662899017334
1766400727314599400,14.258599365234375,-0.5971575379371643,-9.440041542053223,-2.588322639465332
1766400727324609000,14.268609130859375,-0.6707359552383423,-9.426112174987793,-2.620859384536743
1766400727334649300,14.2786494140625,-0.739486813545227,-9.412287712097168,-2.6518642902374268
1766400727344659200,14.2886591796875,-0.7953484058380127,-9.399395942687988,-2.6812589168548584
1766400727354699500,14.298699462890625,-0.8617478013038635,-9.380383491516113,-2.7269387245178223
1766400727384728600,14.328728515625,-0.9727186560630798,-9.346479415893555,-2.8049166202545166
1766400727394738400,14.338738525390625,-1.0199626684188843,-9.330683708190918,-2.8404994010925293
1766400727404778800,14.34877880859375,-1.098992943763733,-9.303902626037598,-2.898275852203369
1766400727414788600,14.35878857421875,-1.121720314025879,-9.293378829956055,-2.9232211112976074
1766400727424798200,14.368798095703125,-1.1596546173095703,-9.274191856384277,-2.968999147415161
1766400727434838500,14.378838623046875,-1.2093279361724854,-9.245970726013184,-3.036442279815674
1766400727444848400,14.388848388671875,-1.2208558320999146,-9.236862182617188,-3.059462547302246
1766400727454888700,14.398888671875,-1.2729378938674927,-9.211081504821777,-3.1154491901397705
1766400727484979000,14.42897900390625,-1.3965338468551636,-9.156539916992188,-3.2214696407318115
1766400727495019300,14.439019287109375,-1.4350100755691528,-9.135804176330566,-3.2631642818450928
1766400727515069200,14.459069091796875,-1.5092425346374512,-9.086844444274902,-3.3647987842559814
1766400727525079000,14.4690791015625,-1.5417741537094116,-9.05813980102539,-3.426866292953491
1766400727535149800,14.47914990234375,-1.5557260513305664,-9.04279899597168,-3.4609131813049316
1766400727545159700,14.48915966796875,-1.586117148399353,-9.012105941772461,-3.526557445526123
1766400727555169300,14.499169189453125,-1.6106951236724854,-8.978131294250488,-3.6012837886810303
1766400727565179100,14.50917919921875,-1.6343671083450317,-8.939372062683105,-3.686040163040161
1766400727585229000,14.52922900390625,-1.6848961114883423,-8.8464994430542,-3.8821334838867188
1766400727595239000,14.539239013671875,-1.705315113067627,-8.789916038513184,-3.9999547004699707
1766400727605248800,14.549248779296875,-1.7222528457641602,-8.690356254577637,-4.204989910125732
1766400727615258400,14.55925830078125,-1.7227402925491333,-8.653809547424316,-4.279506206512451
1766400727625268200,14.569268310546875,-1.701997995376587,-8.530342102050781,-4.528453826904297
1766400727635278000,14.579278076171875,-1.6900018453598022,-8.48494815826416,-4.617351055145264
1766400727645287700,14.58928759765625,-1.6351503133773804,-8.33317756652832,-4.904572486877441
1766400727655328000,14.599327880859375,-1.5855437517166138,-8.213985443115234,-5.117311954498291
1766400727665337900,14.609337890625,-1.5293495655059814,-8.07735538482666,-5.3467607498168945
1766400727705438000,14.64943798828125,-1.2910791635513306,-7.392285346984863,-6.313289642333984
1766400727715447800,14.65944775390625,-1.2575193643569946,-7.291622161865234,-6.435938358306885
1766400727725457400,14.66945751953125,-1.1845955848693848,-7.08243989944458,-6.67878532409668
1766400727735467300,14.67946728515625,-1.109257698059082,-6.860711097717285,-6.918857574462891
1766400727745507600,14.689507568359375,-0.9869354367256165,-6.51448392868042,-7.263460636138916
1766400727755517200,14.69951708984375,-0.8984440565109253,-6.277162075042725,-7.480668544769287
1766400727765527000,14.709527099609375,-0.8039052486419678,-6.040801048278809,-7.683284282684326
1766400727775567400,14.7195673828125,-0.7049754858016968,-5.8070068359375,-7.870965480804443
1766400727805627100,14.749627197265625,-0.4684399366378784,-5.25239372253418,-8.268210411071777
1766400727815637000,14.759636962890625,-0.35017654299736023,-4.957424163818359,-8.454093933105469
1766400727825646600,14.769646484375,-0.2774246037006378,-4.776728630065918,-8.560157775878906
1766400727835656400,14.779656494140625,-0.2418108582496643,-4.690638542175293,-8.608707427978516
1766400727845696800,14.78969677734375,-0.14433832466602325,-4.470398902893066,-8.727262496948242
1766400727855706400,14.799706298828125,-0.11219196766614914,-4.405464172363281,-8.76069164276123
1766400727865716200,14.80971630859375,-0.018318332731723785,-4.252888202667236,-8.836458206176758
1766400727875726000,14.81972607421875,0.011797405779361725,-4.2112956047058105,-8.856367111206055
1766400727885735700,14.829735595703125,0.07376257330179214,-4.145832538604736,-8.88690185546875
1766400727925805300,14.869805419921875,0.371660053730011,-4.02664852142334,-8.934113502502441
1766400727935815200,14.879815185546875,0.4092191159725189,-4.052154541015625,-8.920928001403809
1766400727945824800,14.88982470703125,0.47824060916900635,-4.053959369659424,-8.91667366027832
1766400727955865000,14.899864990234375,0.5128116011619568,-4.056026458740234,-8.913813591003418
1766400727965875000,14.909875,0.5918377637863159,-4.054466247558594,-8.909625053405762
1766400727975884800,14.919884765625,0.7108014225959778,-4.056887626647949,-8.899823188781738
1766400727985894400,14.929894287109375,0.7486100792884827,-4.059807777404785,-8.895387649536133
1766400727995904300,14.939904296875,0.8240706920623779,-4.066895961761475,-8.885476112365723
1766400728005975000,14.94997509765625,0.8964239358901978,-4.075662136077881,-8.874446868896484
1766400728046044700,14.990044677734375,1.1782511472702026,-4.104669094085693,-8.828011512756348
1766400728056054300,15.00005419921875,1.2035539150238037,-4.106226444244385,-8.823874473571777
1766400728066064100,15.010064208984375,1.2758523225784302,-4.102778911590576,-8.815316200256348
1766400728076074000,15.020073974609375,1.2962065935134888,-4.102000713348389,-8.812707901000977
1766400728086083600,15.03008349609375,1.3544354438781738,-4.090898036956787,-8.809111595153809
1766400728096124000,15.0401240234375,1.3843039274215698,-4.081973552703857,-8.808609008789062
1766400728136193500,15.080193603515625,1.3761802911758423,-4.043793678283691,-8.827470779418945
1766400728146203400,15.090203369140625,1.3329869508743286,-4.024905204772949,-8.842717170715332
1766400728156243500,15.100243408203125,1.22799813747406,-4.026197910308838,-8.857320785522461
1766400728166253300,15.11025341796875,1.1375900506973267,-4.035858154296875,-8.864995002746582
1766400728176293600,15.120293701171875,1.0339326858520508,-4.020379543304443,-8.884702682495117
1766400728186303500,15.130303466796875,0.9667437076568604,-4.022705078125,-8.891210556030273
1766400728196343800,15.14034375,0.8301070332527161,-4.009081840515137,-8.911148071289062
1766400728206353400,15.150353515625,0.7144108414649963,-4.005672454833984,-8.922700881958008
1766400728246362000,15.190362060546875,0.32011401653289795,-3.9583873748779297,-8.966553688049316
1766400728256402200,15.200402099609375,0.2627776563167572,-3.9557125568389893,-8.969598770141602
1766400728266412000,15.210412109375,0.09556523710489273,-3.946397542953491,-8.97703742980957
1766400728276422000,15.220421875,0.03480769321322441,-3.944387435913086,-8.978363037109375
1766400728286462200,15.230462158203125,-0.14331366121768951,-3.937805414199829,-8.98017406463623
1766400728296471800,15.240471923828125,-0.20473171770572662,-3.937906503677368,-8.978940963745117
1766400728306481700,15.250481689453125,-0.32329440116882324,-3.93184494972229,-8.978111267089844
1766400728316522000,15.26052197265625,-0.5055418610572815,-3.9200432300567627,-8.974860191345215
1766400728336572000,15.280572021484375,-0.7452093362808228,-3.9122443199157715,-8.961552619934082
1766400728346581800,15.290581787109375,-0.8585591912269592,-3.9166858196258545,-8.94946002960205
1766400728356591400,15.30059130859375,-0.9673726558685303,-3.928328037261963,-8.933241844177246
1766400728366601200,15.310601318359375,-1.0730618238449097,-3.947299003601074,-8.912788391113281
1766400728376611000,15.320611083984375,-1.1760610342025757,-3.971747398376465,-8.888895988464355
1766400728386620700,15.33062060546875,-1.223989486694336,-3.982698440551758,-8.877520561218262
1766400728396630500,15.340630615234375,-1.3782546520233154,-4.0342230796813965,-8.831526756286621
1766400728406640400,15.350640380859375,-1.4252783060073853,-4.049325466156006,-8.817139625549316
1766400728416680700,15.3606806640625,-1.523335337638855,-4.083827495574951,-8.784770965576172
1766400728466790400,15.410790283203125,-2.009875535964966,-4.244621276855469,-8.608946800231934
1766400728476830700,15.420830810546875,-2.083777904510498,-4.269588947296143,-8.57897663116455
1766400728486810000,15.43081005859375,-2.112962484359741,-4.279405117034912,-8.566940307617188
1766400728496819700,15.44081982421875,-2.176118850708008,-4.302688121795654,-8.53942584991455
1766400728506829600,15.45082958984375,-2.231590747833252,-4.324619293212891,-8.513992309570312
1766400728516839200,15.460839111328125,-2.305281400680542,-4.354877948760986,-8.478861808776855
1766400728546868500,15.490868408203125,-2.4016315937042236,-4.378140449523926,-8.44005298614502
1766400728556878300,15.50087841796875,-2.4250872135162354,-4.374642848968506,-8.43515682220459
1766400728566949000,15.51094921875,-2.446341037750244,-4.36519193649292,-8.433916091918945
1766400728576959000,15.520958984375,-2.464282989501953,-4.3504815101623535,-8.43629264831543
1766400728586968600,15.530968505859375,-2.478527069091797,-4.329768180847168,-8.442773818969727
1766400728596948000,15.540947998046875,-2.4882874488830566,-4.304492473602295,-8.452818870544434
1766400728606988300,15.55098828125,-2.488971471786499,-4.288661003112793,-8.460662841796875
1766400728636987000,15.58098681640625,-2.4849603176116943,-4.181299686431885,-8.515405654907227
1766400728657037000,15.601037109375,-2.458134412765503,-4.094528675079346,-8.565208435058594
1766400728667047000,15.611046875,-2.441037654876709,-4.048147678375244,-8.592101097106934
1766400728677026000,15.621026123046875,-2.4231021404266357,-4.000923156738281,-8.619256973266602
1766400728687066400,15.63106640625,-2.3958728313446045,-3.9292948246002197,-8.659724235534668
1766400728697076200,15.641076171875,-2.3744518756866455,-3.8785061836242676,-8.688472747802734
1766400728707085800,15.6510859375,-2.361065626144409,-3.851686716079712,-8.704038619995117
1766400728717095700,15.661095703125,-2.3282864093780518,-3.772531509399414,-8.74742603302002
1766400728727136000,15.671135986328125,-2.302874803543091,-3.7182726860046387,-8.777336120605469
1766400728777276400,15.7212763671875,-2.149115800857544,-3.4439680576324463,-8.926970481872559
1766400728787286000,15.7312861328125,-2.11674427986145,-3.388766288757324,-8.955782890319824
1766400728797326300,15.741326416015625,-2.084336757659912,-3.3334975242614746,-8.984081268310547
1766400728807336200,15.751336181640625,-2.0520050525665283,-3.2785768508911133,-9.01169204711914
1766400728817376500,15.76137646484375,-2.0192759037017822,-3.2232894897460938,-9.03899097442627
1766400728827386000,15.77138623046875,-1.9862556457519531,-3.167921304702759,-9.065840721130371
1766400728867486200,15.811486328125,-1.861639142036438,-2.9511101245880127,-9.164913177490234
1766400728877496000,15.82149609375,-1.8467934131622314,-2.92549729347229,-9.17612075805664
1766400728887505700,15.831505615234375,-1.8177748918533325,-2.8749613761901855,-9.19786262512207
1766400728907555800,15.851555908203125,-1.747099757194519,-2.752769708633423,-9.248802185058594
1766400728917565700,15.861565673828125,-1.7199965715408325,-2.7049508094787598,-9.267969131469727
