time,seconds_elapsed,z,y,x
1766400711810701600,-1.24529833984375,0.608127236366272,0.2537853717803955,-0.5363011956214905
1766400711840761300,-1.21523876953125,0.07182604819536209,-0.8092401623725891,0.16998831927776337
1766400711850801700,-1.2051982421875,-0.10534487664699554,-0.4668693244457245,-0.6584054827690125
1766400711860811300,-1.195188720703125,-0.19153612852096558,0.15322890877723694,-0.33039984107017517
1766400711870821000,-1.185178955078125,0.009576806798577309,1.0079588890075684,0.11013327538967133
1766400711880831000,-1.1751689453125,0.004788403399288654,0.6560112833976746,-0.42616790533065796
1766400711890871300,-1.165128662109375,0.2106897532939911,0.5530605912208557,-0.13168109953403473
1766400711900881000,-1.155119140625,0.11971008777618408,0.011971008032560349,-0.2082955539226532
1766400711910921200,-1.145078857421875,0.12210428714752197,-0.40222588181495667,-0.43095630407333374
1766400711940981000,-1.11501904296875,0.14365209639072418,-0.17477671802043915,-0.1867477297782898
1766400711950990800,-1.105009033203125,0.2849099934101105,-0.07182604819536209,-0.15562310814857483
1766400711961000400,-1.09499951171875,0.4596867263317108,-0.1149216815829277,-0.05027823522686958
1766400711971040800,-1.084959228515625,0.42616790533065796,0.028730420395731926,0.011971008032560349
1766400711981050600,-1.074949462890625,0.3711012601852417,0.1867477297782898,0.10773907601833344
1766400711991060500,-1.064939453125,0.27054479718208313,0.16759411990642548,0.17717093229293823
1766400712001070000,-1.054929931640625,0.19153612852096558,0.1604115068912506,-0.047884032130241394
1766400712011110400,-1.0448896484375,0.0933738648891449,0.0933738648891449,-0.09816227108240128
1766400712031160600,-1.02483935546875,0.047884032130241394,-0.24660277366638184,-0.23942017555236816
1766400712041139700,-1.0148603515625,0.17477671802043915,-0.18914192914962769,-0.17238251864910126
1766400712051149600,-1.004850341796875,0.181959331035614,-0.2346317619085312,-0.15801730751991272
1766400712061159200,-0.9948408203125,0.20350714027881622,-0.20350714027881622,-0.20111294090747833
1766400712071169000,-0.9848310546875,0.181959331035614,-0.05267243832349777,-0.08858546614646912
1766400712091188500,-0.9648115234375,0.17238251864910126,0.10773907601833344,0.035913024097681046
1766400712101198300,-0.9548017578125,0.10295066982507706,0.026336219161748886,-0.028730420395731926
1766400712111208200,-0.944791748046875,0.13168109953403473,-0.028730420395731926,-0.13407529890537262
1766400712151308300,-0.904691650390625,0.090979665517807,0.09576806426048279,-0.090979665517807
1766400712161318000,-0.89468212890625,0.08140286058187485,0.08140286058187485,-0.11013327538967133
1766400712171327700,-0.88467236328125,0.14604631066322327,0.05506663769483566,-0.1173158809542656
1766400712181337600,-0.874662353515625,0.1843535304069519,0.09576806426048279,0.004788403399288654
1766400712191347200,-0.86465283203125,0.24181437492370605,0.16759411990642548,0.090979665517807
1766400712201326600,-0.85467333984375,0.20350714027881622,-0.1412578970193863,-0.033518824726343155
1766400712211366700,-0.84463330078125,0.13168109953403473,0.016759412363171577,-0.026336219161748886
1766400712221376500,-0.83462353515625,0.1173158809542656,-0.10773907601833344,0.08619125932455063
1766400712251405800,-0.80459423828125,0.14604631066322327,-0.011971008032560349,0.002394201699644327
1766400712261415700,-0.794584228515625,0.20350714027881622,0.05027823522686958,0.07661445438861847
1766400712271425300,-0.78457470703125,0.181959331035614,0.019153613597154617,0.0454898327589035
1766400712311495000,-0.744505126953125,0.29209262132644653,-0.12928688526153564,0.002394201699644327
1766400712331545000,-0.724454833984375,0.16519992053508759,0.028730420395731926,0.033518824726343155
1766400712391603700,-0.664396240234375,0.12689268589019775,0.08379705995321274,-0.05985504388809204
1766400712481813500,-0.5741865234375,0.10773907601833344,0.004788403399288654,0.10295066982507706
1766400712501894100,-0.55410595703125,0.028730420395731926,0,-0.15322890877723694
1766400712511904000,-0.544095947265625,0.13407529890537262,-0.1867477297782898,-0.1412578970193863
1766400712521913600,-0.53408642578125,0.12210428714752197,-0.004788403399288654,-0.043095629662275314
1766400712531954000,-0.524046142578125,0.12210428714752197,-0.004788403399288654,-0.043095629662275314
1766400712541963800,-0.5140361328125,0.2082955539226532,0.10055647045373917,-0.09576806426048279
1766400712551973400,-0.504026611328125,0.16519992053508759,0.07422025501728058,-0.047884032130241394
1766400712561983200,-0.494016845703125,0.05746084079146385,-0.07182604819536209,-0.040701430290937424
1766400712622072300,-0.433927734375,0.06464344263076782,0.10773907601833344,-0.011971008032560349
1766400712632173600,-0.423826416015625,0.0071826050989329815,0.011971008032560349,0
1766400712642153000,-0.413846923828125,0.021547814831137657,-0.028730420395731926,-0.06464344263076782
1766400712652193300,-0.403806640625,0.0071826050989329815,-0.031124621629714966,0.009576806798577309
1766400712662203000,-0.393797119140625,0.10534487664699554,-0.028730420395731926,-0.019153613597154617
1766400712672273700,-0.383726318359375,0.20350714027881622,0.035913024097681046,0.1364694982767105
1766400712682253000,-0.373746826171875,0.2968810200691223,0.090979665517807,0.07422025501728058
1766400712692262700,-0.3637373046875,0.10534487664699554,-0.22266076505184174,0.028730420395731926
1766400712702272500,-0.3537275390625,0.1364694982767105,-0.4405331015586853,0.1867477297782898
1766400712712282400,-0.343717529296875,0.2513911724090576,0.002394201699644327,-0.23702596127986908
1766400712732301800,-0.3236982421875,0.21308395266532898,0.1412578970193863,-0.043095629662275314
1766400712742311700,-0.313688232421875,0.09816227108240128,0.05267243832349777,-0.06464344263076782
1766400712752321300,-0.3036787109375,0.15801730751991272,-0.10773907601833344,-0.07900865375995636
1766400712762331100,-0.2936689453125,0.06224924325942993,0.047884032130241394,-0.22026655077934265
1766400712772341000,-0.283658935546875,0.038307227194309235,0.10534487664699554,-0.05027823522686958
1766400712812410400,-0.243589599609375,0.07422025501728058,0.047884032130241394,-0.2346317619085312
1766400712822420200,-0.233579833984375,-0.1173158809542656,0.1173158809542656,-0.21547815203666687
1766400712832430000,-0.22356982421875,-0.1843535304069519,-0.2585737705230713,-0.014365210197865963
1766400712852449500,-0.203550537109375,-0.035913024097681046,0.11252748221158981,0.07900865375995636
1766400712862459400,-0.19354052734375,0.14604631066322327,0.038307227194309235,0.1628057211637497
1766400712872469000,-0.183531005859375,0.22266076505184174,-0.0933738648891449,0.009576806798577309
1766400712902528800,-0.15347119140625,0.35673606395721436,-0.05506663769483566,-0.035913024097681046
1766400712912538600,-0.14346142578125,0.3711012601852417,-0.0933738648891449,-0.06464344263076782
1766400712922548500,-0.133451416015625,0.363918662071228,-0.023942016065120697,-0.023942016065120697
1766400712932588800,-0.1234111328125,0.42856210470199585,-0.07900865375995636,0.0071826050989329815
1766400712942598400,-0.113401611328125,0.37828385829925537,-0.1867477297782898,-0.023942016065120697
1766400712952608300,-0.103391845703125,0.4189853072166443,-0.10295066982507706,-0.028730420395731926
1766400712962618000,-0.0933818359375,0.33997663855552673,-0.08379705995321274,-0.040701430290937424
1766400712972627700,-0.083372314453125,0.3711012601852417,-0.014365210197865963,-0.023942016065120697
1766400712982637600,-0.073362548828125,0.3495534360408783,0.06464344263076782,-0.05985504388809204
1766400712992647200,-0.063352783203125,0.3064578175544739,0,0.043095629662275314
1766400713002626600,-0.05337353515625,0.23942017555236816,0.10055647045373917,0.07182604819536209
1766400713012636400,-0.043363525390625,0.2322375625371933,0.028730420395731926,-0.028730420395731926
1766400713022646000,-0.03335400390625,0.24660277366638184,0.07661445438861847,-0.026336219161748886
1766400713032686300,-0.023313720703125,0.2322375625371933,0.05027823522686958,0.0454898327589035
1766400713042665700,-0.013334228515625,0.22744916379451752,0.016759412363171577,-0.014365210197865963
1766400713052675300,-0.00332470703125,0.1843535304069519,0.11013327538967133,-0.004788403399288654
1766400713062685200,0.006685302734375,0.1628057211637497,0.047884032130241394,-0.023942016065120697
1766400713072694800,0.01669482421875,0.14365209639072418,0.11252748221158981,-0.0933738648891449
1766400713102724000,0.04672412109375,0.16998831927776337,-0.08379705995321274,-0.028730420395731926
1766400713112734000,0.05673388671875,0.16998831927776337,0.038307227194309235,0.004788403399288654
1766400713122743800,0.066743896484375,0.2801215946674347,0.038307227194309235,0.07422025501728058
1766400713132814600,0.076814697265625,0.23702596127986908,-0.019153613597154617,-0.05027823522686958
1766400713152834000,0.096833984375,0.17956513166427612,-0.17477671802043915,-0.16998831927776337
1766400713162844000,0.106843994140625,0.14844051003456116,-0.08619125932455063,-0.10773907601833344
1766400713172853500,0.116853515625,0.047884032130241394,-0.043095629662275314,-0.05027823522686958
1766400713182863400,0.12686328125,0.07182604819536209,-0.11013327538967133,-0.035913024097681046
1766400713202882800,0.1468828125,0.17238251864910126,0.05267243832349777,-0.0694318488240242
1766400713212892700,0.156892578125,0.08619125932455063,0.10055647045373917,-0.002394201699644327
1766400713222902500,0.166902587890625,0.11252748221158981,0.11013327538967133,0
1766400713232912100,0.176912109375,-0.05746084079146385,-0.0454898327589035,-0.10295066982507706
1766400713242922000,0.186921875,-0.05506663769483566,-0.0454898327589035,-0.10055647045373917
1766400713252962300,0.19696240234375,-0.009576806798577309,-0.002394201699644327,-0.05267243832349777
1766400713262972000,0.206971923828125,0.0933738648891449,0.021547814831137657,-0.07661445438861847
1766400713272981800,0.216981689453125,0.19871874153614044,-0.035913024097681046,-0.05746084079146385
1766400713303041500,0.24704150390625,0.10295066982507706,-0.021547814831137657,0.05506663769483566
1766400713313081900,0.257081787109375,0.09576806426048279,-0.035913024097681046,0.031124621629714966
1766400713323091700,0.267091796875,0.0694318488240242,-0.009576806798577309,-0.031124621629714966
1766400713333101300,0.277101318359375,0.08140286058187485,-0.05506663769483566,0.047884032130241394
1766400713343111200,0.287111083984375,0.21308395266532898,-0.08858546614646912,0.15801730751991272
1766400713353151500,0.2971513671875,0.21547815203666687,-0.13407529890537262,-0.10534487664699554
1766400713363161000,0.3071611328125,0.33997663855552673,-0.0933738648891449,0.026336219161748886
1766400713373201400,0.317201416015625,0.2825157940387726,-0.06703764945268631,0.05267243832349777
1766400713383211300,0.327211181640625,0.33997663855552673,0.06703764945268631,0.033518824726343155
1766400713413271000,0.35727099609375,0.05746084079146385,-0.028730420395731926,-0.10534487664699554
1766400713423281000,0.367281005859375,0.10295066982507706,0.026336219161748886,-0.021547814831137657
1766400713433321200,0.3773212890625,0.1364694982767105,-0.043095629662275314,-0.06224924325942993
1766400713443330800,0.387330810546875,0.1388636976480484,0,0.016759412363171577
1766400713453371100,0.39737109375,0.090979665517807,-0.038307227194309235,-0.05506663769483566
1766400713463381000,0.407381103515625,0.0071826050989329815,0.016759412363171577,-0.10534487664699554
1766400713473421300,0.41742138671875,0.08619125932455063,0.07422025501728058,-0.08140286058187485
1766400713483400400,0.427400390625,0.06703764945268631,0.10295066982507706,-0.07182604819536209
1766400713493410300,0.437410400390625,0.05506663769483566,0.023942016065120697,-0.019153613597154617
1766400713513399300,0.4573994140625,0.09816227108240128,-0.011971008032560349,-0.031124621629714966
1766400713533418800,0.477418701171875,0.09816227108240128,0.2322375625371933,0.17238251864910126
1766400713543428600,0.4874287109375,-0.08619125932455063,-0.08858546614646912,-0.12449848651885986
1766400713553438200,0.497438232421875,-0.040701430290937424,-0.1364694982767105,0.040701430290937424
1766400713563448000,0.507447998046875,-0.15801730751991272,-0.009576806798577309,-0.22266076505184174
1766400713573488400,0.51748828125,-0.1412578970193863,0.08140286058187485,-0.026336219161748886
1766400713583467500,0.527467529296875,-0.15562310814857483,0.13407529890537262,-0.090979665517807
1766400713593507800,0.5375078125,-0.0694318488240242,0.14844051003456116,-0.023942016065120697
1766400713603578600,0.54757861328125,-0.13168109953403473,0.011971008032560349,-0.014365210197865963
1766400713633577500,0.577577392578125,0.3232172429561615,1.1324573755264282,-0.1628057211637497
1766400713643587300,0.58758740234375,-0.17717093229293823,1.4963760375976562,-2.365471363067627
1766400713653597000,0.597596923828125,-1.6112977266311646,1.6855180263519287,-2.920926094055176
1766400713663606800,0.607606689453125,-1.800439715385437,-0.2849099934101105,-2.5546131134033203
1766400713673616600,0.61761669921875,-2.164358377456665,0.5147533416748047,-0.871489405632019
1766400713683626200,0.627626220703125,-2.032677173614502,0.9313444495201111,-0.950498104095459
1766400713693697000,0.637697021484375,-2.38462495803833,-0.23702596127986908,-0.9074024558067322
1766400713703676400,0.647676513671875,-2.3127987384796143,-0.5770025849342346,-0.6943184733390808
1766400713713686000,0.65768603515625,-1.8626888990402222,-0.24181437492370605,-0.6943184733390808
1766400713743684900,0.687684814453125,-0.2298433631658554,0.3447650372982025,-0.8978256583213806
1766400713753725200,0.69772509765625,-0.14365209639072418,1.2234370708465576,-1.1851298809051514
1766400713763704300,0.707704345703125,-0.395043283700943,1.9321208000183105,-1.290474772453308
1766400713773744600,0.71774462890625,-0.9528923034667969,2.1739351749420166,-1.479616641998291
1766400713783754500,0.72775439453125,-1.6304513216018677,2.1978771686553955,-1.6687586307525635
1766400713793764400,0.737764404296875,-2.4372973442077637,1.7884687185287476,-1.656787633895874
1766400713803743500,0.747743408203125,-3.19865345954895,0.44532153010368347,-1.702277421951294
1766400713813814300,0.757814208984375,-3.579331636428833,-1.280897855758667,-1.7405846118927002
1766400713823824100,0.76782421875,-3.6128504276275635,-2.2146365642547607,-2.075772762298584
1766400713833833700,0.777833740234375,-3.4739866256713867,-2.3702597618103027,-2.3989901542663574
1766400713853853400,0.797853515625,-3.49314022064209,-2.942473888397217,-1.9776105880737305
1766400713863863000,0.807863037109375,-3.7708675861358643,-3.450044631958008,-1.5945383310317993
1766400713873873000,0.817872802734375,-4.062960147857666,-3.9025487899780273,-1.113303780555725
1766400713883852000,0.82785205078125,-4.156333923339844,-4.874594688415527,-0.5482721924781799
1766400713893892400,0.837892333984375,-3.866635799407959,-5.530605792999268,0.05027823522686958
1766400713903902200,0.847902099609375,-3.8115692138671875,-5.683835029602051,0.6200982332229614
1766400713913912000,0.857912109375,-4.091690540313721,-5.233725070953369,0.7948749661445618
1766400713923921700,0.867921630859375,-4.393360137939453,-5.116408824920654,0.6129156351089478
1766400713953951000,0.897950927734375,-5.200206279754639,-4.778826713562012,0.8140285611152649
1766400713963960800,0.9079609375,-5.578489780426025,-4.125209331512451,1.5658079385757446
1766400713973970400,0.917970458984375,-5.633556365966797,-3.514688014984131,1.7741034030914307
1766400713983980300,0.927980224609375,-5.410895824432373,-3.095702886581421,1.7908629179000854
1766400713993990100,0.937990234375,-5.008669853210449,-3.2776620388031006,1.5921441316604614
1766400714003969300,0.94796923828125,-4.314351558685303,-3.2537200450897217,1.3287819623947144
1766400714014040000,0.9580400390625,-3.445256233215332,-3.6104562282562256,1.3096283674240112
1766400714024019500,0.96801953125,-2.9041666984558105,-3.706224203109741,1.400607943534851
1766400714044008400,0.988008544921875,-2.099714994430542,-3.576937437057495,2.0446481704711914
1766400714054048800,0.998048828125,-2.0422539710998535,-3.507505416870117,2.518700122833252
1766400714064028000,1.00802783203125,-2.0183119773864746,-3.464409828186035,2.7557260990142822
1766400714074068200,1.018068115234375,-1.9321208000183105,-3.6583402156829834,2.693476915359497
1766400714084047400,1.02804736328125,-1.699883222579956,-3.5434184074401855,2.671929121017456
1766400714094087700,1.038087646484375,-1.3527239561080933,-3.1052796840667725,2.719813108444214
1766400714104097500,1.04809765625,-1.1779472827911377,-2.3726539611816406,2.5929205417633057
1766400714114137900,1.058137939453125,-0.7158663272857666,-2.1499931812286377,2.1954829692840576
1766400714124117000,1.068116943359375,-0.33279404044151306,-1.5322890281677246,1.9488801956176758
1766400714144136400,1.088136474609375,-0.0694318488240242,-1.920149803161621,1.7070658206939697
1766400714174165800,1.118165771484375,0.019153613597154617,-2.7078421115875244,1.1755530834197998
1766400714224184000,1.16818408203125,0.24899697303771973,-1.1899182796478271,1.1635819673538208
1766400714234163500,1.17816357421875,0.42856210470199585,-1.0749965906143188,1.0127472877502441
1766400714294283000,1.238282958984375,0.8331822156906128,0.33997663855552673,0.8690952062606812
1766400714324373200,1.268373291015625,0.6512228846549988,-0.3471592366695404,0.1412578970193863
1766400714354463700,1.298463623046875,-0.4596867263317108,-0.6105214357376099,0.026336219161748886
1766400714394563800,1.338563720703125,0.07182604819536209,-0.5027823448181152,-0.2082955539226532
1766400714434633500,1.378633544921875,-0.002394201699644327,-0.002394201699644327,-0.2082955539226532
1766400714504763000,1.448762939453125,-0.4405331015586853,-0.3758896589279175,-0.10055647045373917
1766400714564852000,1.50885205078125,-0.4405331015586853,0.8212111592292786,0.2059013396501541
1766400714574861600,1.518861572265625,-0.6536170840263367,0.19393034279346466,0.37828385829925537
1766400714584871400,1.528871337890625,-0.6560112833976746,-0.021547814831137657,0.36152446269989014
1766400714594881300,1.53888134765625,-0.6272808313369751,0.06224924325942993,0.29209262132644653
1766400714604891000,1.548890869140625,-0.4429273009300232,-0.13407529890537262,0.23942017555236816
1766400714614961700,1.558961669921875,-0.38546648621559143,0.18914192914962769,0.3495534360408783
1766400714624941000,1.568941162109375,-0.26096799969673157,0.24420857429504395,0.3232172429561615
1766400714645021400,1.589021484375,0.08858546614646912,1.2761094570159912,0.27054479718208313
1766400714655061800,1.599061767578125,0.023942016065120697,0.828393816947937,0.3495534360408783
1766400714665071600,1.609071533203125,0.05267243832349777,0.8188169598579407,0.3256114423274994
1766400714675081500,1.61908154296875,-0.05746084079146385,0.47884035110473633,0.22744916379451752
1766400714685060600,1.629060546875,-0.24420857429504395,0.1628057211637497,0.0933738648891449
1766400714695101000,1.639100830078125,-0.3878606855869293,-0.17717093229293823,0.22266076505184174
1766400714705110800,1.64911083984375,-0.3998316824436188,-0.4620809257030487,0.19393034279346466
1766400714715120400,1.659120361328125,-0.3998316824436188,-0.33518823981285095,0.18914192914962769
1766400714725160700,1.66916064453125,-0.3280056416988373,-0.28730419278144836,0.2992752194404602
1766400714765200000,1.709199951171875,-0.05267243832349777,0.29209262132644653,0.20350714027881622
1766400714775209500,1.71920947265625,0.033518824726343155,0.15322890877723694,0.22744916379451752
1766400714785219300,1.72921923828125,-0.10534487664699554,-0.2513911724090576,0.3232172429561615
1766400714795259600,1.739259765625,-0.16759411990642548,-0.43095630407333374,0.33279404044151306
1766400714805269200,1.749269287109375,-0.06464344263076782,-0.22026655077934265,0.2059013396501541
1766400714815279000,1.759279052734375,0.1628057211637497,0.17238251864910126,0.272938996553421
1766400714825289000,1.7692890625,0.20111294090747833,0.8403648138046265,0.3974374830722809
1766400714835329300,1.779329345703125,-0.043095629662275314,1.01753568649292,0.20111294090747833
1766400714845339000,1.7893388671875,0.0694318488240242,0.8762778043746948,0.24660277366638184
1766400714875368200,1.8193681640625,0.07661445438861847,-0.21787235140800476,-0.004788403399288654
1766400714885378000,1.8293779296875,-0.17956513166427612,-0.5339069962501526,-0.021547814831137657
1766400714895387600,1.8393876953125,-0.17717093229293823,-0.689530074596405,-0.08140286058187485
1766400714905397500,1.8493974609375,-0.08140286058187485,-0.7924807667732239,-0.19871874153614044
1766400714915407400,1.859407470703125,-0.15083470940589905,-0.6967126727104187,-0.19871874153614044
1766400714925417000,1.8694169921875,-0.363918662071228,-0.363918662071228,-0.15083470940589905
1766400714935457300,1.879457275390625,-0.4118026793003082,-0.07182604819536209,0.009576806798577309
1766400714965486600,1.909486572265625,-0.4429273009300232,0.15801730751991272,-0.1604115068912506
1766400714985506300,1.92950634765625,-0.014365210197865963,2.1930887699127197,-0.3256114423274994
1766400714995516000,1.939515869140625,-0.7206547260284424,1.8531121015548706,-0.11971008777618408
1766400715005525800,1.94952587890625,-1.0869675874710083,1.0845733880996704,-0.004788403399288654
1766400715015566000,1.959566162109375,-1.280897855758667,0.5674257874488831,-0.23942017555236816
1766400715025545200,1.969545166015625,-0.790086567401886,0.6248866319656372,-0.2944868206977844
1766400715035555000,1.97955517578125,-0.26096799969673157,0.912190854549408,-0.2585737705230713
1766400715045564700,1.989564697265625,0.014365210197865963,1.3527239561080933,-0.2585737705230713
1766400715075594000,2.019593994140625,-0.043095629662275314,0.004788403399288654,-0.5123591423034668
1766400715105653800,2.04965380859375,1.0821791887283325,0.31124621629714966,-0.4381389021873474
1766400715115663600,2.05966357421875,1.3120225667953491,-0.11013327538967133,-0.35913026332855225
1766400715135713800,2.0797138671875,1.3742717504501343,-0.6584054827690125,-0.3280056416988373
1766400715145723400,2.089723388671875,1.3096283674240112,-1.194706678390503,-0.14844051003456116
1766400715155763700,2.099763671875,0.5626373887062073,-1.5107412338256836,0.043095629662275314
1766400715165773600,2.109773681640625,0.2992752194404602,-1.6136919260025024,0.05267243832349777
1766400715175783200,2.119783203125,0.40462008118629456,-0.790086567401886,-0.11252748221158981
1766400715185762600,2.129762451171875,0.8307880163192749,-0.7469909191131592,-0.019153613597154617
1766400715195772400,2.1397724609375,0.9888052940368652,-0.7948749661445618,-0.17238251864910126
1766400715205751600,2.14975146484375,1.1755530834197998,-0.9816226959228516,-0.2849099934101105
1766400715215791900,2.1597919921875,0.9313444495201111,-1.5921441316604614,-0.0933738648891449
1766400715225832200,2.169832275390625,0.9864110946655273,-1.9129672050476074,-0.1628057211637497
1766400715235872500,2.17987255859375,1.335964560508728,-1.7812861204147339,-0.2849099934101105
1766400715275911400,2.219911376953125,0.8810662031173706,-1.5418659448623657,-0.28969839215278625
1766400715285921300,2.22992138671875,0.6392518281936646,-2.3367409706115723,-0.3495534360408783
1766400715295931000,2.239930908203125,0.3208230137825012,-2.3343467712402344,-0.4572925269603729
1766400715305940700,2.249940673828125,0.2801215946674347,-1.9153614044189453,-0.2968810200691223
1766400715315981000,2.25998095703125,0.5506663918495178,-1.259350061416626,-0.24899697303771973
1766400715325991000,2.269990966796875,0.4836287498474121,-0.6560112833976746,-0.15322890877723694
1766400715336000500,2.28000048828125,0.31364041566848755,-0.6392518281936646,-0.1149216815829277
1766400715346010400,2.29001025390625,0.05027823522686958,-1.1324573755264282,-0.0454898327589035
1766400715356020200,2.300020263671875,-0.090979665517807,-0.9385270476341248,-0.05027823522686958
1766400715376039700,2.320039794921875,-0.5171475410461426,-0.507570743560791,0.090979665517807
1766400715386110500,2.3301103515625,-0.7015010714530945,-0.49559974670410156,0.2082955539226532
1766400715396120300,2.340120361328125,-0.933738648891449,-0.49799394607543945,0.2777273952960968
1766400715406130000,2.3501298828125,-0.9648633003234863,-0.2825157940387726,0.2585737705230713
1766400715416139800,2.360139892578125,-0.7398083209991455,0.12689268589019775,0.2106897532939911
1766400715426149400,2.3701494140625,-0.646434485912323,0.7398083209991455,0.14844051003456116
1766400715436189700,2.380189697265625,-0.21308395266532898,0.7422025203704834,0.08379705995321274
1766400715446169000,2.390169189453125,0.07661445438861847,0.27054479718208313,-0.1388636976480484
1766400715456209400,2.40020947265625,0.07661445438861847,-0.45489832758903503,-0.21547815203666687
1766400715476228900,2.420228759765625,-0.0694318488240242,-0.9241618514060974,0.040701430290937424
1766400715506258200,2.450258056640625,-0.5985504388809204,0.689530074596405,0.181959331035614
1766400715516267800,2.460267822265625,-0.9145850539207458,0.45250412821769714,0.2082955539226532
1766400715526277600,2.470277587890625,-0.6703764796257019,0.49320554733276367,-0.040701430290937424
1766400715536287500,2.48028759765625,-0.5027823448181152,0.8930372595787048,-0.3208230137825012
1766400715546297000,2.490297119140625,-0.3208230137825012,0.28969839215278625,-0.608127236366272
1766400715556307000,2.500306884765625,-0.3447650372982025,-0.19632454216480255,-0.47884035110473633
1766400715566316800,2.51031689453125,-0.35913026332855225,-0.1604115068912506,-0.26096799969673157
1766400715596437500,2.5404375,-0.3471592366695404,-0.07422025501728058,-0.1173158809542656
1766400715606447400,2.550447265625,-0.10055647045373917,0.4405331015586853,-0.05027823522686958
1766400715616487700,2.56048779296875,0.13168109953403473,0.7134721279144287,-0.07900865375995636
1766400715626497300,2.570497314453125,0.16998831927776337,0.608127236366272,-0.08140286058187485
1766400715636507100,2.580507080078125,0.19871874153614044,0.20111294090747833,0.10055647045373917
1766400715666536400,2.610536376953125,0.4692635238170624,-0.08140286058187485,0.33758243918418884
1766400715686586600,2.630586669921875,0.31603461503982544,-0.38307225704193115,0.24899697303771973
1766400715706606000,2.650606201171875,0.4118026793003082,0.10773907601833344,0.181959331035614
1766400715716646400,2.660646484375,0.3256114423274994,-0.0694318488240242,0.05027823522686958
1766400715726656000,2.670656005859375,0.28730419278144836,-0.16998831927776337,-0.033518824726343155
1766400715736665900,2.680665771484375,0.2059013396501541,-0.28730419278144836,-0.14365209639072418
1766400715746675700,2.69067578125,0.09816227108240128,-0.4189853072166443,-0.1364694982767105
1766400715756685300,2.700685302734375,0.2322375625371933,-0.2298433631658554,-0.1843535304069519
1766400715766695200,2.710695068359375,0.2322375625371933,-0.28730419278144836,-0.17477671802043915
1766400715776705000,2.720705078125,0.3902548849582672,-0.3064578175544739,-0.19393034279346466
1766400715806673200,2.750673095703125,0.395043283700943,-0.5530605912208557,-0.31603461503982544
1766400715816683000,2.76068310546875,0.44532153010368347,-0.5626373887062073,-0.37828385829925537
1766400715826692600,2.770692626953125,0.4405331015586853,-0.4381389021873474,-0.33518823981285095
1766400715836702500,2.780702392578125,0.2968810200691223,-0.4692635238170624,-0.30885201692581177
1766400715846612200,2.7906123046875,0.19871874153614044,-0.43095630407333374,-0.09816227108240128
1766400715856622000,2.8006220703125,0.35673606395721436,-0.17238251864910126,0.07182604819536209
1766400715866631700,2.810631591796875,0.33279404044151306,-0.090979665517807,0.1628057211637497
1766400715876641500,2.8206416015625,0.5171475410461426,-0.06224924325942993,0.16998831927776337
1766400715906701300,2.850701416015625,0.7709329724311829,-0.29209262132644653,-0.10773907601833344
1766400715916711200,2.860711181640625,0.8786720037460327,-0.35913026332855225,-0.18914192914962769
1766400715936730600,2.880730712890625,1.0103530883789062,-0.06703764945268631,-0.36152446269989014
1766400715946740500,2.890740478515625,0.8619126081466675,-0.028730420395731926,-0.3878606855869293
1766400715956750000,2.90075,0.6224924325942993,0.019153613597154617,-0.3711012601852417
1766400715966760000,2.910760009765625,0.3902548849582672,0.15322890877723694,-0.4644751250743866
1766400715976769800,2.920769775390625,0.2992752194404602,0.33279404044151306,-0.3711012601852417
1766400715986779400,2.930779296875,0.035913024097681046,0.16519992053508759,-0.26575639843940735
1766400716016839200,2.960839111328125,0.019153613597154617,0.4165911078453064,-0.4118026793003082
1766400716026818600,2.970818603515625,0.10534487664699554,0.26096799969673157,-0.2561795711517334
1766400716036859000,2.98085888671875,0.10534487664699554,0.035913024097681046,-0.33518823981285095
1766400716056848000,3.000847900390625,0.16519992053508759,-0.12449848651885986,-0.4836287498474121
1766400716066857500,3.010857421875,0.33518823981285095,-0.2585737705230713,-0.3495534360408783
1766400716076867300,3.020867431640625,0.30885201692581177,-0.2585737705230713,-0.30885201692581177
1766400716086877200,3.030877197265625,0.27054479718208313,-0.20350714027881622,-0.2513911724090576
1766400716096948000,3.040947998046875,0.2537853717803955,-0.08619125932455063,-0.2825157940387726
1766400716116937000,3.06093701171875,0.4213795065879822,0.23702596127986908,-0.15083470940589905
1766400716146996700,3.090996826171875,0.6224924325942993,0.16519992053508759,-0.26096799969673157
1766400716157037000,3.101037109375,0.6488286852836609,0.13168109953403473,-0.2944868206977844
1766400716167047000,3.111046875,0.507570743560791,-0.07900865375995636,-0.22744916379451752
1766400716177026000,3.121026123046875,0.4884171485900879,-0.1867477297782898,-0.2753331959247589
1766400716187036000,3.131035888671875,0.5626373887062073,-0.3016694188117981,-0.24899697303771973
1766400716197076200,3.141076171875,0.5770025849342346,-0.15322890877723694,-0.12210428714752197
1766400716237145600,3.1811455078125,0.5817909836769104,0.24181437492370605,0.15083470940589905
1766400716247125000,3.191125,0.608127236366272,0.3256114423274994,0.014365210197865963
1766400716257165300,3.201165283203125,0.6153098344802856,0.31842881441116333,0.028730420395731926
1766400716267205400,3.211205322265625,0.7326257228851318,0.019153613597154617,0.016759412363171577
1766400716277215200,3.22121533203125,0.7733271718025208,-0.004788403399288654,0
1766400716287225000,3.23122509765625,0.629675030708313,0.009576806798577309,0.019153613597154617
1766400716327294700,3.271294677734375,0.3902548849582672,-0.0071826050989329815,0.047884032130241394
1766400716337304300,3.28130419921875,0.14604631066322327,-0.3016694188117981,0.1412578970193863
1766400716347314200,3.291314208984375,-0.002394201699644327,-0.33279404044151306,0.038307227194309235
1766400716357324000,3.301323974609375,-0.09576806426048279,-0.1628057211637497,0.040701430290937424
1766400716367333600,3.311333740234375,0.26336219906806946,-0.1604115068912506,-0.181959331035614
1766400716377343500,3.321343505859375,0.09576806426048279,-0.4812345504760742,-0.05985504388809204
1766400716387353000,3.33135302734375,-0.16759411990642548,-0.5434837937355042,-0.05746084079146385
1766400716427453200,3.371453125,-0.3016694188117981,-0.4213795065879822,0.1867477297782898
1766400716437493500,3.381493408203125,-0.4596867263317108,0.10773907601833344,0.33997663855552673
1766400716447503400,3.39150341796875,-0.395043283700943,0.6320692300796509,0.2561795711517334
1766400716457513200,3.40151318359375,-0.3423708379268646,0.4644751250743866,0.12689268589019775
1766400716467492400,3.411492431640625,-0.37828385829925537,0.07661445438861847,0.047884032130241394
1766400716477532700,3.42153271484375,-0.22744916379451752,-0.1867477297782898,-0.0694318488240242
1766400716487511800,3.43151171875,-0.1149216815829277,0.11971008777618408,0.08140286058187485
1766400716497521700,3.441521728515625,-0.07182604819536209,0.28969839215278625,0.016759412363171577
1766400716507531500,3.451531494140625,-0.090979665517807,0.3734954595565796,0.011971008032560349
1766400716537560800,3.481560791015625,0.035913024097681046,0.2992752194404602,0.08379705995321274
1766400716547570400,3.4915703125,0.014365210197865963,0.181959331035614,0.033518824726343155
1766400716557610800,3.50161083984375,0.0071826050989329815,0.14844051003456116,0.026336219161748886
1766400716567620600,3.51162060546875,-0.05746084079146385,0.21787235140800476,-0.08379705995321274
1766400716577630200,3.521630126953125,-0.004788403399288654,0.2346317619085312,-0.16998831927776337
1766400716587640000,3.53164013671875,-0.13168109953403473,0.08379705995321274,-0.16998831927776337
1766400716597650000,3.54164990234375,-0.21308395266532898,0.0071826050989329815,-0.1149216815829277
1766400716607659500,3.551659423828125,-0.08140286058187485,0.038307227194309235,-0.15801730751991272
1766400716647698700,3.59169873046875,0.26096799969673157,-0.22505496442317963,-0.19153612852096558
1766400716657708500,3.60170849609375,0.3734954595565796,-0.038307227194309235,-0.10055647045373917
1766400716667718100,3.61171826171875,0.26096799969673157,-0.12449848651885986,-0.035913024097681046
1766400716677728000,3.62172802734375,0.2585737705230713,-0.13168109953403473,-0.009576806798577309
1766400716687737600,3.631737548828125,0.35913026332855225,-0.1604115068912506,-0.0694318488240242
1766400716697747500,3.64174755859375,0.33279404044151306,0.08379705995321274,0.047884032130241394
1766400716707757300,3.65175732421875,0.3016694188117981,0.11971008777618408,0.16998831927776337
1766400716717767000,3.661766845703125,0.33279404044151306,-0.002394201699644327,0.17477671802043915
1766400716747857400,3.691857421875,0.1388636976480484,-0.004788403399288654,0.3519476354122162
1766400716757867000,3.701866943359375,0.0933738648891449,0.0454898327589035,0.24899697303771973
1766400716767907300,3.7119072265625,0.0933738648891449,-0.14844051003456116,0.2825157940387726
1766400716777917200,3.721917236328125,0.028730420395731926,-0.09576806426048279,0.19393034279346466
1766400716787927000,3.731927001953125,0.033518824726343155,-0.090979665517807,0.16998831927776337
1766400716797967000,3.741967041015625,-0.011971008032560349,-0.12449848651885986,0.1867477297782898
1766400716808007400,3.75200732421875,-0.05267243832349777,-0.090979665517807,0.12928688526153564
1766400716818017300,3.762017333984375,-0.1149216815829277,-0.1843535304069519,0.181959331035614
1766400716848046600,3.792046630859375,0.011971008032560349,-0.05506663769483566,-0.0454898327589035
1766400716858087000,3.8020869140625,-0.002394201699644327,-0.035913024097681046,0.090979665517807
1766400716868066000,3.812066162109375,-0.17238251864910126,-0.13168109953403473,0.08140286058187485
1766400716878076000,3.822075927734375,-0.19632454216480255,-0.2346317619085312,-0.047884032130241394
1766400716888085500,3.83208544921875,0.009576806798577309,0.08379705995321274,-0.05506663769483566
1766400716898095400,3.842095458984375,-0.05267243832349777,0.33039984107017517,0.043095629662275314
1766400716908105200,3.852105224609375,-0.12210428714752197,0.1843535304069519,0.004788403399288654
1766400716918114800,3.86211474609375,-0.18914192914962769,-0.11971008777618408,-0.07422025501728058
1766400716948144000,3.89214404296875,-0.24899697303771973,-0.15562310814857483,-0.10055647045373917
1766400716958184400,3.902184326171875,-0.3447650372982025,-0.35913026332855225,-0.090979665517807
1766400716968163800,3.912163818359375,-0.4213795065879822,-0.031124621629714966,0.05506663769483566
1766400716978204200,3.9222041015625,-0.5961562395095825,0.05027823522686958,0.11971008777618408
1766400716988213800,3.9322138671875,-0.4141969084739685,0.12210428714752197,0.031124621629714966
1766400716998223600,3.9422236328125,-0.4429273009300232,0.1388636976480484,0.0454898327589035
1766400717008233200,3.952233154296875,-0.4405331015586853,0.0071826050989329815,0.090979665517807
1766400717018304300,3.96230419921875,-0.5841852426528931,-0.05027823522686958,0.07661445438861847
1766400717028313900,3.97231396484375,-0.6631938815116882,-0.2298433631658554,-0.08619125932455063
1766400717078454300,4.022454345703125,-0.2944868206977844,0.16519992053508759,-0.021547814831137657
1766400717088464100,4.032464111328125,-0.14844051003456116,0.08858546614646912,-0.011971008032560349
1766400717098473700,4.0424736328125,-0.10534487664699554,-0.05985504388809204,0.1388636976480484
1766400717108483600,4.052483642578125,-0.0933738648891449,-0.05027823522686958,0.07900865375995636
1766400717118524000,4.06252392578125,0.026336219161748886,0.12689268589019775,0.1388636976480484
1766400717148583700,4.092583740234375,-0.021547814831137657,0.43095630407333374,0.1628057211637497
1766400717158562800,4.102562744140625,-0.23942017555236816,0.29209262132644653,0.3758896589279175
1766400717168603100,4.11260302734375,-0.6224924325942993,0.08140286058187485,0.5817909836769104
1766400717178643500,4.1226435546875,-1.170764684677124,-0.33279404044151306,0.7134721279144287
1766400717188622800,4.132622802734375,-1.381454348564148,-0.871489405632019,0.5195417404174805
1766400717198632400,4.142632568359375,-1.3862427473068237,-0.9840168952941895,0.5147533416748047
1766400717208642300,4.152642333984375,-1.338358759880066,-1.1540051698684692,0.4405331015586853
1766400717218652000,4.16265185546875,-0.5985504388809204,-1.3958195447921753,0.22744916379451752
1766400717248712000,4.1927119140625,1.721431016921997,0.040701430290937424,0.13407529890537262
1766400717258721500,4.202721435546875,1.9823989868164062,-0.023942016065120697,0.011971008032560349
1766400717268731400,4.2127314453125,2.0398597717285156,-0.033518824726343155,0.10534487664699554
1766400717278741200,4.2227412109375,2.279279947280884,0.10055647045373917,-0.08619125932455063
1766400717288750800,4.232750732421875,1.9177556037902832,-0.2298433631658554,-0.021547814831137657
1766400717298760700,4.2427607421875,1.3311761617660522,-0.26815059781074524,0.26096799969673157
1766400717308770600,4.2527705078125,0.4213795065879822,0.2298433631658554,0.1149216815829277
1766400717318780200,4.2627802734375,0.15322890877723694,1.1683704853057861,-0.05746084079146385
1766400717328790000,4.2727900390625,-0.40940847992897034,0.7829039692878723,0.21787235140800476
1766400717338799600,4.282799560546875,-0.8068459630012512,-0.20111294090747833,0.40940847992897034
1766400717378838800,4.3228388671875,0.6057330369949341,0.43095630407333374,0.06224924325942993
1766400717388848600,4.3328486328125,0.5171475410461426,0.6129156351089478,-0.028730420395731926
1766400717398858200,4.342858154296875,0.524330198764801,0.5650315880775452,0.11013327538967133
1766400717408868000,4.3528681640625,0.6200982332229614,0.9097966551780701,0.2106897532939911
1766400717418878000,4.3628779296875,0.3064578175544739,0.6488286852836609,0.3878606855869293
1766400717428887600,4.372887451171875,0.17956513166427612,0.17717093229293823,0.40462008118629456
1766400717438897400,4.3828974609375,0.14604631066322327,0.24660277366638184,0.4836287498474121
1766400717468926700,4.4129267578125,0.17717093229293823,-0.040701430290937424,0.49799394607543945
1766400717478936600,4.4229365234375,0.1149216815829277,-0.1173158809542656,0.524330198764801
1766400717488946200,4.4329462890625,0.07422025501728058,-0.09816227108240128,0.395043283700943
1766400717498956000,4.4429560546875,0.06703764945268631,-0.09576806426048279,0.3519476354122162
1766400717508965600,4.452965576171875,-0.011971008032560349,-0.11252748221158981,0.2059013396501541
1766400717518975500,4.4629755859375,-0.19153612852096558,0.12449848651885986,0.11252748221158981
1766400717528985300,4.4729853515625,-0.16759411990642548,0.22266076505184174,0.1388636976480484
1766400717549004800,4.4930048828125,0.040701430290937424,0.5626373887062073,0.014365210197865963
1766400717589044000,4.5330439453125,-0.8212111592292786,-0.2106897532939911,0.3495534360408783
1766400717599053600,4.543053466796875,-0.6943184733390808,-0.7613561153411865,0.23702596127986908
1766400717619073300,4.5630732421875,-0.18914192914962769,-1.1540051698684692,0.05985504388809204
1766400717629083000,4.573082763671875,0.09816227108240128,-0.871489405632019,-0.06464344263076782
1766400717639092700,4.5830927734375,0.07422025501728058,-0.6560112833976746,0.0071826050989329815
1766400717649102600,4.5931025390625,-0.24660277366638184,-0.6871358752250671,0.10055647045373917
1766400717669152500,4.613152587890625,-0.038307227194309235,-0.5027823448181152,-0.009576806798577309
1766400717679192800,4.62319287109375,0.2944868206977844,0.22266076505184174,0.07422025501728058
1766400717689233200,4.633233154296875,0.706289529800415,0.7134721279144287,0.038307227194309235
1766400717699273500,4.6432734375,0.5793967843055725,0.7996633648872375,0.09576806426048279
1766400717709252600,4.653252685546875,0.395043283700943,0.6344634294509888,0.28730419278144836
1766400717719293000,4.66329296875,0.33997663855552673,0.5482721924781799,0.3519476354122162
1766400717729272000,4.67327197265625,0.38307225704193115,0.3926490843296051,0.3495534360408783
1766400717739373600,4.68337353515625,0.40222588181495667,-0.026336219161748886,0.29209262132644653
1766400717749352700,4.693352783203125,0.28730419278144836,-0.05746084079146385,0.2849099934101105
1766400717769341700,4.713341796875,0.33518823981285095,0.0933738648891449,0.1628057211637497
1766400717779382000,4.723382080078125,0.10534487664699554,0.08619125932455063,0.11252748221158981
1766400717789392000,4.733391845703125,-0.13168109953403473,-0.14365209639072418,0.06703764945268631
1766400717799401500,4.7434013671875,-0.20350714027881622,-0.24660277366638184,-0.023942016065120697
1766400717809441800,4.75344189453125,-0.6033388376235962,-0.6368576288223267,-0.0454898327589035
1766400717819451600,4.76345166015625,-0.6799532771110535,-0.9983820915222168,-0.19153612852096558
1766400717829430800,4.7734306640625,-0.730231523513794,-0.9265560507774353,-0.20350714027881622
1766400717839440600,4.783440673828125,-0.19871874153614044,-0.22505496442317963,-0.3447650372982025
1766400717849481000,4.79348095703125,0.42856210470199585,0.24181437492370605,-0.4620809257030487
1766400717869500400,4.81350048828125,1.3934253454208374,0.5506663918495178,-0.8212111592292786
1766400717879510300,4.82351025390625,1.599326729774475,0.3495534360408783,-0.9409212470054626
1766400717889519900,4.833519775390625,1.335964560508728,0.29209262132644653,-0.8834604024887085
1766400717899529700,4.84352978515625,1.0893617868423462,0.304063618183136,-0.7110779285430908
1766400717909539600,4.85353955078125,0.8475474119186401,0.2537853717803955,-0.4189853072166443
1766400717919549200,4.863549072265625,0.7230489253997803,0.4189853072166443,-0.2585737705230713
1766400717929559000,4.87355908203125,0.09816227108240128,-0.09816227108240128,-0.019153613597154617
1766400717939569000,4.88356884765625,-0.23942017555236816,-0.933738648891449,-0.019153613597154617
1766400717949578500,4.89357861328125,0.038307227194309235,-0.5793967843055725,-0.004788403399288654
1766400717969598000,4.913597900390625,0.2346317619085312,0.5291185975074768,-0.14604631066322327
1766400717989617700,4.93361767578125,-0.40701428055763245,-0.6320692300796509,0.0071826050989329815
1766400717999627300,4.943627197265625,-0.4572925269603729,-0.5051765441894531,0.021547814831137657
1766400718009637000,4.95363720703125,-0.45010992884635925,-0.009576806798577309,-0.0933738648891449
1766400718019708000,4.9637080078125,-0.31364041566848755,-0.05985504388809204,0.023942016065120697
1766400718029717800,4.9737177734375,-0.40940847992897034,-0.5315127968788147,-0.07900865375995636
1766400718039727400,4.983727294921875,-0.5817909836769104,-0.6009446382522583,0.05267243832349777
1766400718049737200,4.9937373046875,-0.6560112833976746,-0.19871874153614044,0.13168109953403473
1766400718059747000,5.0037470703125,-0.6775590777397156,-0.08619125932455063,0.2513911724090576
1766400718069756700,5.013756591796875,-0.5051765441894531,0.181959331035614,0.181959331035614
1766400718109795800,5.0537958984375,0.026336219161748886,0.2561795711517334,0.021547814831137657
1766400718119866600,5.06386669921875,-0.06224924325942993,0.08140286058187485,-0.05267243832349777
1766400718129876500,5.07387646484375,0.16519992053508759,0.16759411990642548,0.07900865375995636
1766400718139886000,5.083885986328125,0.3926490843296051,0.019153613597154617,-0.15562310814857483
1766400718149896000,5.09389599609375,0.3280056416988373,-0.3998316824436188,-0.12449848651885986
1766400718159905800,5.10390576171875,0.29209262132644653,-0.4357447028160095,-0.14604631066322327
1766400718169915400,5.113915283203125,0.20111294090747833,-0.3016694188117981,-0.1364694982767105
1766400718209954600,5.15395458984375,0.19393034279346466,0.021547814831137657,-0.035913024097681046
1766400718219964200,5.163964111328125,0.14844051003456116,-0.37828385829925537,0.011971008032560349
1766400718229974000,5.17397412109375,0.0694318488240242,-0.48602294921875,-0.05506663769483566
1766400718240044800,5.184044921875,-0.05027823522686958,-0.4596867263317108,-0.12689268589019775
1766400718250054700,5.1940546875,-0.15322890877723694,-0.4381389021873474,-0.0694318488240242
1766400718260125400,5.20412548828125,-0.035913024097681046,-0.3878606855869293,-0.1364694982767105
1766400718270104600,5.2141044921875,0.12210428714752197,0,-0.181959331035614
1766400718280145000,5.224144775390625,0.2082955539226532,0.2106897532939911,-0.1364694982767105
1766400718300195000,5.244195068359375,0.4118026793003082,0.1388636976480484,-0.27054479718208313
1766400718320184000,5.26418408203125,0.3926490843296051,-0.06224924325942993,-0.22026655077934265
1766400718330254800,5.2742548828125,0.3280056416988373,-0.19632454216480255,-0.21787235140800476
1766400718340264700,5.2842646484375,0.2537853717803955,-0.038307227194309235,-0.08379705995321274
1766400718350274300,5.2942744140625,0.2801215946674347,-0.07422025501728058,-0.24899697303771973
1766400718360284200,5.3042841796875,0.2849099934101105,0.0694318488240242,-0.11971008777618408
1766400718370293800,5.314293701171875,0.2944868206977844,0.002394201699644327,-0.14844051003456116
1766400718380334000,5.324333984375,0.10773907601833344,0.1149216815829277,-0.16998831927776337
1766400718390313500,5.3343134765625,-0.12210428714752197,0.014365210197865963,-0.14844051003456116
1766400718400353800,5.344353759765625,-0.22505496442317963,0.14604631066322327,-0.090979665517807
1766400718440484400,5.384484375,0.08140286058187485,0.10773907601833344,-0.17477671802043915
1766400718450524700,5.394524658203125,0.1628057211637497,0.1364694982767105,-0.12928688526153564
1766400718460534300,5.4045341796875,0.12210428714752197,-0.13407529890537262,-0.15322890877723694
1766400718470544100,5.414544189453125,0.12210428714752197,-0.24420857429504395,-0.09576806426048279
1766400718480554000,5.424553955078125,0.033518824726343155,-0.24899697303771973,-0.05267243832349777
1766400718490563600,5.4345634765625,0.10534487664699554,-0.014365210197865963,-0.047884032130241394
1766400718500604000,5.44460400390625,-0.004788403399288654,0.047884032130241394,-0.06464344263076782
1766400718530602800,5.474602783203125,-0.11971008777618408,0.13407529890537262,0.07182604819536209
1766400718540643000,5.48464306640625,-0.2059013396501541,0.009576806798577309,0.0071826050989329815
1766400718550652700,5.494652587890625,-0.2346317619085312,0.019153613597154617,0
1766400718560723500,5.504723388671875,-0.19632454216480255,-0.07661445438861847,0.047884032130241394
1766400718570763800,5.514763671875,-0.11971008777618408,-0.17477671802043915,0.1604115068912506
1766400718580804000,5.52480419921875,-0.12689268589019775,-0.2322375625371933,0.20350714027881622
1766400718590814000,5.53481396484375,0.090979665517807,-0.2561795711517334,0.06224924325942993
1766400718600823600,5.544823486328125,-0.090979665517807,-0.272938996553421,0.07900865375995636
1766400718620843300,5.56484326171875,0.44532153010368347,-0.12928688526153564,-0.06224924325942993
1766400718630852900,5.574852783203125,0.5554547905921936,1.699883222579956,0.10295066982507706
1766400718640862700,5.58486279296875,0.4908113479614258,1.3670891523361206,-0.090979665517807
1766400718650872600,5.59487255859375,0.5123591423034668,0.05027823522686958,-0.2801215946674347
1766400718660882200,5.604882080078125,0.45010992884635925,-0.14604631066322327,-0.40701428055763245
1766400718670892000,5.61489208984375,0.272938996553421,0.1867477297782898,-0.6200982332229614
1766400718690911500,5.634911376953125,-0.6703764796257019,-1.6112977266311646,-0.22266076505184174
1766400718700921300,5.64492138671875,-0.9816226959228516,-1.8171991109848022,-0.033518824726343155
1766400718720971300,5.66497119140625,-0.5386953949928284,-0.2585737705230713,0.4165911078453064
1766400718740991000,5.684990966796875,-0.24660277366638184,0.21547815203666687,0.4836287498474121
1766400718751000600,5.69500048828125,-0.12449848651885986,0.038307227194309235,0.4141969084739685
1766400718761071400,5.7050712890625,0.05506663769483566,-0.043095629662275314,0.3902548849582672
1766400718771020300,5.715020263671875,0.20111294090747833,0.08140286058187485,0.17477671802043915
1766400718781030000,5.72502978515625,0.19153612852096558,0.1843535304069519,0.2346317619085312
1766400718791039700,5.735039794921875,-0.08858546614646912,0.07422025501728058,0.22744916379451752
1766400718801049600,5.745049560546875,-0.2537853717803955,-0.19153612852096558,0.24660277366638184
1766400718811089700,5.755089599609375,-0.19153612852096558,-0.10055647045373917,0.16998831927776337
1766400718841119000,5.785118896484375,0.10295066982507706,0.038307227194309235,0.05267243832349777
1766400718851159300,5.7951591796875,0.10773907601833344,0.1628057211637497,-0.05267243832349777
1766400718861199600,5.80519970703125,0.13407529890537262,0.1149216815829277,-0.09576806426048279
1766400718871209500,5.81520947265625,0.1867477297782898,0.05027823522686958,-0.1628057211637497
1766400718881188600,5.825188720703125,0.17956513166427612,-0.07900865375995636,-0.15322890877723694
1766400718891229000,5.83522900390625,0.07422025501728058,-0.2944868206977844,-0.17477671802043915
1766400718901238800,5.84523876953125,0.011971008032560349,-0.38307225704193115,-0.13168109953403473
1766400718911248400,5.855248291015625,0.028730420395731926,-0.13168109953403473,-0.15801730751991272
1766400718961358300,5.9053583984375,0.2106897532939911,0.06703764945268631,-0.16519992053508759
1766400718971368200,5.9153681640625,0.20350714027881622,-0.21787235140800476,-0.181959331035614
1766400718981377800,5.925377685546875,0.1412578970193863,-0.15562310814857483,-0.2777273952960968
1766400718991357200,5.935357177734375,0.009576806798577309,-0.16759411990642548,-0.2513911724090576
1766400719001366800,5.94536669921875,-0.1364694982767105,-0.33279404044151306,-0.23942017555236816
1766400719011376600,5.955376708984375,-0.3758896589279175,-0.17717093229293823,-0.07422025501728058
1766400719051415800,5.995415771484375,-0.0071826050989329815,0.33758243918418884,0.06703764945268631
1766400719061425400,6.00542529296875,0.1604115068912506,0.1628057211637497,0.043095629662275314
1766400719071404800,6.01540478515625,0.2513911724090576,-0.07900865375995636,0
1766400719081445000,6.025445068359375,0.19393034279346466,-0.026336219161748886,-0.016759412363171577
1766400719091454700,6.035454833984375,0.29209262132644653,-0.27054479718208313,-0.004788403399288654
1766400719101464600,6.045464599609375,0.272938996553421,-0.45010992884635925,0.047884032130241394
1766400719111474200,6.05547412109375,0.21547815203666687,-0.5386953949928284,0.10773907601833344
1766400719121453600,6.06545361328125,0.09816227108240128,-0.5195417404174805,0.3064578175544739
1766400719141473000,6.08547314453125,0.040701430290937424,0.11971008777618408,0.3687070608139038
1766400719151483000,6.09548291015625,0.12210428714752197,0.4165911078453064,0.21308395266532898
1766400719161462000,6.1054619140625,0.26096799969673157,0.40940847992897034,0.2322375625371933
1766400719171502300,6.11550244140625,0.28969839215278625,0.023942016065120697,0.1364694982767105
1766400719181542700,6.125542724609375,0.23702596127986908,-0.3280056416988373,-0.002394201699644327
1766400719191521800,6.135521728515625,0.08379705995321274,-0.4429273009300232,-0.06224924325942993
1766400719201531600,6.14553173828125,-0.304063618183136,-0.7996633648872375,0.10534487664699554
1766400719211572000,6.155572021484375,-0.35913026332855225,-0.7996633648872375,0.28730419278144836
1766400719221581800,6.165581787109375,-0.047884032130241394,-0.3734954595565796,0.33039984107017517
1766400719271630600,6.215630615234375,-0.1628057211637497,-0.1628057211637497,-0.14365209639072418
1766400719281609700,6.225609619140625,-0.1867477297782898,-0.4189853072166443,-0.08858546614646912
1766400719291650000,6.235650146484375,-0.16519992053508759,-0.36152446269989014,-0.181959331035614
1766400719301629400,6.24562939453125,-0.05027823522686958,-0.1628057211637497,-0.047884032130241394
1766400719311639000,6.25563916015625,0.1412578970193863,-0.038307227194309235,-0.08619125932455063
1766400719321618400,6.265618408203125,0.1149216815829277,0.021547814831137657,-0.2513911724090576
1766400719331658500,6.275658447265625,-0.07661445438861847,-0.009576806798577309,-0.40701428055763245
1766400719341668400,6.28566845703125,-0.20111294090747833,0.40222588181495667,-0.4213795065879822
1766400719351678200,6.29567822265625,-0.1843535304069519,0.7661445140838623,-0.38546648621559143
1766400719381768400,6.3257685546875,-0.42616790533065796,-0.33997663855552673,-0.4812345504760742
1766400719391778300,6.3357783203125,-0.24181437492370605,-0.3280056416988373,-0.33758243918418884
1766400719401788000,6.345787841796875,-0.18914192914962769,-0.028730420395731926,-0.3734954595565796
1766400719411797800,6.3557978515625,-0.05985504388809204,-0.524330198764801,-0.3519476354122162
1766400719421807600,6.3658076171875,0.15562310814857483,-0.0454898327589035,-0.07422025501728058
1766400719431756300,6.37575634765625,0.3016694188117981,0.7110779285430908,-0.1867477297782898
1766400719441796600,6.385796630859375,0.33279404044151306,0.6727706789970398,-0.1364694982767105
1766400719491845400,6.435845458984375,-0.1173158809542656,-0.2513911724090576,0.19393034279346466
1766400719501855200,6.445855224609375,-0.3256114423274994,-0.26815059781074524,0.28969839215278625
1766400719511864800,6.45586474609375,-0.3423708379268646,-0.40701428055763245,0.4644751250743866
1766400719521874700,6.465874755859375,-0.21547815203666687,-0.3687070608139038,0.45010992884635925
1766400719531915000,6.4759150390625,-0.021547814831137657,-0.14844051003456116,0.2968810200691223
1766400719541955300,6.485955322265625,0.12689268589019775,0.033518824726343155,0.21308395266532898
1766400719551934500,6.4959345703125,0.047884032130241394,-0.10773907601833344,0.26815059781074524
1766400719571984600,6.515984619140625,0.038307227194309235,-0.29209262132644653,0.26336219906806946
1766400719581994200,6.525994140625,0.05746084079146385,-0.23702596127986908,0.24660277366638184
1766400719592004000,6.536004150390625,0.13168109953403473,0,0.31124621629714966
1766400719602014000,6.546013916015625,0.14604631066322327,0.019153613597154617,0.3447650372982025
1766400719612023600,6.5560234375,0.028730420395731926,0.033518824726343155,0.21787235140800476
1766400719622033400,6.566033447265625,0.019153613597154617,0.033518824726343155,0.19632454216480255
1766400719632043300,6.576043212890625,0.13168109953403473,-0.10773907601833344,0.07182604819536209
1766400719642083300,6.586083251953125,0.19153612852096558,-0.043095629662275314,-0.033518824726343155
1766400719652093200,6.59609326171875,0.16759411990642548,0.06464344263076782,-0.031124621629714966
1766400719682153000,6.626153076171875,-0.12689268589019775,-0.1843535304069519,-0.019153613597154617
1766400719692162800,6.636162841796875,-0.06224924325942993,-0.31124621629714966,0.06703764945268631
1766400719702203100,6.646203125,-0.1173158809542656,-0.3016694188117981,0.0071826050989329815
1766400719712212700,6.656212646484375,-0.07422025501728058,-0.2849099934101105,0.09576806426048279
1766400719722222600,6.66622265625,0.047884032130241394,-0.035913024097681046,0.1149216815829277
1766400719732232400,6.676232421875,0.1843535304069519,0.3208230137825012,0.12449848651885986
1766400719742272500,6.6862724609375,0.17477671802043915,0.3208230137825012,0.12449848651885986
1766400719792321500,6.736321533203125,-0.016759412363171577,0.05027823522686958,-0.05027823522686958
1766400719802331100,6.7463310546875,-0.11013327538967133,-0.2849099934101105,-0.08140286058187485
1766400719812371500,6.756371337890625,0.035913024097681046,-0.24660277366638184,-0.1173158809542656
1766400719822381300,6.76638134765625,0.16519992053508759,0.15083470940589905,0.05746084079146385
1766400719832391200,6.77639111328125,0.23942017555236816,0.17477671802043915,-0.07422025501728058
1766400719842370300,6.786370361328125,0.24181437492370605,0.090979665517807,-0.15083470940589905
1766400719852410600,6.79641064453125,0.2537853717803955,0.019153613597154617,-0.15801730751991272
1766400719882409500,6.826409423828125,-0.18914192914962769,-0.3016694188117981,-0.181959331035614
1766400719892449500,6.836449462890625,-0.272938996553421,-0.27054479718208313,-0.06464344263076782
1766400719912438500,6.8564384765625,-0.0694318488240242,0.14365209639072418,0.09816227108240128
1766400719922418000,6.86641796875,-0.08140286058187485,0.11971008777618408,0.0454898327589035
1766400719932458200,6.876458251953125,-0.011971008032560349,0.014365210197865963,0.13407529890537262
1766400719942467800,6.8864677734375,-0.08140286058187485,-0.028730420395731926,0.05746084079146385
1766400719952447200,6.896447265625,-0.009576806798577309,0.0933738648891449,0.0933738648891449
1766400719982507000,6.926507080078125,-0.12689268589019775,-0.181959331035614,-0.002394201699644327
1766400719992516900,6.936516845703125,-0.08619125932455063,-0.15322890877723694,0.031124621629714966
1766400720002557200,6.94655712890625,-0.11971008777618408,-0.20111294090747833,0.1173158809542656
1766400720012566800,6.95656689453125,-0.043095629662275314,-0.2106897532939911,-0.038307227194309235
1766400720022576600,6.96657666015625,0.026336219161748886,-0.26336219906806946,0.07900865375995636
1766400720032586200,6.976586181640625,-0.002394201699644327,-0.2082955539226532,0.038307227194309235
1766400720042596000,6.98659619140625,0.016759412363171577,-0.07900865375995636,0.028730420395731926
1766400720052606000,6.99660595703125,0.10055647045373917,0.028730420395731926,0.035913024097681046
1766400720062646300,7.006646240234375,0.1412578970193863,0.004788403399288654,-0.014365210197865963
1766400720092675600,7.036675537109375,0.1628057211637497,-0.2082955539226532,-0.08379705995321274
1766400720102654700,7.04665478515625,0.16519992053508759,-0.043095629662275314,0.07900865375995636
1766400720112664600,7.05666455078125,0.10295066982507706,0.09576806426048279,-0.026336219161748886
1766400720122674200,7.066674072265625,-0.040701430290937424,0.16519992053508759,-0.011971008032560349
1766400720132684000,7.07668408203125,-0.1867477297782898,0.05506663769483566,0.06703764945268631
1766400720142694000,7.08669384765625,-0.4213795065879822,-0.21308395266532898,-0.009576806798577309
1766400720152703500,7.096703369140625,-0.5123591423034668,-0.23942017555236816,0.07422025501728058
1766400720202783000,7.146782958984375,-0.11252748221158981,0.2825157940387726,0.2322375625371933
1766400720212792600,7.15679248046875,-0.08140286058187485,0.24181437492370605,0.0933738648891449
1766400720222772000,7.16677197265625,-0.23702596127986908,0.16759411990642548,0.1412578970193863
1766400720232781600,7.176781494140625,-0.4357447028160095,-0.26336219906806946,0.22505496442317963
1766400720242822000,7.18682177734375,-0.6751648783683777,-0.5363011956214905,0.5315127968788147
1766400720252831700,7.196831787109375,-0.7230489253997803,-0.40462008118629456,0.6057330369949341
1766400720292840200,7.236840087890625,0.33518823981285095,0.11252748221158981,0.26096799969673157
1766400720302850000,7.24685009765625,0.5889736413955688,0.7733271718025208,0.0454898327589035
1766400720312829200,7.2568291015625,0.5554547905921936,0.6320692300796509,-0.15801730751991272
1766400720322839000,7.266839111328125,0.5410895943641663,0.629675030708313,-0.16519992053508759
1766400720332787700,7.27678759765625,0.35673606395721436,0.1149216815829277,-0.24420857429504395
1766400720342828000,7.286828125,0.43335050344467163,-0.08379705995321274,-0.2777273952960968
1766400720352838000,7.296837890625,0.7661445140838623,0.3902548849582672,-0.5291185975074768
1766400720362847500,7.306847412109375,0.8906430602073669,0.31842881441116333,-0.7733271718025208
1766400720402886700,7.34688671875,0.8930372595787048,-0.3687070608139038,-0.5123591423034668
1766400720412896500,7.356896484375,0.8882488012313843,-0.07422025501728058,-0.45489832758903503
1766400720422936600,7.3669365234375,0.8307880163192749,-0.1412578970193863,-0.2992752194404602
1766400720432946400,7.376946533203125,0.7374141216278076,0.18914192914962769,-0.4692635238170624
1766400720442986800,7.38698681640625,1.0079588890075684,0.05267243832349777,-0.4118026793003082
1766400720452966000,7.3969658203125,1.0965443849563599,0.05267243832349777,-0.21787235140800476
1766400720493005000,7.437005126953125,-0.2298433631658554,-0.09816227108240128,-0.3734954595565796
1766400720503015000,7.447014892578125,-0.37828385829925537,-0.05746084079146385,0.0071826050989329815
1766400720513024500,7.4570244140625,-0.4572925269603729,0.09816227108240128,0.06464344263076782
1766400720523034400,7.467034423828125,-0.6057330369949341,-0.028730420395731926,0.10295066982507706
1766400720533044200,7.477044189453125,-0.828393816947937,-0.4357447028160095,0.28969839215278625
1766400720553063700,7.497063720703125,-0.8475474119186401,-0.35434186458587646,0.5147533416748047
1766400720563104000,7.50710400390625,-0.7230489253997803,-0.20350714027881622,0.5003881454467773
1766400720573113600,7.517113525390625,-0.7350199222564697,-0.0694318488240242,0.5913678407669067
1766400720603173600,7.547173583984375,-0.5027823448181152,0.09576806426048279,0.4908113479614258
1766400720623223600,7.5672236328125,-0.14604631066322327,-0.08619125932455063,0.26096799969673157
1766400720633233400,7.5772333984375,0.0071826050989329815,-0.023942016065120697,0.17238251864910126
1766400720643243000,7.587242919921875,0.033518824726343155,0.06464344263076782,0.12928688526153564
1766400720653252900,7.5972529296875,-0.0454898327589035,0.10773907601833344,0.07422025501728058
1766400720663293200,7.607293212890625,-0.11252748221158981,-0.12928688526153564,0.016759412363171577
1766400720673302800,7.617302734375,-0.10295066982507706,-0.11971008777618408,-0.19632454216480255
1766400720703362800,7.64736279296875,-0.08140286058187485,-0.10534487664699554,-0.019153613597154617
1766400720713342000,7.657342041015625,0.043095629662275314,-0.19871874153614044,-0.019153613597154617
1766400720723351800,7.667351806640625,0.035913024097681046,-0.28730419278144836,0.016759412363171577
1766400720733331000,7.6773310546875,-0.026336219161748886,-0.1388636976480484,0.021547814831137657
1766400720743371300,7.687371337890625,0.06703764945268631,0.038307227194309235,0.023942016065120697
1766400720753381000,7.697381103515625,0.10055647045373917,0.05746084079146385,-0.002394201699644327
1766400720763390700,7.707390625,0.07900865375995636,0.05985504388809204,-0.12210428714752197
1766400720773370000,7.7173701171875,0.13168109953403473,-0.15083470940589905,-0.11971008777618408
1766400720783410400,7.727410400390625,0.08140286058187485,-0.2082955539226532,-0.17956513166427612
1766400720813439700,7.757439697265625,0.2346317619085312,0.3423708379268646,-0.15322890877723694
1766400720823449300,7.767449462890625,0.19871874153614044,0.21308395266532898,-0.19153612852096558
1766400720833428700,7.7774287109375,0.19153612852096558,-0.11971008777618408,-0.15562310814857483
1766400720843468800,7.78746875,0.2849099934101105,-0.3016694188117981,-0.22266076505184174
1766400720853478700,7.797478759765625,0.2777273952960968,-0.17956513166427612,-0.08619125932455063
1766400720873528800,7.81752880859375,0.11013327538967133,-0.0694318488240242,0.08858546614646912
1766400720883538400,7.827538330078125,-0.0454898327589035,-0.30885201692581177,0.0694318488240242
1766400720913537300,7.857537353515625,0.1628057211637497,0.0071826050989329815,0.15801730751991272
1766400720923547100,7.867547119140625,0.19153612852096558,0.2082955539226532,0.15801730751991272
1766400720933556700,7.877556640625,0.038307227194309235,-0.040701430290937424,0.12689268589019775
1766400720943566600,7.887566650390625,-0.12689268589019775,-0.15801730751991272,0.14604631066322327
1766400720953545700,7.897545654296875,-0.1628057211637497,-0.06224924325942993,0.22744916379451752
1766400720963586000,7.9075859375,-0.13168109953403473,-0.06224924325942993,0.023942016065120697
1766400720983636200,7.92763623046875,-0.2561795711517334,-0.4620809257030487,0.08619125932455063
1766400721023675100,7.967675048828125,0.016759412363171577,-0.038307227194309235,0.0071826050989329815
1766400721033685000,7.97768505859375,0.06464344263076782,-0.09576806426048279,-0.05506663769483566
1766400721043694800,7.98769482421875,0.1173158809542656,0.028730420395731926,-0.0933738648891449
1766400721053704400,7.997704345703125,0.0454898327589035,0.10295066982507706,-0.038307227194309235
1766400721063714300,8.00771435546875,-0.009576806798577309,-0.033518824726343155,-0.035913024097681046
1766400721073724200,8.01772412109375,0.016759412363171577,-0.11971008777618408,-0.05506663769483566
1766400721083764200,8.02776416015625,0.10295066982507706,-0.035913024097681046,-0.1173158809542656
1766400721123803400,8.067803466796875,0.06703764945268631,-0.17956513166427612,-0.0071826050989329815
1766400721133813200,8.077813232421875,0.18914192914962769,-0.20350714027881622,-0.023942016065120697
1766400721143853600,8.087853515625,0.12449848651885986,-0.0933738648891449,-0.002394201699644327
1766400721153863200,8.09786328125,0.0694318488240242,-0.2801215946674347,0
1766400721163903500,8.107903564453125,0.15801730751991272,-0.12210428714752197,-0.035913024097681046
1766400721173882600,8.117882568359375,0.2059013396501541,0.08619125932455063,-0.05027823522686958
1766400721183892500,8.127892578125,0.35913026332855225,0.20111294090747833,-0.12928688526153564
1766400721223901000,8.16790087890625,-0.2322375625371933,-0.2298433631658554,0.023942016065120697
1766400721233910800,8.177910888671875,-0.07900865375995636,-0.1843535304069519,0.043095629662275314
1766400721243920600,8.187920654296875,-0.05506663769483566,-0.13168109953403473,0.0694318488240242
1766400721253930200,8.19793017578125,-0.13168109953403473,-0.12689268589019775,0.0454898327589035
1766400721264001000,8.2080009765625,-0.11971008777618408,-0.0454898327589035,0.09816227108240128
1766400721273980400,8.21798046875,-0.028730420395731926,0.1628057211637497,0.10055647045373917
1766400721283990300,8.227990234375,0.026336219161748886,0.22026655077934265,0.07661445438861847
1766400721293969400,8.237969482421875,0.05506663769483566,0.08379705995321274,0.009576806798577309
1766400721334008600,8.278008544921875,0.07182604819536209,-0.2298433631658554,0.035913024097681046
1766400721344048600,8.288048583984375,0.07900865375995636,-0.304063618183136,0
1766400721354028000,8.298028076171875,0.002394201699644327,-0.09576806426048279,0.014365210197865963
1766400721364068400,8.308068359375,0.023942016065120697,-0.0933738648891449,-0.10773907601833344
1766400721374078000,8.318077880859375,0.08619125932455063,-0.07661445438861847,-0.181959331035614
1766400721384087800,8.328087890625,0.12689268589019775,-0.08858546614646912,-0.13407529890537262
1766400721394097700,8.33809765625,0.028730420395731926,-0.05267243832349777,-0.3495534360408783
1766400721404107300,8.348107177734375,-0.038307227194309235,-0.1628057211637497,-0.272938996553421
1766400721424127000,8.368126953125,-0.019153613597154617,0.1867477297782898,-0.24899697303771973
1766400721434136600,8.378136474609375,0.07422025501728058,0.0071826050989329815,-0.23942017555236816
1766400721444146400,8.388146484375,-0.011971008032560349,0.0071826050989329815,-0.2082955539226532
1766400721454156300,8.39815625,-0.014365210197865963,0.07182604819536209,-0.10773907601833344
1766400721464166000,8.408165771484375,-0.08619125932455063,0.17717093229293823,-0.10055647045373917
1766400721474175700,8.41817578125,-0.10055647045373917,0.08379705995321274,-0.12928688526153564
1766400721484185600,8.428185546875,-0.07182604819536209,0.08140286058187485,-0.09816227108240128
1766400721494195200,8.4381953125,0.05746084079146385,-0.033518824726343155,-0.11252748221158981
1766400721504205000,8.448205078125,0.13407529890537262,-0.002394201699644327,-0.090979665517807
1766400721524285700,8.46828564453125,0.06464344263076782,0,0.05027823522686958
1766400721534295300,8.47829541015625,0,-0.009576806798577309,0.021547814831137657
1766400721544305200,8.48830517578125,0.002394201699644327,-0.009576806798577309,0.047884032130241394
1766400721554284300,8.4982841796875,0.009576806798577309,-0.17238251864910126,-0.05506663769483566
1766400721564355000,8.50835498046875,0.011971008032560349,-0.2753331959247589,-0.014365210197865963
1766400721574365000,8.518364990234375,-0.026336219161748886,-0.2298433631658554,0.1364694982767105
1766400721584374800,8.528374755859375,-0.0071826050989329815,-0.15801730751991272,0.12928688526153564
1766400721594384400,8.53838427734375,-0.06464344263076782,-0.3711012601852417,0.0933738648891449
1766400721604394200,8.548394287109375,-0.19632454216480255,-0.304063618183136,0.26815059781074524
1766400721624413700,8.56841357421875,-0.0071826050989329815,-0.002394201699644327,0.24899697303771973
1766400721634423600,8.578423583984375,0.004788403399288654,0,0.1364694982767105
1766400721654443000,8.598443115234375,0.10055647045373917,-0.13407529890537262,0.16759411990642548
1766400721664452900,8.608452880859375,0.15083470940589905,0,0.06703764945268631
1766400721674462500,8.61846240234375,0.014365210197865963,-0.038307227194309235,0.05746084079146385
1766400721684502800,8.628502685546875,-0.035913024097681046,-0.17238251864910126,0.10773907601833344
1766400721694512600,8.6385126953125,-0.07661445438861847,-0.15562310814857483,0.11013327538967133
1766400721704522500,8.6485224609375,0.035913024097681046,-0.09816227108240128,0.07422025501728058
1766400721714501600,8.658501708984375,0.038307227194309235,-0.09576806426048279,0.0694318488240242
1766400721724542000,8.6685419921875,0.08379705995321274,0.009576806798577309,0.047884032130241394
1766400721734551800,8.6785517578125,0.014365210197865963,0.016759412363171577,0.031124621629714966
1766400721744561400,8.6885615234375,0.016759412363171577,-0.05506663769483566,-0.009576806798577309
1766400721754571300,8.6985712890625,-0.023942016065120697,-0.12928688526153564,-0.07182604819536209
1766400721784600600,8.7286005859375,0.011971008032560349,-0.2082955539226532,-0.16759411990642548
1766400721794610200,8.738610107421875,0.1149216815829277,-0.09576806426048279,-0.1364694982767105
1766400721804620000,8.7486201171875,0.1149216815829277,-0.038307227194309235,-0.014365210197865963
1766400721824670200,8.768670166015625,-0.15322890877723694,-0.07182604819536209,0.019153613597154617
1766400721844689700,8.788689697265625,-0.040701430290937424,-0.13168109953403473,-0.026336219161748886
1766400721854668800,8.798668701171875,-0.05506663769483566,-0.10295066982507706,-0.002394201699644327
1766400721864678700,8.8086787109375,-0.0454898327589035,-0.07422025501728058,0.05027823522686958
1766400721874657800,8.81865771484375,-0.05985504388809204,0.011971008032560349,-0.035913024097681046
1766400721884698000,8.828697998046875,-0.17717093229293823,-0.11013327538967133,0.10295066982507706
1766400721894677500,8.838677490234375,-0.21547815203666687,-0.09816227108240128,0.272938996553421
1766400721904717800,8.8487177734375,-0.17717093229293823,-0.07182604819536209,0.21547815203666687
1766400721914727400,8.8587275390625,0.014365210197865963,-0.021547814831137657,0.090979665517807
1766400721924737300,8.8687373046875,0.15083470940589905,-0.0454898327589035,-0.031124621629714966
1766400721944756700,8.8887568359375,0.08858546614646912,-0.047884032130241394,-0.1364694982767105
1766400721954766600,8.8987666015625,-0.15562310814857483,-0.26815059781074524,-0.004788403399288654
1766400721964807000,8.908806884765625,-0.10773907601833344,-0.3423708379268646,-0.07661445438861847
1766400721974816500,8.91881640625,-0.05506663769483566,0.06224924325942993,0.011971008032560349
1766400721984826400,8.928826416015625,-0.002394201699644327,0.18914192914962769,0.019153613597154617
1766400721994836200,8.938836181640625,0.040701430290937424,0.1843535304069519,-0.14365209639072418
1766400722004876300,8.948876220703125,0.047884032130241394,0,-0.08858546614646912
1766400722014886100,8.95888623046875,0.10534487664699554,-0.021547814831137657,-0.15083470940589905
1766400722044946000,8.98894580078125,-0.22744916379451752,-0.08619125932455063,-0.014365210197865963
1766400722065026600,9.009026611328125,-0.10295066982507706,0.009576806798577309,-0.009576806798577309
1766400722075005700,9.019005615234375,-0.12210428714752197,-0.08379705995321274,-0.021547814831137657
1766400722085015600,9.029015625,-0.11252748221158981,-0.15083470940589905,-0.06703764945268631
1766400722095025400,9.039025390625,-0.08140286058187485,-0.06464344263076782,0.0071826050989329815
1766400722115044900,9.059044921875,-0.2585737705230713,-0.10534487664699554,0.0454898327589035
1766400722135094800,9.0790947265625,-0.07182604819536209,-0.1364694982767105,0.07422025501728058
1766400722155114500,9.099114501953125,-0.0454898327589035,-0.043095629662275314,0.10055647045373917
1766400722165124000,9.1091240234375,0.05027823522686958,0.0071826050989329815,-0.023942016065120697
1766400722175134000,9.119134033203125,0.0933738648891449,-0.08619125932455063,-0.12210428714752197
1766400722185143800,9.129143798828125,0.0694318488240242,-0.2849099934101105,-0.08858546614646912
1766400722195123000,9.139123046875,0.08379705995321274,-0.2346317619085312,-0.043095629662275314
1766400722205163300,9.149163330078125,0.12449848651885986,0.033518824726343155,0.026336219161748886
1766400722215173000,9.159173095703125,0.12449848651885986,0.1604115068912506,-0.047884032130241394
1766400722225182700,9.1691826171875,0.040701430290937424,0.06464344263076782,-0.05506663769483566
1766400722265282800,9.20928271484375,0.2513911724090576,0.5722141861915588,-0.33279404044151306
1766400722275292700,9.219292724609375,0.1173158809542656,-0.38546648621559143,-0.38307225704193115
1766400722285333000,9.2293330078125,0.1604115068912506,-0.11252748221158981,-0.22026655077934265
1766400722295342600,9.239342529296875,0.1364694982767105,-0.07182604819536209,-0.31603461503982544
1766400722305383000,9.2493828125,0.15322890877723694,-0.07182604819536209,-0.3280056416988373
1766400722315392800,9.259392822265625,-0.10055647045373917,-0.35673606395721436,-0.2753331959247589
1766400722325433000,9.26943310546875,-0.05985504388809204,-0.31603461503982544,-0.2944868206977844
1766400722335442700,9.279442626953125,0.047884032130241394,0.10055647045373917,-0.37828385829925537
1766400722355492900,9.299492919921875,0,-0.42616790533065796,-0.1388636976480484
1766400722365533200,9.309533203125,-0.019153613597154617,-0.4357447028160095,-0.1388636976480484
1766400722375542800,9.319542724609375,0.1628057211637497,-0.1173158809542656,0.06224924325942993
1766400722385583000,9.3295830078125,0.07900865375995636,0.014365210197865963,0.05746084079146385
1766400722395593000,9.339593017578125,0.05027823522686958,-0.019153613597154617,0.0694318488240242
1766400722405633300,9.34963330078125,0.26575639843940735,0.10534487664699554,0.004788403399288654
1766400722425683200,9.36968310546875,0.3232172429561615,0.12689268589019775,0.011971008032560349
1766400722435693000,9.379693115234375,0.304063618183136,0.12449848651885986,0.014365210197865963
1766400722445733400,9.3897333984375,0.11971008777618408,-0.014365210197865963,-0.05746084079146385
1766400722465814000,9.40981396484375,-0.11252748221158981,-0.2992752194404602,0.05746084079146385
1766400722475823600,9.41982373046875,-0.16519992053508759,-0.14844051003456116,0.08619125932455063
1766400722485864000,9.429864013671875,0.0071826050989329815,0.06224924325942993,0.07900865375995636
1766400722495873800,9.439873779296875,0.24181437492370605,0.17477671802043915,0.040701430290937424
1766400722505883400,9.44988330078125,0.2849099934101105,0.2561795711517334,-0.014365210197865963
1766400722515893200,9.459893310546875,0.10055647045373917,0.14604631066322327,-0.0933738648891449
1766400722525933600,9.46993359375,-0.1173158809542656,0.019153613597154617,-0.06224924325942993
1766400722535943200,9.479943115234375,-0.40701428055763245,-0.19393034279346466,0.05267243832349777
1766400722566033700,9.51003369140625,-0.33997663855552673,-0.45250412821769714,0.17717093229293823
1766400722576043300,9.520043212890625,-0.26815059781074524,-0.3926490843296051,0.19393034279346466
1766400722586053000,9.53005322265625,-0.3232172429561615,-0.4572925269603729,0.31124621629714966
1766400722596063000,9.54006298828125,-0.29209262132644653,-0.28730419278144836,0.33997663855552673
1766400722606103300,9.550103271484375,-0.22744916379451752,-0.2082955539226532,0.21787235140800476
1766400722616113000,9.56011279296875,-0.07661445438861847,-0.15322890877723694,0.19153612852096558
1766400722626122800,9.570122802734375,0.028730420395731926,0.028730420395731926,0.07182604819536209
1766400722636132600,9.580132568359375,0.09576806426048279,0,0.023942016065120697
1766400722646203400,9.590203369140625,0.15322890877723694,-0.12449848651885986,-0.07182604819536209
1766400722656182500,9.6001826171875,0.16519992053508759,-0.19393034279346466,-0.043095629662275314
1766400722666192400,9.6101923828125,0.42377370595932007,-0.10534487664699554,-0.1364694982767105
1766400722676202000,9.620201904296875,0.5770025849342346,-0.05267243832349777,-0.20111294090747833
1766400722686242300,9.6302421875,0.768538773059845,0.009576806798577309,-0.2298433631658554
1766400722696252200,9.640252197265625,0.689530074596405,0.031124621629714966,-0.17956513166427612
1766400722706292500,9.65029248046875,0.6368576288223267,0.18914192914962769,-0.17238251864910126
1766400722716302000,9.660302001953125,0.42616790533065796,0.2801215946674347,-0.2322375625371933
1766400722726312000,9.67031201171875,-0.07182604819536209,0.2801215946674347,-0.3064578175544739
1766400722736291000,9.680291015625,-0.42377370595932007,0.33758243918418884,-0.1173158809542656
1766400722746331400,9.690331298828125,-1.0845733880996704,0.26336219906806946,-0.031124621629714966
1766400722766351000,9.71035107421875,-0.9385270476341248,-0.5482721924781799,0.05746084079146385
1766400722776360700,9.720360595703125,-0.38067805767059326,-0.24420857429504395,-0.038307227194309235
1766400722786370600,9.73037060546875,-0.026336219161748886,-0.13407529890537262,-0.15562310814857483
1766400722796380400,9.74038037109375,0.10773907601833344,-0.2082955539226532,0.0071826050989329815
1766400722806420500,9.75042041015625,-0.0694318488240242,-0.1867477297782898,0.12449848651885986
1766400722816430300,9.760430419921875,-0.3423708379268646,-0.23942017555236816,0.22505496442317963
1766400722826501000,9.770501220703125,-0.3519476354122162,-0.1173158809542656,0.10055647045373917
1766400722836480500,9.78048046875,-0.1364694982767105,-0.3926490843296051,0.014365210197865963
1766400722866509800,9.810509765625,0.08619125932455063,0.40940847992897034,-0.11013327538967133
1766400722876580600,9.82058056640625,-0.21547815203666687,0.019153613597154617,0.016759412363171577
1766400722886590200,9.830590087890625,-0.5147533416748047,-0.45489832758903503,0.17477671802043915
1766400722896600000,9.84060009765625,-0.6775590777397156,-0.40701428055763245,0.27054479718208313
1766400722906610000,9.85060986328125,-0.5937620401382446,-0.023942016065120697,0.3016694188117981
1766400722916619500,9.86061962890625,-0.22026655077934265,0.4572925269603729,0.21547815203666687
1766400722926629400,9.87062939453125,-0.05506663769483566,0.0454898327589035,0.07422025501728058
1766400722936639000,9.880638916015625,0.09576806426048279,-0.4596867263317108,0.0454898327589035
1766400722946648800,9.89064892578125,0.05027823522686958,-0.47884035110473633,0.2322375625371933
1766400722976678100,9.92067822265625,-0.09816227108240128,-0.13407529890537262,0.2992752194404602
1766400722986688000,9.93068798828125,-0.3208230137825012,-0.181959331035614,0.272938996553421
1766400722996697600,9.940697509765625,-0.3280056416988373,-0.033518824726343155,0.181959331035614
1766400723006707500,9.95070751953125,-0.2944868206977844,-0.2513911724090576,0.2059013396501541
1766400723016717300,9.96071728515625,-0.26096799969673157,-0.17717093229293823,0.2106897532939911
1766400723026757400,9.97075732421875,-0.19871874153614044,0.002394201699644327,0.1388636976480484
1766400723036767200,9.980767333984375,0.035913024097681046,0.2106897532939911,0.12449848651885986
1766400723046777000,9.990777099609375,0.1628057211637497,0.304063618183136,0.1173158809542656
1766400723056786700,10.00078662109375,0.16519992053508759,0.2825157940387726,0.040701430290937424
1766400723086816000,10.03081591796875,0.040701430290937424,-0.5099649429321289,0.019153613597154617
1766400723096825900,10.040825927734375,-0.021547814831137657,-0.6727706789970398,0.05506663769483566
1766400723106835700,10.050835693359375,0.0071826050989329815,-0.3256114423274994,-0.019153613597154617
1766400723116845300,10.06084521484375,0.2537853717803955,0.19632454216480255,-0.019153613597154617
1766400723126855200,10.070855224609375,0.3208230137825012,0.17717093229293823,-0.009576806798577309
1766400723136865000,10.080864990234375,0.3711012601852417,0.07900865375995636,-0.05027823522686958
1766400723146874600,10.09087451171875,0.4357447028160095,-0.05985504388809204,-0.19153612852096558
1766400723156884500,10.100884521484375,0.4165911078453064,-0.06224924325942993,-0.18914192914962769
1766400723166894300,10.110894287109375,0.37828385829925537,-0.12210428714752197,-0.1388636976480484
1766400723196923400,10.14092333984375,0.10534487664699554,-0.363918662071228,-0.1173158809542656
1766400723206963700,10.150963623046875,0.1388636976480484,-0.14844051003456116,-0.07900865375995636
1766400723216973600,10.1609736328125,0.15562310814857483,0.002394201699644327,-0.002394201699644327
1766400723226983400,10.1709833984375,0.15083470940589905,0.21308395266532898,0.038307227194309235
1766400723237023500,10.1810234375,0.16519992053508759,0.22744916379451752,-0.10295066982507706
1766400723247063800,10.191063720703125,0.14604631066322327,0.2753331959247589,-0.2059013396501541
1766400723257073700,10.20107373046875,0.12928688526153564,0.16759411990642548,-0.19871874153614044
1766400723267083500,10.21108349609375,0.038307227194309235,0.0071826050989329815,-0.17238251864910126
1766400723297143300,10.241143310546875,-0.1149216815829277,-0.304063618183136,-0.090979665517807
1766400723327233500,10.271233642578125,-0.15083470940589905,-0.15562310814857483,-0.009576806798577309
1766400723337213000,10.281212890625,0.002394201699644327,-0.026336219161748886,0.031124621629714966
1766400723347253000,10.2912529296875,0.038307227194309235,0.002394201699644327,0.016759412363171577
1766400723357262800,10.301262939453125,-0.014365210197865963,0.014365210197865963,0.1364694982767105
1766400723367272700,10.311272705078125,0.040701430290937424,0.035913024097681046,0.019153613597154617
1766400723387292200,10.331292236328125,0.05506663769483566,-0.05027823522686958,0.021547814831137657
1766400723407311600,10.3513115234375,-0.17238251864910126,-0.22026655077934265,-0.07422025501728058
1766400723417321500,10.361321533203125,-0.22744916379451752,-0.20350714027881622,0.08379705995321274
1766400723427331300,10.371331298828125,-0.12449848651885986,-0.1412578970193863,0.031124621629714966
1766400723437341000,10.3813408203125,-0.021547814831137657,-0.009576806798577309,-0.002394201699644327
1766400723447381200,10.39138134765625,0.021547814831137657,0.11971008777618408,0.004788403399288654
1766400723457360600,10.401360595703125,0.05985504388809204,0.021547814831137657,-0.038307227194309235
1766400723467400700,10.411400634765625,-0.021547814831137657,-0.047884032130241394,-0.05746084079146385
1766400723477410600,10.42141064453125,0.05506663769483566,-0.08379705995321274,-0.08379705995321274
1766400723497460700,10.441460693359375,-0.026336219161748886,-0.22505496442317963,-0.07661445438861847
1766400723537499600,10.481499755859375,0.011971008032560349,-0.10534487664699554,-0.035913024097681046
1766400723547540000,10.4915400390625,0.028730420395731926,-0.0454898327589035,-0.021547814831137657
1766400723557549800,10.5015498046875,0.14604631066322327,0.10055647045373917,-0.06703764945268631
1766400723567590100,10.511590087890625,0.1604115068912506,0.15083470940589905,-0.08140286058187485
1766400723577599700,10.521599853515625,0.26096799969673157,0.1364694982767105,-0.08858546614646912
1766400723587609600,10.531609619140625,0.2537853717803955,-0.011971008032560349,-0.06703764945268631
1766400723597619200,10.541619140625,0.31603461503982544,-0.06224924325942993,-0.11971008777618408
1766400723607629000,10.551629150390625,0.26336219906806946,-0.0454898327589035,-0.15083470940589905
1766400723617639000,10.561638916015625,0.15083470940589905,-0.15083470940589905,-0.12449848651885986
1766400723627648500,10.5716484375,-0.10534487664699554,-0.2059013396501541,-0.05027823522686958
1766400723637658400,10.581658447265625,-0.24420857429504395,-0.22744916379451752,-0.035913024097681046
1766400723647668200,10.591668212890625,-0.2753331959247589,-0.12210428714752197,0.028730420395731926
1766400723657677800,10.601677734375,-0.28730419278144836,0.06224924325942993,0.1364694982767105
1766400723667687700,10.611687744140625,-0.2561795711517334,0.2944868206977844,0.12689268589019775
1766400723677697500,10.621697509765625,-0.06224924325942993,0.33997663855552673,0.08140286058187485
1766400723687707100,10.63170703125,-0.10534487664699554,0.08379705995321274,0.035913024097681046
1766400723737786600,10.68178662109375,0.1388636976480484,0.019153613597154617,0.014365210197865963
1766400723747796200,10.691796142578125,0.181959331035614,-0.0071826050989329815,-0.004788403399288654
1766400723757806000,10.70180615234375,0.14365209639072418,-0.10055647045373917,0.1173158809542656
1766400723767816000,10.71181591796875,0.10295066982507706,0.10055647045373917,0.0071826050989329815
1766400723777825500,10.721825439453125,0.0933738648891449,0.009576806798577309,0.12928688526153564
1766400723807885300,10.75188525390625,-0.016759412363171577,-0.10055647045373917,0
1766400723817895200,10.761895263671875,-0.002394201699644327,-0.12449848651885986,0.040701430290937424
1766400723827935500,10.771935546875,0.047884032130241394,-0.12689268589019775,0.023942016065120697
1766400723837945300,10.7819453125,0.040701430290937424,-0.10055647045373917,0.023942016065120697
1766400723847985400,10.7919853515625,0.05746084079146385,-0.08379705995321274,0.06464344263076782
1766400723857995300,10.801995361328125,0.05267243832349777,-0.09576806426048279,0.06464344263076782
1766400723868035600,10.81203564453125,0.05267243832349777,-0.09576806426048279,0.06224924325942993
1766400723878045400,10.82204541015625,0.11252748221158981,-0.031124621629714966,0.08619125932455063
1766400723888055000,10.832054931640625,0.05027823522686958,0.11013327538967133,0.08379705995321274
1766400723918054000,10.862053955078125,0.026336219161748886,-0.06464344263076782,-0.002394201699644327
1766400723948113700,10.89211376953125,0.05267243832349777,-0.0694318488240242,-0.038307227194309235
1766400723958123500,10.90212353515625,0.16998831927776337,-0.10295066982507706,-0.11971008777618408
1766400723968163800,10.912163818359375,0.19632454216480255,-0.028730420395731926,-0.05267243832349777
1766400723978173400,10.92217333984375,0.17956513166427612,-0.0454898327589035,-0.19393034279346466
1766400723988213800,10.9322138671875,0.090979665517807,-0.026336219161748886,-0.1364694982767105
1766400724008233200,10.952233154296875,-0.019153613597154617,-0.15562310814857483,-0.07661445438861847
1766400724018243000,10.9622431640625,-0.06703764945268631,0.026336219161748886,-0.06464344263076782
1766400724028253000,10.9722529296875,0.009576806798577309,0.047884032130241394,0.009576806798577309
1766400724038262500,10.982262451171875,0.06224924325942993,-0.019153613597154617,-0.033518824726343155
1766400724048272400,10.9922724609375,-0.031124621629714966,-0.05267243832349777,-0.038307227194309235
1766400724058282200,11.0022822265625,-0.043095629662275314,-0.12928688526153564,0.05985504388809204
1766400724068291800,11.012291748046875,-0.009576806798577309,-0.12689268589019775,0.08140286058187485
1766400724078301700,11.0223017578125,-0.038307227194309235,-0.1843535304069519,0.002394201699644327
1766400724088342000,11.032342041015625,-0.23942017555236816,-0.11013327538967133,0.07422025501728058
1766400724108392000,11.052391845703125,-0.38546648621559143,-0.16998831927776337,0.22744916379451752
1766400724128411600,11.07241162109375,0.05267243832349777,0.15083470940589905,-0.009576806798577309
1766400724138421200,11.082421142578125,0.19632454216480255,0.21547815203666687,-0.043095629662275314
1766400724148461600,11.092461669921875,0.08619125932455063,-0.016759412363171577,0.016759412363171577
1766400724158441000,11.10244091796875,0.05267243832349777,-0.22744916379451752,-0.10055647045373917
1766400724168481000,11.11248095703125,-0.019153613597154617,-0.3495534360408783,-0.15322890877723694
1766400724178521300,11.122521240234375,-0.033518824726343155,-0.3208230137825012,-0.05267243832349777
1766400724188561700,11.132561767578125,-0.040701430290937424,-0.30885201692581177,-0.002394201699644327
1766400724198541000,11.142541015625,-0.019153613597154617,-0.26336219906806946,-0.004788403399288654
1766400724228661800,11.172661865234375,0.06224924325942993,0.24899697303771973,-0.07900865375995636
1766400724238641200,11.18264111328125,-0.011971008032560349,0.28730419278144836,0.0071826050989329815
1766400724248650800,11.192650634765625,0,0.1843535304069519,-0.021547814831137657
1766400724258660600,11.20266064453125,-0.06703764945268631,0.06224924325942993,-0.043095629662275314
1766400724268701000,11.212700927734375,-0.002394201699644327,-0.10534487664699554,-0.1173158809542656
1766400724278710500,11.22271044921875,0.17238251864910126,-0.06464344263076782,0.019153613597154617
1766400724288720400,11.232720458984375,0.363918662071228,0.12210428714752197,-0.05027823522686958
1766400724298760700,11.2427607421875,0.3998316824436188,0.1364694982767105,-0.14365209639072418
1766400724318780200,11.2627802734375,0.3471592366695404,-0.2106897532939911,-0.19393034279346466
1766400724338830300,11.282830322265625,0.6272808313369751,-0.08140286058187485,-0.24420857429504395
1766400724348870700,11.29287060546875,0.5602431893348694,-0.17717093229293823,-0.4213795065879822
1766400724358880300,11.30288037109375,0.36152446269989014,-0.24181437492370605,-0.3423708379268646
1766400724368890000,11.31289013671875,0.17238251864910126,-0.3208230137825012,-0.16519992053508759
1766400724378899700,11.322899658203125,0.05985504388809204,-0.26575639843940735,-0.11013327538967133
1766400724388940000,11.33293994140625,-0.12210428714752197,-0.3064578175544739,-0.05506663769483566
1766400724398950000,11.342949951171875,-0.43335050344467163,-0.3471592366695404,0.090979665517807
1766400724408990200,11.352990234375,-0.5195417404174805,-0.26336219906806946,0.05746084079146385
1766400724449059800,11.393059814453125,-0.016759412363171577,0.1843535304069519,0.17477671802043915
1766400724459069400,11.4030693359375,0.3208230137825012,0.12210428714752197,-0.10295066982507706
1766400724469079300,11.413079345703125,0.6560112833976746,-0.28969839215278625,-0.21787235140800476
1766400724489160000,11.433159912109375,0.31842881441116333,-0.4357447028160095,-0.304063618183136
1766400724499200000,11.443199951171875,0.29209262132644653,-0.6488286852836609,-0.31364041566848755
1766400724509209900,11.4532099609375,0.524330198764801,-0.43335050344467163,-0.23942017555236816
1766400724519189200,11.463189208984375,0.768538773059845,-0.2537853717803955,-0.3711012601852417
1766400724539239200,11.4832392578125,-0.4213795065879822,-0.4118026793003082,-0.23702596127986908
1766400724549279500,11.493279541015625,-0.9648633003234863,-0.43095630407333374,-0.043095629662275314
1766400724559228200,11.503228271484375,-1.2401964664459229,0.2059013396501541,-0.021547814831137657
1766400724569268500,11.5132685546875,-1.072602391242981,0.5937620401382446,0.15562310814857483
1766400724579278300,11.5232783203125,-1.137245774269104,0.6153098344802856,0.2944868206977844
1766400724589288000,11.533287841796875,-1.173158884048462,0.3232172429561615,0.2825157940387726
1766400724599267300,11.543267333984375,-1.070208191871643,0.33279404044151306,0.2753331959247589
1766400724609307600,11.5533076171875,-0.8403648138046265,0.363918662071228,0.2106897532939911
1766400724619317200,11.563317138671875,-0.48602294921875,0.47884035110473633,0.26096799969673157
1766400724649346600,11.5933466796875,0.18914192914962769,0.06224924325942993,0.2849099934101105
1766400724659356400,11.6033564453125,-0.031124621629714966,-0.12210428714752197,0.2801215946674347
1766400724669366000,11.613365966796875,-0.10055647045373917,-0.17717093229293823,0.3711012601852417
1766400724689416200,11.633416259765625,0.14844051003456116,-0.28969839215278625,0.4596867263317108
1766400724699426000,11.643426025390625,0.10295066982507706,-0.6177040338516235,0.47644615173339844
1766400724709466000,11.653466064453125,0.2968810200691223,-0.2537853717803955,0.31603461503982544
1766400724719476000,11.66347607421875,0.7374141216278076,0.023942016065120697,-0.0454898327589035
1766400724759515100,11.70351513671875,0.43335050344467163,-0.43095630407333374,-0.4429273009300232
1766400724769524700,11.713524658203125,0.5147533416748047,-0.47884035110473633,-0.4644751250743866
1766400724779534600,11.72353466796875,0.4596867263317108,-0.14365209639072418,-0.33279404044151306
1766400724799523600,11.743523681640625,0.2346317619085312,0.026336219161748886,-0.19153612852096558
1766400724809594400,11.753594482421875,-0.05746084079146385,-0.35673606395721436,-0.09576806426048279
1766400724819573800,11.76357373046875,0.2537853717803955,-0.2777273952960968,-0.15801730751991272
1766400724839623700,11.783623779296875,0.24899697303771973,0.3687070608139038,-0.20350714027881622
1766400724869714000,11.8137138671875,0.5554547905921936,-0.31842881441116333,-0.31364041566848755
1766400724879723800,11.823723876953125,0.6200982332229614,-0.2801215946674347,-0.2944868206977844
1766400724889764000,11.83376416015625,0.272938996553421,-0.3495534360408783,-0.15083470940589905
1766400724899774000,11.84377392578125,-0.047884032130241394,-0.4189853072166443,-0.031124621629714966
1766400724909783600,11.853783447265625,-0.17956513166427612,-0.2298433631658554,0.016759412363171577
1766400724919763000,11.863762939453125,-0.3711012601852417,-0.5602431893348694,0.06703764945268631
1766400724929803300,11.87380322265625,-0.3734954595565796,-0.4836287498474121,0.1364694982767105
1766400724969872600,11.91387255859375,-0.8738836050033569,0.12689268589019775,0.4405331015586853
1766400724989892400,11.933892333984375,-0.14365209639072418,0.5434837937355042,0.2753331959247589
1766400724999902000,11.94390185546875,-0.13168109953403473,0.2944868206977844,0.2513911724090576
1766400725009942300,11.9539423828125,-0.13168109953403473,-0.24899697303771973,0.12689268589019775
1766400725019952000,11.9639521484375,-0.05985504388809204,-0.5171475410461426,0.004788403399288654
1766400725050012000,11.994011962890625,0.05267243832349777,-0.15562310814857483,0.07661445438861847
1766400725060052200,12.00405224609375,0.014365210197865963,0.031124621629714966,0.043095629662275314
1766400725070123000,12.014123046875,0.1412578970193863,0.15083470940589905,-0.011971008032560349
1766400725080102100,12.02410205078125,0.22266076505184174,0.49799394607543945,-0.1628057211637497
1766400725090112000,12.034112060546875,0.16998831927776337,0.5961562395095825,-0.009576806798577309
1766400725100121900,12.044121826171875,0.2944868206977844,0.31364041566848755,-0.09576806426048279
1766400725110131500,12.05413134765625,0.4357447028160095,0.019153613597154617,-0.3280056416988373
1766400725120141300,12.064141357421875,0.3663128614425659,-0.023942016065120697,-0.47405192255973816
1766400725130151200,12.074151123046875,0.33758243918418884,-0.2059013396501541,-0.5506663918495178
1766400725140160800,12.084160888671875,0.2537853717803955,-0.2753331959247589,-0.43335050344467163
1766400725150170600,12.094170654296875,0.14365209639072418,-0.304063618183136,-0.3974374830722809
1766400725180200000,12.124199951171875,0.7781155705451965,0.6631938815116882,-0.1628057211637497
1766400725190240300,12.134240234375,1.0127472877502441,0.5793967843055725,-0.3064578175544739
1766400725200249900,12.144249755859375,0.7637503147125244,0.090979665517807,-0.38546648621559143
1766400725210290200,12.154290283203125,0.3423708379268646,-0.524330198764801,-0.33279404044151306
1766400725220300000,12.164300048828125,0.16759411990642548,-0.7781155705451965,-0.2298433631658554
1766400725230309600,12.1743095703125,0.06703764945268631,-0.3902548849582672,-0.19153612852096558
1766400725240319500,12.184319580078125,0.090979665517807,0.12928688526153564,-0.09576806426048279
1766400725270409700,12.21440966796875,-0.13168109953403473,-0.12689268589019775,0.08140286058187485
1766400725280419600,12.224419677734375,-0.3256114423274994,-0.5530605912208557,0.08379705995321274
1766400725290460000,12.2344599609375,-0.4812345504760742,-0.569819986820221,0.16759411990642548
1766400725300469800,12.2444697265625,-0.2585737705230713,-0.1412578970193863,0.2561795711517334
1766400725310509800,12.254509765625,-0.05267243832349777,0.14844051003456116,0.2825157940387726
1766400725320519700,12.264519775390625,-0.05027823522686958,0.14844051003456116,0.272938996553421
1766400725330590500,12.274590576171875,-0.08379705995321274,0.016759412363171577,0.1412578970193863
1766400725340600300,12.284600341796875,-0.1364694982767105,-0.2777273952960968,0.2106897532939911
1766400725350671000,12.294671142578125,-0.07900865375995636,-0.2777273952960968,0.12449848651885986
1766400725380731000,12.32473095703125,-0.05746084079146385,0.009576806798577309,-0.2801215946674347
1766400725390771200,12.334771240234375,-0.17717093229293823,-0.15801730751991272,-0.20350714027881622
1766400725400781000,12.344781005859375,-0.23702596127986908,-0.42616790533065796,-0.0071826050989329815
1766400725410821000,12.354821044921875,-0.2537853717803955,-0.38067805767059326,-0.06224924325942993
1766400725420861400,12.364861328125,-0.30885201692581177,-0.304063618183136,0.06224924325942993
1766400725430871300,12.374871337890625,-0.47644615173339844,-0.10534487664699554,0.20350714027881622
1766400725440911600,12.38491162109375,-0.5937620401382446,0.12210428714752197,0.2944868206977844
1766400725450952000,12.394951904296875,-0.4620809257030487,0.07182604819536209,0.22266076505184174
1766400725491052000,12.435052001953125,0.3734954595565796,0.3256114423274994,-0.15322890877723694
1766400725501061600,12.4450615234375,0.33279404044151306,-0.10773907601833344,-0.22744916379451752
1766400725511102000,12.45510205078125,-0.15322890877723694,-0.6991068720817566,-0.2561795711517334
1766400725521111800,12.46511181640625,-0.004788403399288654,-0.7398083209991455,-0.21547815203666687
1766400725531152100,12.475152099609375,0.23942017555236816,-0.2777273952960968,-0.12689268589019775
1766400725551171600,12.495171630859375,0.07900865375995636,-0.0694318488240242,-0.1149216815829277
1766400725561181400,12.505181396484375,-0.395043283700943,-0.10534487664699554,0.08140286058187485
1766400725581261800,12.52526171875,-0.38307225704193115,-0.42856210470199585,0.13407529890537262
1766400725591271700,12.535271728515625,-0.11013327538967133,-0.304063618183136,0.26815059781074524
1766400725601281500,12.545281494140625,-0.05267243832349777,-0.19153612852096558,0.33518823981285095
1766400725611291100,12.555291015625,0.011971008032560349,-0.090979665517807,0.3926490843296051
1766400725621301000,12.565301025390625,0.14844051003456116,-0.06464344263076782,0.395043283700943
1766400725631310800,12.575310791015625,0.4213795065879822,0.2537853717803955,0.2059013396501541
1766400725641320400,12.585320556640625,0.6703764796257019,0.5985504388809204,0.1604115068912506
1766400725651330300,12.595330322265625,0.6799532771110535,0.19393034279346466,-0.05746084079146385
1766400725661340000,12.60533984375,0.3016694188117981,-0.272938996553421,-0.043095629662275314
1766400725711419400,12.65541943359375,-0.07422025501728058,-0.40701428055763245,-0.033518824726343155
1766400725721429200,12.66542919921875,-0.06224924325942993,-0.038307227194309235,-0.014365210197865963
1766400725731500000,12.6755,-0.07422025501728058,0.2992752194404602,-0.0071826050989329815
1766400725741479200,12.685479248046875,-0.004788403399288654,0.15083470940589905,-0.038307227194309235
1766400725751519500,12.69551953125,-0.043095629662275314,-0.09576806426048279,-0.12449848651885986
1766400725761529300,12.705529296875,-0.15322890877723694,-0.2992752194404602,-0.1149216815829277
1766400725781579300,12.725579345703125,-0.033518824726343155,0.019153613597154617,-0.028730420395731926
1766400725791619600,12.73561962890625,0.028730420395731926,-0.0454898327589035,-0.1173158809542656
1766400725801629400,12.74562939453125,0.002394201699644327,-0.11013327538967133,-0.1604115068912506
1766400725811669500,12.75566943359375,0.038307227194309235,0.17717093229293823,-0.07422025501728058
1766400725821679400,12.765679443359375,-0.10295066982507706,0.13407529890537262,-0.014365210197865963
1766400725831689200,12.775689208984375,-0.15083470940589905,0.033518824726343155,0.10534487664699554
1766400725841729500,12.7857294921875,-0.2346317619085312,-0.22266076505184174,0.1628057211637497
1766400725851739100,12.7957392578125,-0.15322890877723694,-0.3423708379268646,0.2801215946674347
1766400725861749000,12.8057490234375,0.009576806798577309,-0.37828385829925537,0.23942017555236816
1766400725911889400,12.855889404296875,0.19871874153614044,-0.4908113479614258,0.17956513166427612
1766400725931908900,12.875908935546875,-0.37828385829925537,-0.9576807022094727,0.3280056416988373
1766400725941918700,12.885918701171875,-0.4620809257030487,-0.9481038451194763,0.2968810200691223
1766400725951928300,12.89592822265625,-0.304063618183136,-0.8571242094039917,0.33518823981285095
1766400725961938200,12.905938232421875,0.002394201699644327,-0.42856210470199585,0.363918662071228
1766400725971978500,12.915978515625,0.47644615173339844,0.304063618183136,0.3016694188117981
1766400725981957600,12.92595751953125,0.7924807667732239,0.6847416758537292,0.11013327538967133
1766400726002007800,12.9460078125,0.40701428055763245,-0.44771572947502136,-0.2298433631658554
1766400726012017400,12.956017333984375,-0.031124621629714966,-0.9050082564353943,-0.07900865375995636
1766400726022027300,12.96602734375,-0.33279404044151306,-0.9313444495201111,-0.009576806798577309
1766400726032098000,12.97609814453125,-0.30885201692581177,-0.8738836050033569,-0.021547814831137657
1766400726042077400,12.986077392578125,-0.07900865375995636,-0.29209262132644653,-0.09816227108240128
1766400726052087000,12.996087158203125,0.18914192914962769,0.047884032130241394,-0.10055647045373917
1766400726062097000,13.006096923828125,0.17477671802043915,0.047884032130241394,-0.1149216815829277
1766400726072106500,13.0161064453125,0.4118026793003082,0.5027823448181152,-0.1364694982767105
1766400726082116400,13.026116455078125,0.6033388376235962,0.9864110946655273,-0.16519992053508759
1766400726122216400,13.066216552734375,-0.7733271718025208,-0.42616790533065796,-0.7254431247711182
1766400726132226300,13.076226318359375,-0.8068459630012512,-0.5219359993934631,-0.5099649429321289
1766400726142236000,13.08623583984375,-0.7182605266571045,-0.12449848651885986,-0.45010992884635925
1766400726152245800,13.096245849609375,-0.6512228846549988,-0.2849099934101105,-0.3423708379268646
1766400726162255600,13.106255615234375,-0.47165772318840027,-0.18914192914962769,-0.2777273952960968
1766400726172296000,13.1162958984375,-0.2753331959247589,0.40940847992897034,-0.05506663769483566
1766400726182305500,13.126305419921875,0.002394201699644327,0.7661445140838623,0.09816227108240128
1766400726222344700,13.1663447265625,0.12449848651885986,0.031124621629714966,-0.002394201699644327
1766400726232385000,13.176385009765625,0.15562310814857483,-0.4189853072166443,0.05027823522686958
1766400726242425300,13.18642529296875,0.06703764945268631,-0.5147533416748047,0.08619125932455063
1766400726252496100,13.19649609375,0.038307227194309235,-0.2825157940387726,0.21547815203666687
1766400726262505700,13.206505615234375,0.21308395266532898,-0.002394201699644327,0.28730419278144836
1766400726272515600,13.216515625,0.14365209639072418,0.002394201699644327,0.31124621629714966
1766400726282525400,13.226525390625,0.20111294090747833,0.002394201699644327,0.2825157940387726
1766400726292565500,13.2365654296875,0.2753331959247589,0.1364694982767105,0.16998831927776337
1766400726342645000,13.28664501953125,-0.05746084079146385,-0.08858546614646912,0.1364694982767105
1766400726352654600,13.296654541015625,-0.10534487664699554,-0.14844051003456116,0.1628057211637497
1766400726362634000,13.306634033203125,-0.16759411990642548,-0.26575639843940735,0.3064578175544739
1766400726372643800,13.316643798828125,-0.17717093229293823,-0.21308395266532898,0.23942017555236816
1766400726382653400,13.3266533203125,-0.090979665517807,-0.08379705995321274,0.10773907601833344
1766400726392663300,13.336663330078125,0.1604115068912506,0.1364694982767105,0.1412578970193863
1766400726402673200,13.346673095703125,0.30885201692581177,0.14604631066322327,0.05506663769483566
1766400726422692600,13.366692626953125,0.15562310814857483,-0.19632454216480255,-0.021547814831137657
1766400726452813300,13.396813232421875,-0.24181437492370605,0.031124621629714966,-0.12928688526153564
1766400726462823200,13.4068232421875,-0.31603461503982544,0.0694318488240242,0.0071826050989329815
1766400726472833000,13.4168330078125,-0.38307225704193115,0.06464344263076782,0.08619125932455063
1766400726482842600,13.426842529296875,-0.06224924325942993,0.1604115068912506,0.08379705995321274
1766400726492852500,13.4368525390625,0.181959331035614,0.2585737705230713,-0.06703764945268631
1766400726502862300,13.4468623046875,-0.07422025501728058,0.035913024097681046,-0.1149216815829277
1766400726542993000,13.486992919921875,0.13407529890537262,-0.24181437492370605,-0.28730419278144836
1766400726553002500,13.49700244140625,0.24181437492370605,-0.05267243832349777,-0.3926490843296051
1766400726563012400,13.507012451171875,0.2825157940387726,-0.12210428714752197,-0.35913026332855225
1766400726573052700,13.517052734375,0.3016694188117981,-0.090979665517807,-0.5434837937355042
1766400726583031800,13.52703173828125,0.26336219906806946,-0.33279404044151306,-0.5147533416748047
1766400726593072000,13.537072021484375,0.090979665517807,-0.395043283700943,-0.42616790533065796
1766400726603082000,13.54708203125,-0.0071826050989329815,-0.05506663769483566,-0.20111294090747833
1766400726613122300,13.557122314453125,0.043095629662275314,0.035913024097681046,-0.16759411990642548
1766400726653161200,13.5971611328125,0.014365210197865963,0.18914192914962769,0.002394201699644327
1766400726663171000,13.607171142578125,-0.16998831927776337,-0.13407529890537262,0.043095629662275314
1766400726673181000,13.617180908203125,-0.304063618183136,-0.06224924325942993,0.07661445438861847
1766400726683190500,13.6271904296875,-0.2777273952960968,-0.20350714027881622,0.24660277366638184
1766400726693230800,13.63723095703125,-0.3232172429561615,-0.24899697303771973,0.395043283700943
1766400726703240700,13.64724072265625,-0.24899697303771973,-0.1364694982767105,0.3232172429561615
1766400726713250300,13.657250244140625,-0.05267243832349777,-0.009576806798577309,0.13168109953403473
1766400726743310300,13.687310302734375,0.524330198764801,0.0071826050989329815,-0.004788403399288654
1766400726753320000,13.69731982421875,0.38067805767059326,-0.1364694982767105,0.035913024097681046
1766400726763329800,13.707329833984375,0.17238251864910126,-0.21547815203666687,0.08379705995321274
1766400726773370000,13.7173701171875,-0.009576806798577309,-0.3447650372982025,0.038307227194309235
1766400726783410400,13.727410400390625,-0.014365210197865963,-0.3447650372982025,0.040701430290937424
1766400726793420000,13.737419921875,-0.090979665517807,-0.22026655077934265,0.0933738648891449
1766400726803460400,13.74746044921875,-0.29209262132644653,-0.17238251864910126,0.15562310814857483
1766400726813500700,13.757500732421875,-0.3232172429561615,-0.0933738648891449,0.1412578970193863
1766400726823541000,13.767541015625,-0.2513911724090576,0.07900865375995636,0.181959331035614
1766400726833550600,13.777550537109375,-0.31842881441116333,0.17717093229293823,0.15083470940589905
1766400726873620200,13.8176201171875,-0.33279404044151306,-0.14604631066322327,0.043095629662275314
1766400726883660500,13.82766064453125,-0.2801215946674347,0.13407529890537262,0.05985504388809204
1766400726893670400,13.83767041015625,-0.1412578970193863,-0.035913024097681046,0.002394201699644327
1766400726903680000,13.847679931640625,0,0.09816227108240128,-0.014365210197865963
1766400726913689900,13.85768994140625,0.08140286058187485,0.14604631066322327,-0.08379705995321274
1766400726923699700,13.86769970703125,0.24420857429504395,0.42856210470199585,-0.026336219161748886
1766400726933709300,13.877709228515625,0.3256114423274994,0.5147533416748047,-0.05985504388809204
1766400726943719200,13.88771923828125,0.29209262132644653,0.2561795711517334,-0.13407529890537262
1766400726973779000,13.917779052734375,-0.47884035110473633,0.30885201692581177,-0.12210428714752197
1766400726983788800,13.927788818359375,-0.6248866319656372,0.3902548849582672,0.021547814831137657
1766400726993798400,13.93779833984375,-0.49799394607543945,0.4692635238170624,0.031124621629714966
1766400727003838700,13.947838623046875,-0.2513911724090576,0.4357447028160095,0.019153613597154617
1766400727013848600,13.9578486328125,-0.16519992053508759,0.5889736413955688,0.12928688526153564
1766400727023858400,13.9678583984375,-0.11013327538967133,0.6248866319656372,0.15322890877723694
1766400727033868000,13.977867919921875,-0.011971008032560349,0.395043283700943,0.08379705995321274
1766400727053979100,13.997979248046875,0.07182604819536209,0.42377370595932007,0.002394201699644327
1766400727074029300,14.018029296875,-0.19632454216480255,0.5530605912208557,0.17717093229293823
1766400727084039000,14.028038818359375,-0.24899697303771973,0.5291185975074768,0.11013327538967133
1766400727094109700,14.038109619140625,-0.2944868206977844,0.507570743560791,0.1173158809542656
1766400727104119600,14.04811962890625,-0.19393034279346466,0.38307225704193115,0.21547815203666687
1766400727114129400,14.05812939453125,-0.304063618183136,0.18914192914962769,0.2801215946674347
1766400727124200200,14.0682001953125,-0.13168109953403473,0.49320554733276367,0.10534487664699554
1766400727134240500,14.078240478515625,-0.1843535304069519,0.507570743560791,0.05985504388809204
1766400727164330800,14.108330810546875,-0.36152446269989014,0.4405331015586853,0.11252748221158981
1766400727174371000,14.11837109375,-0.40940847992897034,0.2585737705230713,-0.019153613597154617
1766400727184380700,14.128380615234375,-0.5770025849342346,0.18914192914962769,-0.08379705995321274
1766400727194390500,14.138390625,-0.5434837937355042,0.4189853072166443,-0.0071826050989329815
1766400727204400400,14.148400390625,-0.6105214357376099,-0.20350714027881622,-0.047884032130241394
1766400727214410000,14.158409912109375,-0.5650315880775452,-0.507570743560791,-0.22026655077934265
1766400727224419800,14.168419921875,-0.4596867263317108,-0.08140286058187485,0.002394201699644327
1766400727234460200,14.178460205078125,-0.2322375625371933,0.18914192914962769,0.05267243832349777
1766400727244470000,14.188469970703125,-0.21547815203666687,0.21308395266532898,-0.040701430290937424
1766400727274529800,14.21852978515625,-0.12928688526153564,0.4165911078453064,0.0694318488240242
1766400727294549200,14.23854931640625,0.3974374830722809,-0.14844051003456116,-0.2753331959247589
1766400727304589600,14.248589599609375,0.38307225704193115,-0.5578489899635315,-0.7230489253997803
1766400727314599400,14.258599365234375,-0.004788403399288654,-0.6344634294509888,-0.7709329724311829
1766400727324609000,14.268609130859375,-0.3902548849582672,-0.5219359993934631,-0.6129156351089478
1766400727334649300,14.2786494140625,-0.5219359993934631,-0.24899697303771973,-0.3974374830722809
1766400727344659200,14.2886591796875,-0.3926490843296051,0.3232172429561615,-0.3016694188117981
1766400727354699500,14.298699462890625,-0.3878606855869293,0.40940847992897034,-0.21787235140800476
1766400727384728600,14.328728515625,-0.44771572947502136,0.48602294921875,-0.0694318488240242
1766400727394738400,14.338738525390625,-0.4118026793003082,0.6919242739677429,-0.1173158809542656
1766400727404778800,14.34877880859375,-0.181959331035614,0.6655880808830261,-0.26815059781074524
1766400727414788600,14.35878857421875,-0.17477671802043915,0.4381389021873474,-0.45489832758903503
1766400727424798200,14.368798095703125,0.08379705995321274,0.27054479718208313,-0.5817909836769104
1766400727434838500,14.378838623046875,0.4908113479614258,0.023942016065120697,-0.5961562395095825
1766400727444848400,14.388848388671875,0.42377370595932007,0.033518824726343155,-0.5434837937355042
1766400727454888700,14.398888671875,0.2059013396501541,0.15801730751991272,-0.35913026332855225
1766400727484979000,14.42897900390625,0.12449848651885986,0.5195417404174805,0.040701430290937424
1766400727495019300,14.439019287109375,0.3208230137825012,1.1085153818130493,0.10295066982507706
1766400727515069200,14.459069091796875,1.2186486721038818,1.9800047874450684,0.0454898327589035
1766400727525079000,14.4690791015625,1.8914192914962769,2.5330653190612793,-0.004788403399288654
1766400727535149800,14.47914990234375,2.6791117191314697,3.160346269607544,-0.17477671802043915
1766400727545159700,14.48915966796875,2.7126305103302,3.1292216777801514,-0.09816227108240128
1766400727555169300,14.499169189453125,3.445256233215332,3.6750996112823486,0.1149216815829277
1766400727565179100,14.50917919921875,3.6535518169403076,3.5649664402008057,0.19871874153614044
1766400727585229000,14.52922900390625,3.5410242080688477,3.5721490383148193,0.33518823981285095
1766400727595239000,14.539239013671875,3.1938650608062744,3.2537200450897217,0.2944868206977844
1766400727605248800,14.549248779296875,2.760514497756958,3.1890766620635986,0.002394201699644327
1766400727615258400,14.55925830078125,2.1164743900299072,2.9520506858825684,-0.11013327538967133
1766400727625268200,14.569268310546875,1.5131354331970215,2.693476915359497,-0.22505496442317963
1766400727635278000,14.579278076171875,0.8858546018600464,2.3989901542663574,-0.5219359993934631
1766400727645287700,14.58928759765625,0.5147533416748047,2.5977089405059814,-0.6200982332229614
1766400727655328000,14.599327880859375,0.15322890877723694,2.209848165512085,-0.9840168952941895
1766400727665337900,14.609337890625,-0.021547814831137657,1.8962076902389526,-1.2689268589019775
1766400727675408600,14.61940869140625,-0.2849099934101105,1.5753847360610962,-1.455674648284912
1766400727705438000,14.64943798828125,-1.6184803247451782,1.3000515699386597,-2.3056161403656006
1766400727715447800,14.65944775390625,-1.8315643072128296,1.0558429956436157,-2.7485435009002686
1766400727725457400,14.66945751953125,-1.8076223134994507,0.608127236366272,-2.9233202934265137
1766400727735467300,14.67946728515625,-1.4748282432556152,0.22505496442317963,-2.760514497756958
1766400727745507600,14.689507568359375,-1.0534487962722778,-0.1388636976480484,-2.7485435009002686
1766400727755517200,14.69951708984375,-0.4429273009300232,-0.47405192255973816,-2.607285737991333
1766400727775567400,14.7195673828125,0.5578489899635315,-0.363918662071228,-2.4588451385498047
1766400727785577000,14.729576904296875,0.9696516990661621,-0.21547815203666687,-2.580949544906616
1766400727805627100,14.749627197265625,1.2856862545013428,-0.4405331015586853,-3.157952070236206
1766400727815637000,14.759636962890625,1.2449848651885986,-0.7541735172271729,-3.179499864578247
1766400727825646600,14.769646484375,1.1875240802764893,-1.3311761617660522,-3.157952070236206
1766400727835656400,14.779656494140625,1.0821791887283325,-1.8507179021835327,-3.184288263320923
1766400727845696800,14.78969677734375,0.7469909191131592,-2.3511061668395996,-2.8802247047424316
1766400727855706400,14.799706298828125,0.42616790533065796,-2.626439332962036,-2.4660277366638184
1766400727865716200,14.80971630859375,0.047884032130241394,-2.655169725418091,-1.9847931861877441
1766400727875726000,14.81972607421875,-0.35434186458587646,-2.5665841102600098,-1.6927006244659424
1766400727885735700,14.829735595703125,-0.6368576288223267,-2.4444799423217773,-1.556231141090393
1766400727925805300,14.869805419921875,-1.414973258972168,-1.922544002532959,-0.08619125932455063
1766400727935815200,14.879815185546875,-1.5131354331970215,-1.8052281141281128,0.47165772318840027
1766400727945824800,14.88982470703125,-1.6663644313812256,-1.6543933153152466,1.0965443849563599
1766400727955865000,14.899864990234375,-1.764526605606079,-1.460463047027588,1.656787633895874
1766400727965875000,14.909875,-1.8100165128707886,-1.1755530834197998,2.1308395862579346
1766400727975884800,14.919884765625,-1.8267759084701538,-0.8355764150619507,2.6192567348480225
1766400727985894400,14.929894287109375,-1.680729627609253,-0.21308395266532898,2.8634653091430664
1766400727995904300,14.939904296875,-1.2952631711959839,0.4668693244457245,2.9712042808532715
1766400728005975000,14.94997509765625,-1.1875240802764893,0.8954314589500427,3.0119056701660156
1766400728046044700,14.990044677734375,-1.2617442607879639,1.2258312702178955,3.066972494125366
1766400728056054300,15.00005419921875,-1.3215993642807007,1.0414776802062988,3.023876667022705
1766400728066064100,15.010064208984375,-1.3838485479354858,0.8786720037460327,2.8778305053710938
1766400728076074000,15.020073974609375,-1.434126853942871,0.7422025203704834,2.7317841053009033
1766400728086083600,15.03008349609375,-1.6065093278884888,0.5793967843055725,2.6623523235321045
1766400728096124000,15.0401240234375,-1.702277421951294,0.47644615173339844,2.322375535964966
1766400728106164200,15.050164306640625,-1.7884687185287476,0.507570743560791,2.0207061767578125
1766400728136193500,15.080193603515625,-2.1499931812286377,0.3734954595565796,0.8092401623725891
1766400728146203400,15.090203369140625,-2.2457611560821533,0.26575639843940735,0.6584054827690125
1766400728156243500,15.100243408203125,-2.3295583724975586,0.12928688526153564,0.5267243981361389
1766400728166253300,15.11025341796875,-2.497152328491211,-0.033518824726343155,0.3016694188117981
1766400728176293600,15.120293701171875,-2.52109432220459,-0.19632454216480255,0.19153612852096558
1766400728186303500,15.130303466796875,-2.4133553504943848,-0.3495534360408783,0.10295066982507706
1766400728196343800,15.14034375,-2.274491548538208,-0.3519476354122162,0.031124621629714966
1766400728206353400,15.150353515625,-1.946485996246338,-0.3758896589279175,0.17717093229293823
1766400728216363300,15.16036328125,-1.3000515699386597,-0.19632454216480255,0.395043283700943
1766400728256402200,15.200402099609375,0.2513911724090576,0.6392518281936646,0.8092401623725891
1766400728266412000,15.210412109375,0.3758896589279175,0.6392518281936646,0.7924807667732239
